rt,response,task,item_id,entity_type,entity,correct,intuitive,question,prefix,population_correct,population_intuitive,population_ratio,display_correct_first,task_type,trial_type,trial_index,time_elapsed,subject_id,study_id,session_id,rng_seed,response_correct,response_position,rt_zscore,output_entropy,midpoint_entropy,output_rank_correct,midpoint_rank_correct,output_logprob_correct,midpoint_logprob_correct,output_logprobdiff,midpoint_logprobdiff,auc_entropy,layer_biggest_change_entropy,twostage_magnitude,twostage_magnitude_latter34,twostage_layer,auc_rank_correct,layer_biggest_change_rank_correct,auc_logprob_correct,layer_biggest_change_logprob_correct,auc_logprobdiff_pos,auc_logprobdiff_neg,layer_biggest_change_logprobdiff,auc_boosting_pos,auc_boosting_neg,layer_argmax_boosting
3519,f,capitals,27,state,Nebraska,Lincoln,Omaha,What is the capital of Nebraska?,The capital of Nebraska is,0.297,0.477,1.606060606,False,critical,html-keyboard-response,11,287997,subject_25,67d993866d1d7516d87e97de,67daffc85579c5693bbb7675,0.2876221160821377,0,left,-0.802189861519109,0.729337235,0.24786628,1.0,1.78299999186922e-05,-0.23585757499999999,-39.9140185,5.023988675,5.0582734999999985,5.849616842462296,16.5,0.0,0.0,0.038461538461538464,1.051232988951365,24.0,1456.9754885749999,1.0,201.53057417500003,0.0,16.0,73.27317050680594,57.06024208602092,19.0
2184,f,capitals,27,state,Nebraska,Lincoln,Omaha,What is the capital of Nebraska?,The capital of Nebraska is,0.297,0.477,1.606060606,True,critical,html-keyboard-response,49,89516,subject_11,67d993866d1d7516d87e97de,67f556ee7e72bf6aa696a5fc,0.1223368700143241,1,left,0.445711162730733,0.729337235,0.24786628,1.0,1.78299999186922e-05,-0.23585757499999999,-39.9140185,5.023988675,5.0582734999999985,5.849616842462296,16.5,0.0,0.0,0.038461538461538464,1.051232988951365,24.0,1456.9754885749999,1.0,201.53057417500003,0.0,16.0,73.27317050680594,57.06024208602092,19.0
1114,f,capitals,27,state,Nebraska,Lincoln,Omaha,What is the capital of Nebraska?,The capital of Nebraska is,0.297,0.477,1.606060606,True,critical,html-keyboard-response,65,116112,subject_14,67d993866d1d7516d87e97de,67f5520928787542c8c6bebc,0.1851916936155551,1,left,0.2964002325335298,0.729337235,0.24786628,1.0,1.78299999186922e-05,-0.23585757499999999,-39.9140185,5.023988675,5.0582734999999985,5.849616842462296,16.5,0.0,0.0,0.038461538461538464,1.051232988951365,24.0,1456.9754885749999,1.0,201.53057417500003,0.0,16.0,73.27317050680594,57.06024208602092,19.0
1340,j,capitals,27,state,Nebraska,Lincoln,Omaha,What is the capital of Nebraska?,The capital of Nebraska is,0.297,0.477,1.606060606,False,critical,html-keyboard-response,55,179255,subject_38,67d993866d1d7516d87e97de,67f5549f993bf9f3b7aad9cb,0.3027436892120891,1,right,-0.0352906475478137,0.729337235,0.24786628,1.0,1.78299999186922e-05,-0.23585757499999999,-39.9140185,5.023988675,5.0582734999999985,5.849616842462296,16.5,0.0,0.0,0.038461538461538464,1.051232988951365,24.0,1456.9754885749999,1.0,201.53057417500003,0.0,16.0,73.27317050680594,57.06024208602092,19.0
8685,j,capitals,27,state,Nebraska,Lincoln,Omaha,What is the capital of Nebraska?,The capital of Nebraska is,0.297,0.477,1.606060606,False,critical,html-keyboard-response,69,361996,subject_30,67d993866d1d7516d87e97de,67f55379f7cd013df69fe5f4,0.2581160959977725,1,right,0.0729515128249271,0.729337235,0.24786628,1.0,1.78299999186922e-05,-0.23585757499999999,-39.9140185,5.023988675,5.0582734999999985,5.849616842462296,16.5,0.0,0.0,0.038461538461538464,1.051232988951365,24.0,1456.9754885749999,1.0,201.53057417500003,0.0,16.0,73.27317050680594,57.06024208602092,19.0
1315,f,capitals,27,state,Nebraska,Lincoln,Omaha,What is the capital of Nebraska?,The capital of Nebraska is,0.297,0.477,1.606060606,False,critical,html-keyboard-response,35,72631,subject_28,67d993866d1d7516d87e97de,67f5594f1e1942f068f623fb,0.1506499290180857,0,left,-0.5056938175657311,0.729337235,0.24786628,1.0,1.78299999186922e-05,-0.23585757499999999,-39.9140185,5.023988675,5.0582734999999985,5.849616842462296,16.5,0.0,0.0,0.038461538461538464,1.051232988951365,24.0,1456.9754885749999,1.0,201.53057417500003,0.0,16.0,73.27317050680594,57.06024208602092,19.0
2491,f,capitals,27,state,Nebraska,Lincoln,Omaha,What is the capital of Nebraska?,The capital of Nebraska is,0.297,0.477,1.606060606,False,critical,html-keyboard-response,19,396161,subject_24,67d993866d1d7516d87e97de,67dafc88e5fd277b68528422,0.4115900751875853,0,left,-0.129931265532145,0.729337235,0.24786628,1.0,1.78299999186922e-05,-0.23585757499999999,-39.9140185,5.023988675,5.0582734999999985,5.849616842462296,16.5,0.0,0.0,0.038461538461538464,1.051232988951365,24.0,1456.9754885749999,1.0,201.53057417500003,0.0,16.0,73.27317050680594,57.06024208602092,19.0
4991,j,capitals,27,state,Nebraska,Lincoln,Omaha,What is the capital of Nebraska?,The capital of Nebraska is,0.297,0.477,1.606060606,False,critical,html-keyboard-response,75,392710,subject_7,67d993866d1d7516d87e97de,67db016e566ddc888e6ce5d4,0.7259458047283218,1,right,-0.2707347361624777,0.729337235,0.24786628,1.0,1.78299999186922e-05,-0.23585757499999999,-39.9140185,5.023988675,5.0582734999999985,5.849616842462296,16.5,0.0,0.0,0.038461538461538464,1.051232988951365,24.0,1456.9754885749999,1.0,201.53057417500003,0.0,16.0,73.27317050680594,57.06024208602092,19.0
11893,f,capitals,27,state,Nebraska,Lincoln,Omaha,What is the capital of Nebraska?,The capital of Nebraska is,0.297,0.477,1.606060606,True,critical,html-keyboard-response,39,218613,subject_31,67d993866d1d7516d87e97de,67daff042e85e568ce9b462c,0.1309822314454309,1,left,0.4921239319817179,0.729337235,0.24786628,1.0,1.78299999186922e-05,-0.23585757499999999,-39.9140185,5.023988675,5.0582734999999985,5.849616842462296,16.5,0.0,0.0,0.038461538461538464,1.051232988951365,24.0,1456.9754885749999,1.0,201.53057417500003,0.0,16.0,73.27317050680594,57.06024208602092,19.0
9836,f,capitals,27,state,Nebraska,Lincoln,Omaha,What is the capital of Nebraska?,The capital of Nebraska is,0.297,0.477,1.606060606,True,critical,html-keyboard-response,75,636182,subject_33,67d993866d1d7516d87e97de,67f553f147984fc1e4ce680b,0.8204237476026546,1,left,-0.3778536293588352,0.729337235,0.24786628,1.0,1.78299999186922e-05,-0.23585757499999999,-39.9140185,5.023988675,5.0582734999999985,5.849616842462296,16.5,0.0,0.0,0.038461538461538464,1.051232988951365,24.0,1456.9754885749999,1.0,201.53057417500003,0.0,16.0,73.27317050680594,57.06024208602092,19.0
1023,j,capitals,27,state,Nebraska,Lincoln,Omaha,What is the capital of Nebraska?,The capital of Nebraska is,0.297,0.477,1.606060606,True,critical,html-keyboard-response,71,197751,subject_37,67d993866d1d7516d87e97de,67f5504b8097e457094e6b73,0.3737577148631503,0,right,-0.476241715109948,0.729337235,0.24786628,1.0,1.78299999186922e-05,-0.23585757499999999,-39.9140185,5.023988675,5.0582734999999985,5.849616842462296,16.5,0.0,0.0,0.038461538461538464,1.051232988951365,24.0,1456.9754885749999,1.0,201.53057417500003,0.0,16.0,73.27317050680594,57.06024208602092,19.0
13921,f,capitals,27,state,Nebraska,Lincoln,Omaha,What is the capital of Nebraska?,The capital of Nebraska is,0.297,0.477,1.606060606,True,critical,html-keyboard-response,35,308422,subject_22,67d993866d1d7516d87e97de,67f551c80905150518bb44d6,0.5022942977992455,1,left,1.027994488047882,0.729337235,0.24786628,1.0,1.78299999186922e-05,-0.23585757499999999,-39.9140185,5.023988675,5.0582734999999985,5.849616842462296,16.5,0.0,0.0,0.038461538461538464,1.051232988951365,24.0,1456.9754885749999,1.0,201.53057417500003,0.0,16.0,73.27317050680594,57.06024208602092,19.0
1667,f,capitals,27,state,Nebraska,Lincoln,Omaha,What is the capital of Nebraska?,The capital of Nebraska is,0.297,0.477,1.606060606,False,critical,html-keyboard-response,47,107034,subject_10,67d993866d1d7516d87e97de,67f55669f837ba443d96a637,0.8740789947351859,0,left,-0.4781115681813823,0.729337235,0.24786628,1.0,1.78299999186922e-05,-0.23585757499999999,-39.9140185,5.023988675,5.0582734999999985,5.849616842462296,16.5,0.0,0.0,0.038461538461538464,1.051232988951365,24.0,1456.9754885749999,1.0,201.53057417500003,0.0,16.0,73.27317050680594,57.06024208602092,19.0
1873,j,capitals,27,state,Nebraska,Lincoln,Omaha,What is the capital of Nebraska?,The capital of Nebraska is,0.297,0.477,1.606060606,False,critical,html-keyboard-response,83,183770,subject_1,67d993866d1d7516d87e97de,67f55341b5d9f135e79aab13,0.5628683827477375,1,right,-0.7227650645626307,0.729337235,0.24786628,1.0,1.78299999186922e-05,-0.23585757499999999,-39.9140185,5.023988675,5.0582734999999985,5.849616842462296,16.5,0.0,0.0,0.038461538461538464,1.051232988951365,24.0,1456.9754885749999,1.0,201.53057417500003,0.0,16.0,73.27317050680594,57.06024208602092,19.0
1655,f,capitals,27,state,Nebraska,Lincoln,Omaha,What is the capital of Nebraska?,The capital of Nebraska is,0.297,0.477,1.606060606,True,critical,html-keyboard-response,87,209474,subject_29,67d993866d1d7516d87e97de,67f55007091bbde6621adf14,0.1861289460922268,1,left,-0.6958744784884299,0.729337235,0.24786628,1.0,1.78299999186922e-05,-0.23585757499999999,-39.9140185,5.023988675,5.0582734999999985,5.849616842462296,16.5,0.0,0.0,0.038461538461538464,1.051232988951365,24.0,1456.9754885749999,1.0,201.53057417500003,0.0,16.0,73.27317050680594,57.06024208602092,19.0
1928,j,capitals,27,state,Nebraska,Lincoln,Omaha,What is the capital of Nebraska?,The capital of Nebraska is,0.297,0.477,1.606060606,False,critical,html-keyboard-response,85,196878,subject_13,67d993866d1d7516d87e97de,67f54edd7f11c2933de057d7,0.1903685215847766,1,right,-0.9225522153150536,0.729337235,0.24786628,1.0,1.78299999186922e-05,-0.23585757499999999,-39.9140185,5.023988675,5.0582734999999985,5.849616842462296,16.5,0.0,0.0,0.038461538461538464,1.051232988951365,24.0,1456.9754885749999,1.0,201.53057417500003,0.0,16.0,73.27317050680594,57.06024208602092,19.0
2045,j,capitals,27,state,Nebraska,Lincoln,Omaha,What is the capital of Nebraska?,The capital of Nebraska is,0.297,0.477,1.606060606,False,critical,html-keyboard-response,77,640113,subject_39,67d993866d1d7516d87e97de,67f54fd9e85702fe33a171fc,0.9550883523334456,1,right,-1.2692908193770915,0.729337235,0.24786628,1.0,1.78299999186922e-05,-0.23585757499999999,-39.9140185,5.023988675,5.0582734999999985,5.849616842462296,16.5,0.0,0.0,0.038461538461538464,1.051232988951365,24.0,1456.9754885749999,1.0,201.53057417500003,0.0,16.0,73.27317050680594,57.06024208602092,19.0
2037,j,capitals,27,state,Nebraska,Lincoln,Omaha,What is the capital of Nebraska?,The capital of Nebraska is,0.297,0.477,1.606060606,True,critical,html-keyboard-response,35,135061,subject_3,67d993866d1d7516d87e97de,67f551c74b27a832a4e249da,0.0300374819571467,0,right,-0.6399587933783859,0.729337235,0.24786628,1.0,1.78299999186922e-05,-0.23585757499999999,-39.9140185,5.023988675,5.0582734999999985,5.849616842462296,16.5,0.0,0.0,0.038461538461538464,1.051232988951365,24.0,1456.9754885749999,1.0,201.53057417500003,0.0,16.0,73.27317050680594,57.06024208602092,19.0
2054,f,capitals,27,state,Nebraska,Lincoln,Omaha,What is the capital of Nebraska?,The capital of Nebraska is,0.297,0.477,1.606060606,False,critical,html-keyboard-response,55,284139,subject_40,67d993866d1d7516d87e97de,67f557715c897569330c570e,0.0375486109350182,0,left,-0.3795647731641481,0.729337235,0.24786628,1.0,1.78299999186922e-05,-0.23585757499999999,-39.9140185,5.023988675,5.0582734999999985,5.849616842462296,16.5,0.0,0.0,0.038461538461538464,1.051232988951365,24.0,1456.9754885749999,1.0,201.53057417500003,0.0,16.0,73.27317050680594,57.06024208602092,19.0
2200,j,capitals,27,state,Nebraska,Lincoln,Omaha,What is the capital of Nebraska?,The capital of Nebraska is,0.297,0.477,1.606060606,True,critical,html-keyboard-response,61,116080,subject_5,67d993866d1d7516d87e97de,67dafa2c9205c56ffe1e34e9,0.6318016865263707,0,right,-0.2508275217982396,0.729337235,0.24786628,1.0,1.78299999186922e-05,-0.23585757499999999,-39.9140185,5.023988675,5.0582734999999985,5.849616842462296,16.5,0.0,0.0,0.038461538461538464,1.051232988951365,24.0,1456.9754885749999,1.0,201.53057417500003,0.0,16.0,73.27317050680594,57.06024208602092,19.0
1661,f,capitals,27,state,Nebraska,Lincoln,Omaha,What is the capital of Nebraska?,The capital of Nebraska is,0.297,0.477,1.606060606,True,critical,html-keyboard-response,75,135035,subject_6,67d993866d1d7516d87e97de,67f54f7c3dcd7be72d7f8b07,0.9713996778653378,1,left,-0.9358474102163904,0.729337235,0.24786628,1.0,1.78299999186922e-05,-0.23585757499999999,-39.9140185,5.023988675,5.0582734999999985,5.849616842462296,16.5,0.0,0.0,0.038461538461538464,1.051232988951365,24.0,1456.9754885749999,1.0,201.53057417500003,0.0,16.0,73.27317050680594,57.06024208602092,19.0
1664,f,capitals,27,state,Nebraska,Lincoln,Omaha,What is the capital of Nebraska?,The capital of Nebraska is,0.297,0.477,1.606060606,True,critical,html-keyboard-response,27,73234,subject_4,67d993866d1d7516d87e97de,67f556e5f837ba443d96a658,0.8075171345124827,1,left,-0.4578860978307041,0.729337235,0.24786628,1.0,1.78299999186922e-05,-0.23585757499999999,-39.9140185,5.023988675,5.0582734999999985,5.849616842462296,16.5,0.0,0.0,0.038461538461538464,1.051232988951365,24.0,1456.9754885749999,1.0,201.53057417500003,0.0,16.0,73.27317050680594,57.06024208602092,19.0
1604,j,capitals,27,state,Nebraska,Lincoln,Omaha,What is the capital of Nebraska?,The capital of Nebraska is,0.297,0.477,1.606060606,True,critical,html-keyboard-response,47,119974,subject_12,67d993866d1d7516d87e97de,67dafabad67546f6b694a1bd,0.4948754483420534,0,right,-1.1928269510873062,0.729337235,0.24786628,1.0,1.78299999186922e-05,-0.23585757499999999,-39.9140185,5.023988675,5.0582734999999985,5.849616842462296,16.5,0.0,0.0,0.038461538461538464,1.051232988951365,24.0,1456.9754885749999,1.0,201.53057417500003,0.0,16.0,73.27317050680594,57.06024208602092,19.0
14843,j,capitals,27,state,Nebraska,Lincoln,Omaha,What is the capital of Nebraska?,The capital of Nebraska is,0.297,0.477,1.606060606,False,critical,html-keyboard-response,73,1093464,subject_32,67d993866d1d7516d87e97de,67dafbe1bb0ae255ffe1b774,0.509360713732427,1,right,-0.1898761218126005,0.729337235,0.24786628,1.0,1.78299999186922e-05,-0.23585757499999999,-39.9140185,5.023988675,5.0582734999999985,5.849616842462296,16.5,0.0,0.0,0.038461538461538464,1.051232988951365,24.0,1456.9754885749999,1.0,201.53057417500003,0.0,16.0,73.27317050680594,57.06024208602092,19.0
20976,f,capitals,27,state,Nebraska,Lincoln,Omaha,What is the capital of Nebraska?,The capital of Nebraska is,0.297,0.477,1.606060606,True,critical,html-keyboard-response,29,340684,subject_23,67d993866d1d7516d87e97de,67f5586f366e42610fa784ed,0.5385001664151741,1,left,-0.0140106591937899,0.729337235,0.24786628,1.0,1.78299999186922e-05,-0.23585757499999999,-39.9140185,5.023988675,5.0582734999999985,5.849616842462296,16.5,0.0,0.0,0.038461538461538464,1.051232988951365,24.0,1456.9754885749999,1.0,201.53057417500003,0.0,16.0,73.27317050680594,57.06024208602092,19.0
3441,j,capitals,27,state,Nebraska,Lincoln,Omaha,What is the capital of Nebraska?,The capital of Nebraska is,0.297,0.477,1.606060606,True,critical,html-keyboard-response,37,146928,subject_21,67d993866d1d7516d87e97de,67daf6047b0fa6851c20e25f,0.4049075367419206,0,right,-0.2520884440286117,0.729337235,0.24786628,1.0,1.78299999186922e-05,-0.23585757499999999,-39.9140185,5.023988675,5.0582734999999985,5.849616842462296,16.5,0.0,0.0,0.038461538461538464,1.051232988951365,24.0,1456.9754885749999,1.0,201.53057417500003,0.0,16.0,73.27317050680594,57.06024208602092,19.0
1820,j,capitals,27,state,Nebraska,Lincoln,Omaha,What is the capital of Nebraska?,The capital of Nebraska is,0.297,0.477,1.606060606,False,critical,html-keyboard-response,43,83141,subject_2,67d993866d1d7516d87e97de,67db038c76da1142dd7558ab,0.014697232112292,1,right,-0.2182990384216958,0.729337235,0.24786628,1.0,1.78299999186922e-05,-0.23585757499999999,-39.9140185,5.023988675,5.0582734999999985,5.849616842462296,16.5,0.0,0.0,0.038461538461538464,1.051232988951365,24.0,1456.9754885749999,1.0,201.53057417500003,0.0,16.0,73.27317050680594,57.06024208602092,19.0
2949,f,capitals,27,state,Nebraska,Lincoln,Omaha,What is the capital of Nebraska?,The capital of Nebraska is,0.297,0.477,1.606060606,False,critical,html-keyboard-response,33,117176,subject_36,67d993866d1d7516d87e97de,67f558c441141b94709c0bf0,0.8243781496268796,0,left,1.2948939176595788,0.729337235,0.24786628,1.0,1.78299999186922e-05,-0.23585757499999999,-39.9140185,5.023988675,5.0582734999999985,5.849616842462296,16.5,0.0,0.0,0.038461538461538464,1.051232988951365,24.0,1456.9754885749999,1.0,201.53057417500003,0.0,16.0,73.27317050680594,57.06024208602092,19.0
5887,f,capitals,27,state,Nebraska,Lincoln,Omaha,What is the capital of Nebraska?,The capital of Nebraska is,0.297,0.477,1.606060606,True,critical,html-keyboard-response,39,100733,subject_20,67d993866d1d7516d87e97de,67f550e142588c25dbb4316d,0.9282073277313146,1,left,0.7782747371993897,0.729337235,0.24786628,1.0,1.78299999186922e-05,-0.23585757499999999,-39.9140185,5.023988675,5.0582734999999985,5.849616842462296,16.5,0.0,0.0,0.038461538461538464,1.051232988951365,24.0,1456.9754885749999,1.0,201.53057417500003,0.0,16.0,73.27317050680594,57.06024208602092,19.0
4943,f,capitals,27,state,Nebraska,Lincoln,Omaha,What is the capital of Nebraska?,The capital of Nebraska is,0.297,0.477,1.606060606,False,critical,html-keyboard-response,39,171065,subject_8,67d993866d1d7516d87e97de,67dafe9cb85ca12096b1842e,0.2612460665735832,0,left,2.5306071388482096,0.729337235,0.24786628,1.0,1.78299999186922e-05,-0.23585757499999999,-39.9140185,5.023988675,5.0582734999999985,5.849616842462296,16.5,0.0,0.0,0.038461538461538464,1.051232988951365,24.0,1456.9754885749999,1.0,201.53057417500003,0.0,16.0,73.27317050680594,57.06024208602092,19.0
1490,j,capitals,27,state,Nebraska,Lincoln,Omaha,What is the capital of Nebraska?,The capital of Nebraska is,0.297,0.477,1.606060606,False,critical,html-keyboard-response,53,105049,subject_19,67d993866d1d7516d87e97de,67f554a334e6b49976b7f0b8,0.632225210767262,1,right,-0.6603169560478382,0.729337235,0.24786628,1.0,1.78299999186922e-05,-0.23585757499999999,-39.9140185,5.023988675,5.0582734999999985,5.849616842462296,16.5,0.0,0.0,0.038461538461538464,1.051232988951365,24.0,1456.9754885749999,1.0,201.53057417500003,0.0,16.0,73.27317050680594,57.06024208602092,19.0
1766,j,capitals,27,state,Nebraska,Lincoln,Omaha,What is the capital of Nebraska?,The capital of Nebraska is,0.297,0.477,1.606060606,True,critical,html-keyboard-response,73,195143,subject_17,67d993866d1d7516d87e97de,67f553041b6b947432e5f48b,0.5891247858355094,0,right,-0.5766166630535775,0.729337235,0.24786628,1.0,1.78299999186922e-05,-0.23585757499999999,-39.9140185,5.023988675,5.0582734999999985,5.849616842462296,16.5,0.0,0.0,0.038461538461538464,1.051232988951365,24.0,1456.9754885749999,1.0,201.53057417500003,0.0,16.0,73.27317050680594,57.06024208602092,19.0
456,f,capitals,27,state,Nebraska,Lincoln,Omaha,What is the capital of Nebraska?,The capital of Nebraska is,0.297,0.477,1.606060606,True,critical,html-keyboard-response,9,768171,subject_35,67d993866d1d7516d87e97de,67f555df14ce3715e6d45f79,0.9096106056143266,1,left,-0.6074806409232014,0.729337235,0.24786628,1.0,1.78299999186922e-05,-0.23585757499999999,-39.9140185,5.023988675,5.0582734999999985,5.849616842462296,16.5,0.0,0.0,0.038461538461538464,1.051232988951365,24.0,1456.9754885749999,1.0,201.53057417500003,0.0,16.0,73.27317050680594,57.06024208602092,19.0
1357,j,capitals,27,state,Nebraska,Lincoln,Omaha,What is the capital of Nebraska?,The capital of Nebraska is,0.297,0.477,1.606060606,False,critical,html-keyboard-response,53,95634,subject_26,67d993866d1d7516d87e97de,67f5501c62e6496094cbacbc,0.3203566281066039,1,right,-0.845436335767975,0.729337235,0.24786628,1.0,1.78299999186922e-05,-0.23585757499999999,-39.9140185,5.023988675,5.0582734999999985,5.849616842462296,16.5,0.0,0.0,0.038461538461538464,1.051232988951365,24.0,1456.9754885749999,1.0,201.53057417500003,0.0,16.0,73.27317050680594,57.06024208602092,19.0
1034,j,capitals,27,state,Nebraska,Lincoln,Omaha,What is the capital of Nebraska?,The capital of Nebraska is,0.297,0.477,1.606060606,True,critical,html-keyboard-response,65,177118,subject_18,67d993866d1d7516d87e97de,67f5576462b73577d57e1593,0.058820149919702,0,right,-0.6577309377432952,0.729337235,0.24786628,1.0,1.78299999186922e-05,-0.23585757499999999,-39.9140185,5.023988675,5.0582734999999985,5.849616842462296,16.5,0.0,0.0,0.038461538461538464,1.051232988951365,24.0,1456.9754885749999,1.0,201.53057417500003,0.0,16.0,73.27317050680594,57.06024208602092,19.0
1961,f,capitals,27,state,Nebraska,Lincoln,Omaha,What is the capital of Nebraska?,The capital of Nebraska is,0.297,0.477,1.606060606,False,critical,html-keyboard-response,79,177111,subject_0,67d993866d1d7516d87e97de,67f54eeec3cc2aee0ce248ad,0.8570890864144345,0,left,-0.3711133888822065,0.729337235,0.24786628,1.0,1.78299999186922e-05,-0.23585757499999999,-39.9140185,5.023988675,5.0582734999999985,5.849616842462296,16.5,0.0,0.0,0.038461538461538464,1.051232988951365,24.0,1456.9754885749999,1.0,201.53057417500003,0.0,16.0,73.27317050680594,57.06024208602092,19.0
337,j,capitals,27,state,Nebraska,Lincoln,Omaha,What is the capital of Nebraska?,The capital of Nebraska is,0.297,0.477,1.606060606,True,critical,html-keyboard-response,51,112387,subject_27,67d993866d1d7516d87e97de,67f5593dc520aae4ec59b4e4,0.1760584082591159,0,right,-1.8502579098259264,0.729337235,0.24786628,1.0,1.78299999186922e-05,-0.23585757499999999,-39.9140185,5.023988675,5.0582734999999985,5.849616842462296,16.5,0.0,0.0,0.038461538461538464,1.051232988951365,24.0,1456.9754885749999,1.0,201.53057417500003,0.0,16.0,73.27317050680594,57.06024208602092,19.0
2049,f,capitals,27,state,Nebraska,Lincoln,Omaha,What is the capital of Nebraska?,The capital of Nebraska is,0.297,0.477,1.606060606,False,critical,html-keyboard-response,69,109281,subject_9,67d993866d1d7516d87e97de,67dafecb026446588f74c678,0.2976404393464391,0,left,0.8172003116213649,0.729337235,0.24786628,1.0,1.78299999186922e-05,-0.23585757499999999,-39.9140185,5.023988675,5.0582734999999985,5.849616842462296,16.5,0.0,0.0,0.038461538461538464,1.051232988951365,24.0,1456.9754885749999,1.0,201.53057417500003,0.0,16.0,73.27317050680594,57.06024208602092,19.0
1926,j,capitals,27,state,Nebraska,Lincoln,Omaha,What is the capital of Nebraska?,The capital of Nebraska is,0.297,0.477,1.606060606,False,critical,html-keyboard-response,87,213731,subject_15,67d993866d1d7516d87e97de,67f555766c245a55ae234777,0.8110002018442615,1,right,1.3601057572837922,0.729337235,0.24786628,1.0,1.78299999186922e-05,-0.23585757499999999,-39.9140185,5.023988675,5.0582734999999985,5.849616842462296,16.5,0.0,0.0,0.038461538461538464,1.051232988951365,24.0,1456.9754885749999,1.0,201.53057417500003,0.0,16.0,73.27317050680594,57.06024208602092,19.0
4038,j,capitals,27,state,Nebraska,Lincoln,Omaha,What is the capital of Nebraska?,The capital of Nebraska is,0.297,0.477,1.606060606,True,critical,html-keyboard-response,37,138930,subject_34,67d993866d1d7516d87e97de,67f551b59a7816b01fff6735,0.7979706291650923,0,right,1.0874225215340343,0.729337235,0.24786628,1.0,1.78299999186922e-05,-0.23585757499999999,-39.9140185,5.023988675,5.0582734999999985,5.849616842462296,16.5,0.0,0.0,0.038461538461538464,1.051232988951365,24.0,1456.9754885749999,1.0,201.53057417500003,0.0,16.0,73.27317050680594,57.06024208602092,19.0
1383,f,capitals,27,state,Nebraska,Lincoln,Omaha,What is the capital of Nebraska?,The capital of Nebraska is,0.297,0.477,1.606060606,True,critical,html-keyboard-response,83,219512,subject_16,67d993866d1d7516d87e97de,67f5546d9be5bbc21122c85f,0.1976383351831119,1,left,-1.4368765631821716,0.729337235,0.24786628,1.0,1.78299999186922e-05,-0.23585757499999999,-39.9140185,5.023988675,5.0582734999999985,5.849616842462296,16.5,0.0,0.0,0.038461538461538464,1.051232988951365,24.0,1456.9754885749999,1.0,201.53057417500003,0.0,16.0,73.27317050680594,57.06024208602092,19.0
2289,j,capitals,42,state,Wisconsin,Madison,Milwaukee,What is the capital of Wisconsin?,The capital of Wisconsin is,0.284,0.551,1.940140845,False,critical,html-keyboard-response,13,291289,subject_25,67d993866d1d7516d87e97de,67daffc85579c5693bbb7675,0.2876221160821377,1,right,-1.0465433403721245,0.372164415,0.11191511500000001,1.0,5.237309338808476e-06,-0.095003685,-47.400149,8.560058165000001,1.7988180000000007,3.435039077922012,10.0,4.430939999999996,4.430939999999996,0.6923076923076923,1.0821434293237562,24.0,1517.710744185,1.0,100.34263116500001,14.620227499999991,16.0,57.736683768535045,45.64217393826347,16.0
1584,f,capitals,42,state,Wisconsin,Madison,Milwaukee,What is the capital of Wisconsin?,The capital of Wisconsin is,0.284,0.551,1.940140845,True,critical,html-keyboard-response,11,34990,subject_11,67d993866d1d7516d87e97de,67f556ee7e72bf6aa696a5fc,0.1223368700143241,1,left,-0.4126702893758373,0.372164415,0.11191511500000001,1.0,5.237309338808476e-06,-0.095003685,-47.400149,8.560058165000001,1.7988180000000007,3.435039077922012,10.0,4.430939999999996,4.430939999999996,0.6923076923076923,1.0821434293237562,24.0,1517.710744185,1.0,100.34263116500001,14.620227499999991,16.0,57.736683768535045,45.64217393826347,16.0
871,j,capitals,42,state,Wisconsin,Madison,Milwaukee,What is the capital of Wisconsin?,The capital of Wisconsin is,0.284,0.551,1.940140845,False,critical,html-keyboard-response,51,102731,subject_14,67d993866d1d7516d87e97de,67f5520928787542c8c6bebc,0.1851916936155551,1,right,-0.6255932978648859,0.372164415,0.11191511500000001,1.0,5.237309338808476e-06,-0.095003685,-47.400149,8.560058165000001,1.7988180000000007,3.435039077922012,10.0,4.430939999999996,4.430939999999996,0.6923076923076923,1.0821434293237562,24.0,1517.710744185,1.0,100.34263116500001,14.620227499999991,16.0,57.736683768535045,45.64217393826347,16.0
1414,f,capitals,42,state,Wisconsin,Madison,Milwaukee,What is the capital of Wisconsin?,The capital of Wisconsin is,0.284,0.551,1.940140845,True,critical,html-keyboard-response,41,163632,subject_38,67d993866d1d7516d87e97de,67f5549f993bf9f3b7aad9cb,0.3027436892120891,1,left,0.0595091213187421,0.372164415,0.11191511500000001,1.0,5.237309338808476e-06,-0.095003685,-47.400149,8.560058165000001,1.7988180000000007,3.435039077922012,10.0,4.430939999999996,4.430939999999996,0.6923076923076923,1.0821434293237562,24.0,1517.710744185,1.0,100.34263116500001,14.620227499999991,16.0,57.736683768535045,45.64217393826347,16.0
4432,f,capitals,42,state,Wisconsin,Madison,Milwaukee,What is the capital of Wisconsin?,The capital of Wisconsin is,0.284,0.551,1.940140845,True,critical,html-keyboard-response,67,352296,subject_30,67d993866d1d7516d87e97de,67f55379f7cd013df69fe5f4,0.2581160959977725,1,left,-0.2278225651869699,0.372164415,0.11191511500000001,1.0,5.237309338808476e-06,-0.095003685,-47.400149,8.560058165000001,1.7988180000000007,3.435039077922012,10.0,4.430939999999996,4.430939999999996,0.6923076923076923,1.0821434293237562,24.0,1517.710744185,1.0,100.34263116500001,14.620227499999991,16.0,57.736683768535045,45.64217393826347,16.0
1318,f,capitals,42,state,Wisconsin,Madison,Milwaukee,What is the capital of Wisconsin?,The capital of Wisconsin is,0.284,0.551,1.940140845,True,critical,html-keyboard-response,9,39389,subject_28,67d993866d1d7516d87e97de,67f5594f1e1942f068f623fb,0.1506499290180857,1,left,-0.4987964998548324,0.372164415,0.11191511500000001,1.0,5.237309338808476e-06,-0.095003685,-47.400149,8.560058165000001,1.7988180000000007,3.435039077922012,10.0,4.430939999999996,4.430939999999996,0.6923076923076923,1.0821434293237562,24.0,1517.710744185,1.0,100.34263116500001,14.620227499999991,16.0,57.736683768535045,45.64217393826347,16.0
3948,f,capitals,42,state,Wisconsin,Madison,Milwaukee,What is the capital of Wisconsin?,The capital of Wisconsin is,0.284,0.551,1.940140845,False,critical,html-keyboard-response,65,483646,subject_24,67d993866d1d7516d87e97de,67dafc88e5fd277b68528422,0.4115900751875853,0,left,1.133337540151696,0.372164415,0.11191511500000001,1.0,5.237309338808476e-06,-0.095003685,-47.400149,8.560058165000001,1.7988180000000007,3.435039077922012,10.0,4.430939999999996,4.430939999999996,0.6923076923076923,1.0821434293237562,24.0,1517.710744185,1.0,100.34263116500001,14.620227499999991,16.0,57.736683768535045,45.64217393826347,16.0
5117,j,capitals,42,state,Wisconsin,Madison,Milwaukee,What is the capital of Wisconsin?,The capital of Wisconsin is,0.284,0.551,1.940140845,False,critical,html-keyboard-response,73,386710,subject_7,67d993866d1d7516d87e97de,67db016e566ddc888e6ce5d4,0.7259458047283218,1,right,-0.2244669513736179,0.372164415,0.11191511500000001,1.0,5.237309338808476e-06,-0.095003685,-47.400149,8.560058165000001,1.7988180000000007,3.435039077922012,10.0,4.430939999999996,4.430939999999996,0.6923076923076923,1.0821434293237562,24.0,1517.710744185,1.0,100.34263116500001,14.620227499999991,16.0,57.736683768535045,45.64217393826347,16.0
10530,f,capitals,42,state,Wisconsin,Madison,Milwaukee,What is the capital of Wisconsin?,The capital of Wisconsin is,0.284,0.551,1.940140845,True,critical,html-keyboard-response,51,293045,subject_31,67d993866d1d7516d87e97de,67daff042e85e568ce9b462c,0.1309822314454309,1,left,0.2031197607647973,0.372164415,0.11191511500000001,1.0,5.237309338808476e-06,-0.095003685,-47.400149,8.560058165000001,1.7988180000000007,3.435039077922012,10.0,4.430939999999996,4.430939999999996,0.6923076923076923,1.0821434293237562,24.0,1517.710744185,1.0,100.34263116500001,14.620227499999991,16.0,57.736683768535045,45.64217393826347,16.0
16603,j,capitals,42,state,Wisconsin,Madison,Milwaukee,What is the capital of Wisconsin?,The capital of Wisconsin is,0.284,0.551,1.940140845,False,critical,html-keyboard-response,53,488433,subject_33,67d993866d1d7516d87e97de,67f553f147984fc1e4ce680b,0.8204237476026546,1,right,0.8430569142358899,0.372164415,0.11191511500000001,1.0,5.237309338808476e-06,-0.095003685,-47.400149,8.560058165000001,1.7988180000000007,3.435039077922012,10.0,4.430939999999996,4.430939999999996,0.6923076923076923,1.0821434293237562,24.0,1517.710744185,1.0,100.34263116500001,14.620227499999991,16.0,57.736683768535045,45.64217393826347,16.0
1292,f,capitals,42,state,Wisconsin,Madison,Milwaukee,What is the capital of Wisconsin?,The capital of Wisconsin is,0.284,0.551,1.940140845,False,critical,html-keyboard-response,13,120613,subject_37,67d993866d1d7516d87e97de,67f5504b8097e457094e6b73,0.3737577148631503,0,left,-0.2207051033455011,0.372164415,0.11191511500000001,1.0,5.237309338808476e-06,-0.095003685,-47.400149,8.560058165000001,1.7988180000000007,3.435039077922012,10.0,4.430939999999996,4.430939999999996,0.6923076923076923,1.0821434293237562,24.0,1517.710744185,1.0,100.34263116500001,14.620227499999991,16.0,57.736683768535045,45.64217393826347,16.0
7967,f,capitals,42,state,Wisconsin,Madison,Milwaukee,What is the capital of Wisconsin?,The capital of Wisconsin is,0.284,0.551,1.940140845,True,critical,html-keyboard-response,89,486319,subject_22,67d993866d1d7516d87e97de,67f551c80905150518bb44d6,0.5022942977992455,1,left,-0.0235997687392607,0.372164415,0.11191511500000001,1.0,5.237309338808476e-06,-0.095003685,-47.400149,8.560058165000001,1.7988180000000007,3.435039077922012,10.0,4.430939999999996,4.430939999999996,0.6923076923076923,1.0821434293237562,24.0,1517.710744185,1.0,100.34263116500001,14.620227499999991,16.0,57.736683768535045,45.64217393826347,16.0
2127,f,capitals,42,state,Wisconsin,Madison,Milwaukee,What is the capital of Wisconsin?,The capital of Wisconsin is,0.284,0.551,1.940140845,True,critical,html-keyboard-response,61,126242,subject_10,67d993866d1d7516d87e97de,67f55669f837ba443d96a637,0.8740789947351859,1,left,0.7304603927324358,0.372164415,0.11191511500000001,1.0,5.237309338808476e-06,-0.095003685,-47.400149,8.560058165000001,1.7988180000000007,3.435039077922012,10.0,4.430939999999996,4.430939999999996,0.6923076923076923,1.0821434293237562,24.0,1517.710744185,1.0,100.34263116500001,14.620227499999991,16.0,57.736683768535045,45.64217393826347,16.0
1986,j,capitals,42,state,Wisconsin,Madison,Milwaukee,What is the capital of Wisconsin?,The capital of Wisconsin is,0.284,0.551,1.940140845,False,critical,html-keyboard-response,13,63969,subject_1,67d993866d1d7516d87e97de,67f55341b5d9f135e79aab13,0.5628683827477375,1,right,-0.5572926575961934,0.372164415,0.11191511500000001,1.0,5.237309338808476e-06,-0.095003685,-47.400149,8.560058165000001,1.7988180000000007,3.435039077922012,10.0,4.430939999999996,4.430939999999996,0.6923076923076923,1.0821434293237562,24.0,1517.710744185,1.0,100.34263116500001,14.620227499999991,16.0,57.736683768535045,45.64217393826347,16.0
1794,f,capitals,42,state,Wisconsin,Madison,Milwaukee,What is the capital of Wisconsin?,The capital of Wisconsin is,0.284,0.551,1.940140845,True,critical,html-keyboard-response,11,83265,subject_29,67d993866d1d7516d87e97de,67f55007091bbde6621adf14,0.1861289460922268,1,left,-0.5554584959979192,0.372164415,0.11191511500000001,1.0,5.237309338808476e-06,-0.095003685,-47.400149,8.560058165000001,1.7988180000000007,3.435039077922012,10.0,4.430939999999996,4.430939999999996,0.6923076923076923,1.0821434293237562,24.0,1517.710744185,1.0,100.34263116500001,14.620227499999991,16.0,57.736683768535045,45.64217393826347,16.0
1706,f,capitals,42,state,Wisconsin,Madison,Milwaukee,What is the capital of Wisconsin?,The capital of Wisconsin is,0.284,0.551,1.940140845,False,critical,html-keyboard-response,69,171796,subject_13,67d993866d1d7516d87e97de,67f54edd7f11c2933de057d7,0.1903685215847766,0,left,-1.2138253040187497,0.372164415,0.11191511500000001,1.0,5.237309338808476e-06,-0.095003685,-47.400149,8.560058165000001,1.7988180000000007,3.435039077922012,10.0,4.430939999999996,4.430939999999996,0.6923076923076923,1.0821434293237562,24.0,1517.710744185,1.0,100.34263116500001,14.620227499999991,16.0,57.736683768535045,45.64217393826347,16.0
18729,j,capitals,42,state,Wisconsin,Madison,Milwaukee,What is the capital of Wisconsin?,The capital of Wisconsin is,0.284,0.551,1.940140845,False,critical,html-keyboard-response,51,489321,subject_39,67d993866d1d7516d87e97de,67f54fd9e85702fe33a171fc,0.9550883523334456,1,right,0.5120868459579642,0.372164415,0.11191511500000001,1.0,5.237309338808476e-06,-0.095003685,-47.400149,8.560058165000001,1.7988180000000007,3.435039077922012,10.0,4.430939999999996,4.430939999999996,0.6923076923076923,1.0821434293237562,24.0,1517.710744185,1.0,100.34263116500001,14.620227499999991,16.0,57.736683768535045,45.64217393826347,16.0
2030,j,capitals,42,state,Wisconsin,Madison,Milwaukee,What is the capital of Wisconsin?,The capital of Wisconsin is,0.284,0.551,1.940140845,True,critical,html-keyboard-response,89,228565,subject_3,67d993866d1d7516d87e97de,67f551c74b27a832a4e249da,0.0300374819571467,0,right,-0.6485382683101345,0.372164415,0.11191511500000001,1.0,5.237309338808476e-06,-0.095003685,-47.400149,8.560058165000001,1.7988180000000007,3.435039077922012,10.0,4.430939999999996,4.430939999999996,0.6923076923076923,1.0821434293237562,24.0,1517.710744185,1.0,100.34263116500001,14.620227499999991,16.0,57.736683768535045,45.64217393826347,16.0
2283,f,capitals,42,state,Wisconsin,Madison,Milwaukee,What is the capital of Wisconsin?,The capital of Wisconsin is,0.284,0.551,1.940140845,True,critical,html-keyboard-response,57,287429,subject_40,67d993866d1d7516d87e97de,67f557715c897569330c570e,0.0375486109350182,1,left,-0.2849686395537424,0.372164415,0.11191511500000001,1.0,5.237309338808476e-06,-0.095003685,-47.400149,8.560058165000001,1.7988180000000007,3.435039077922012,10.0,4.430939999999996,4.430939999999996,0.6923076923076923,1.0821434293237562,24.0,1517.710744185,1.0,100.34263116500001,14.620227499999991,16.0,57.736683768535045,45.64217393826347,16.0
1509,f,capitals,42,state,Wisconsin,Madison,Milwaukee,What is the capital of Wisconsin?,The capital of Wisconsin is,0.284,0.551,1.940140845,True,critical,html-keyboard-response,37,75441,subject_5,67d993866d1d7516d87e97de,67dafa2c9205c56ffe1e34e9,0.6318016865263707,1,left,-1.375945966563077,0.372164415,0.11191511500000001,1.0,5.237309338808476e-06,-0.095003685,-47.400149,8.560058165000001,1.7988180000000007,3.435039077922012,10.0,4.430939999999996,4.430939999999996,0.6923076923076923,1.0821434293237562,24.0,1517.710744185,1.0,100.34263116500001,14.620227499999991,16.0,57.736683768535045,45.64217393826347,16.0
3371,j,capitals,42,state,Wisconsin,Madison,Milwaukee,What is the capital of Wisconsin?,The capital of Wisconsin is,0.284,0.551,1.940140845,False,critical,html-keyboard-response,23,50486,subject_6,67d993866d1d7516d87e97de,67f54f7c3dcd7be72d7f8b07,0.9713996778653378,1,right,1.8603651371789232,0.372164415,0.11191511500000001,1.0,5.237309338808476e-06,-0.095003685,-47.400149,8.560058165000001,1.7988180000000007,3.435039077922012,10.0,4.430939999999996,4.430939999999996,0.6923076923076923,1.0821434293237562,24.0,1517.710744185,1.0,100.34263116500001,14.620227499999991,16.0,57.736683768535045,45.64217393826347,16.0
2275,f,capitals,42,state,Wisconsin,Madison,Milwaukee,What is the capital of Wisconsin?,The capital of Wisconsin is,0.284,0.551,1.940140845,True,critical,html-keyboard-response,43,95627,subject_4,67d993866d1d7516d87e97de,67f556e5f837ba443d96a658,0.8075171345124827,1,left,0.6441841556425211,0.372164415,0.11191511500000001,1.0,5.237309338808476e-06,-0.095003685,-47.400149,8.560058165000001,1.7988180000000007,3.435039077922012,10.0,4.430939999999996,4.430939999999996,0.6923076923076923,1.0821434293237562,24.0,1517.710744185,1.0,100.34263116500001,14.620227499999991,16.0,57.736683768535045,45.64217393826347,16.0
2339,j,capitals,42,state,Wisconsin,Madison,Milwaukee,What is the capital of Wisconsin?,The capital of Wisconsin is,0.284,0.551,1.940140845,False,critical,html-keyboard-response,19,68821,subject_12,67d993866d1d7516d87e97de,67dafabad67546f6b694a1bd,0.4948754483420534,1,right,-0.3098129231247838,0.372164415,0.11191511500000001,1.0,5.237309338808476e-06,-0.095003685,-47.400149,8.560058165000001,1.7988180000000007,3.435039077922012,10.0,4.430939999999996,4.430939999999996,0.6923076923076923,1.0821434293237562,24.0,1517.710744185,1.0,100.34263116500001,14.620227499999991,16.0,57.736683768535045,45.64217393826347,16.0
18069,j,capitals,42,state,Wisconsin,Madison,Milwaukee,What is the capital of Wisconsin?,The capital of Wisconsin is,0.284,0.551,1.940140845,False,critical,html-keyboard-response,87,1212369,subject_32,67d993866d1d7516d87e97de,67dafbe1bb0ae255ffe1b774,0.509360713732427,1,right,-0.1665346451347263,0.372164415,0.11191511500000001,1.0,5.237309338808476e-06,-0.095003685,-47.400149,8.560058165000001,1.7988180000000007,3.435039077922012,10.0,4.430939999999996,4.430939999999996,0.6923076923076923,1.0821434293237562,24.0,1517.710744185,1.0,100.34263116500001,14.620227499999991,16.0,57.736683768535045,45.64217393826347,16.0
14681,j,capitals,42,state,Wisconsin,Madison,Milwaukee,What is the capital of Wisconsin?,The capital of Wisconsin is,0.284,0.551,1.940140845,False,critical,html-keyboard-response,87,963637,subject_23,67d993866d1d7516d87e97de,67f5586f366e42610fa784ed,0.5385001664151741,1,right,-0.4591828962141202,0.372164415,0.11191511500000001,1.0,5.237309338808476e-06,-0.095003685,-47.400149,8.560058165000001,1.7988180000000007,3.435039077922012,10.0,4.430939999999996,4.430939999999996,0.6923076923076923,1.0821434293237562,24.0,1517.710744185,1.0,100.34263116500001,14.620227499999991,16.0,57.736683768535045,45.64217393826347,16.0
2501,f,capitals,42,state,Wisconsin,Madison,Milwaukee,What is the capital of Wisconsin?,The capital of Wisconsin is,0.284,0.551,1.940140845,False,critical,html-keyboard-response,51,176618,subject_21,67d993866d1d7516d87e97de,67daf6047b0fa6851c20e25f,0.4049075367419206,0,left,-0.8155836184284297,0.372164415,0.11191511500000001,1.0,5.237309338808476e-06,-0.095003685,-47.400149,8.560058165000001,1.7988180000000007,3.435039077922012,10.0,4.430939999999996,4.430939999999996,0.6923076923076923,1.0821434293237562,24.0,1517.710744185,1.0,100.34263116500001,14.620227499999991,16.0,57.736683768535045,45.64217393826347,16.0
3696,j,capitals,42,state,Wisconsin,Madison,Milwaukee,What is the capital of Wisconsin?,The capital of Wisconsin is,0.284,0.551,1.940140845,True,critical,html-keyboard-response,65,114749,subject_2,67d993866d1d7516d87e97de,67db038c76da1142dd7558ab,0.014697232112292,0,right,2.282096053208231,0.372164415,0.11191511500000001,1.0,5.237309338808476e-06,-0.095003685,-47.400149,8.560058165000001,1.7988180000000007,3.435039077922012,10.0,4.430939999999996,4.430939999999996,0.6923076923076923,1.0821434293237562,24.0,1517.710744185,1.0,100.34263116500001,14.620227499999991,16.0,57.736683768535045,45.64217393826347,16.0
1901,f,capitals,42,state,Wisconsin,Madison,Milwaukee,What is the capital of Wisconsin?,The capital of Wisconsin is,0.284,0.551,1.940140845,False,critical,html-keyboard-response,61,163535,subject_36,67d993866d1d7516d87e97de,67f558c441141b94709c0bf0,0.8243781496268796,0,left,-0.4807946199347887,0.372164415,0.11191511500000001,1.0,5.237309338808476e-06,-0.095003685,-47.400149,8.560058165000001,1.7988180000000007,3.435039077922012,10.0,4.430939999999996,4.430939999999996,0.6923076923076923,1.0821434293237562,24.0,1517.710744185,1.0,100.34263116500001,14.620227499999991,16.0,57.736683768535045,45.64217393826347,16.0
3151,f,capitals,42,state,Wisconsin,Madison,Milwaukee,What is the capital of Wisconsin?,The capital of Wisconsin is,0.284,0.551,1.940140845,True,critical,html-keyboard-response,25,63486,subject_20,67d993866d1d7516d87e97de,67f550e142588c25dbb4316d,0.9282073277313146,1,left,-0.2422666867054894,0.372164415,0.11191511500000001,1.0,5.237309338808476e-06,-0.095003685,-47.400149,8.560058165000001,1.7988180000000007,3.435039077922012,10.0,4.430939999999996,4.430939999999996,0.6923076923076923,1.0821434293237562,24.0,1517.710744185,1.0,100.34263116500001,14.620227499999991,16.0,57.736683768535045,45.64217393826347,16.0
4802,j,capitals,42,state,Wisconsin,Madison,Milwaukee,What is the capital of Wisconsin?,The capital of Wisconsin is,0.284,0.551,1.940140845,False,critical,html-keyboard-response,75,234200,subject_8,67d993866d1d7516d87e97de,67dafe9cb85ca12096b1842e,0.2612460665735832,1,right,2.3819162681467465,0.372164415,0.11191511500000001,1.0,5.237309338808476e-06,-0.095003685,-47.400149,8.560058165000001,1.7988180000000007,3.435039077922012,10.0,4.430939999999996,4.430939999999996,0.6923076923076923,1.0821434293237562,24.0,1517.710744185,1.0,100.34263116500001,14.620227499999991,16.0,57.736683768535045,45.64217393826347,16.0
1542,f,capitals,42,state,Wisconsin,Madison,Milwaukee,What is the capital of Wisconsin?,The capital of Wisconsin is,0.284,0.551,1.940140845,False,critical,html-keyboard-response,33,78602,subject_19,67d993866d1d7516d87e97de,67f554a334e6b49976b7f0b8,0.632225210767262,0,left,-0.6150650739050513,0.372164415,0.11191511500000001,1.0,5.237309338808476e-06,-0.095003685,-47.400149,8.560058165000001,1.7988180000000007,3.435039077922012,10.0,4.430939999999996,4.430939999999996,0.6923076923076923,1.0821434293237562,24.0,1517.710744185,1.0,100.34263116500001,14.620227499999991,16.0,57.736683768535045,45.64217393826347,16.0
1512,j,capitals,42,state,Wisconsin,Madison,Milwaukee,What is the capital of Wisconsin?,The capital of Wisconsin is,0.284,0.551,1.940140845,True,critical,html-keyboard-response,75,197664,subject_17,67d993866d1d7516d87e97de,67f553041b6b947432e5f48b,0.5891247858355094,0,right,-0.7437773620251681,0.372164415,0.11191511500000001,1.0,5.237309338808476e-06,-0.095003685,-47.400149,8.560058165000001,1.7988180000000007,3.435039077922012,10.0,4.430939999999996,4.430939999999996,0.6923076923076923,1.0821434293237562,24.0,1517.710744185,1.0,100.34263116500001,14.620227499999991,16.0,57.736683768535045,45.64217393826347,16.0
1061,f,capitals,42,state,Wisconsin,Madison,Milwaukee,What is the capital of Wisconsin?,The capital of Wisconsin is,0.284,0.551,1.940140845,True,critical,html-keyboard-response,19,775539,subject_35,67d993866d1d7516d87e97de,67f555df14ce3715e6d45f79,0.9096106056143266,1,left,-0.1300858525933149,0.372164415,0.11191511500000001,1.0,5.237309338808476e-06,-0.095003685,-47.400149,8.560058165000001,1.7988180000000007,3.435039077922012,10.0,4.430939999999996,4.430939999999996,0.6923076923076923,1.0821434293237562,24.0,1517.710744185,1.0,100.34263116500001,14.620227499999991,16.0,57.736683768535045,45.64217393826347,16.0
1784,j,capitals,42,state,Wisconsin,Madison,Milwaukee,What is the capital of Wisconsin?,The capital of Wisconsin is,0.284,0.551,1.940140845,False,critical,html-keyboard-response,57,100587,subject_26,67d993866d1d7516d87e97de,67f5501c62e6496094cbacbc,0.3203566281066039,1,right,-0.3369155668632639,0.372164415,0.11191511500000001,1.0,5.237309338808476e-06,-0.095003685,-47.400149,8.560058165000001,1.7988180000000007,3.435039077922012,10.0,4.430939999999996,4.430939999999996,0.6923076923076923,1.0821434293237562,24.0,1517.710744185,1.0,100.34263116500001,14.620227499999991,16.0,57.736683768535045,45.64217393826347,16.0
995,j,capitals,42,state,Wisconsin,Madison,Milwaukee,What is the capital of Wisconsin?,The capital of Wisconsin is,0.284,0.551,1.940140845,True,critical,html-keyboard-response,27,135312,subject_18,67d993866d1d7516d87e97de,67f5576462b73577d57e1593,0.058820149919702,0,right,-0.7419789261717842,0.372164415,0.11191511500000001,1.0,5.237309338808476e-06,-0.095003685,-47.400149,8.560058165000001,1.7988180000000007,3.435039077922012,10.0,4.430939999999996,4.430939999999996,0.6923076923076923,1.0821434293237562,24.0,1517.710744185,1.0,100.34263116500001,14.620227499999991,16.0,57.736683768535045,45.64217393826347,16.0
2106,f,capitals,42,state,Wisconsin,Madison,Milwaukee,What is the capital of Wisconsin?,The capital of Wisconsin is,0.284,0.551,1.940140845,True,critical,html-keyboard-response,89,195006,subject_0,67d993866d1d7516d87e97de,67f54eeec3cc2aee0ce248ad,0.8570890864144345,1,left,-0.2079542394241761,0.372164415,0.11191511500000001,1.0,5.237309338808476e-06,-0.095003685,-47.400149,8.560058165000001,1.7988180000000007,3.435039077922012,10.0,4.430939999999996,4.430939999999996,0.6923076923076923,1.0821434293237562,24.0,1517.710744185,1.0,100.34263116500001,14.620227499999991,16.0,57.736683768535045,45.64217393826347,16.0
1523,j,capitals,42,state,Wisconsin,Madison,Milwaukee,What is the capital of Wisconsin?,The capital of Wisconsin is,0.284,0.551,1.940140845,False,critical,html-keyboard-response,25,78999,subject_27,67d993866d1d7516d87e97de,67f5593dc520aae4ec59b4e4,0.1760584082591159,1,right,-0.3469705131264361,0.372164415,0.11191511500000001,1.0,5.237309338808476e-06,-0.095003685,-47.400149,8.560058165000001,1.7988180000000007,3.435039077922012,10.0,4.430939999999996,4.430939999999996,0.6923076923076923,1.0821434293237562,24.0,1517.710744185,1.0,100.34263116500001,14.620227499999991,16.0,57.736683768535045,45.64217393826347,16.0
1224,f,capitals,42,state,Wisconsin,Madison,Milwaukee,What is the capital of Wisconsin?,The capital of Wisconsin is,0.284,0.551,1.940140845,False,critical,html-keyboard-response,11,29298,subject_9,67d993866d1d7516d87e97de,67dafecb026446588f74c678,0.2976404393464391,0,left,-1.3654860984364707,0.372164415,0.11191511500000001,1.0,5.237309338808476e-06,-0.095003685,-47.400149,8.560058165000001,1.7988180000000007,3.435039077922012,10.0,4.430939999999996,4.430939999999996,0.6923076923076923,1.0821434293237562,24.0,1517.710744185,1.0,100.34263116500001,14.620227499999991,16.0,57.736683768535045,45.64217393826347,16.0
1632,j,capitals,42,state,Wisconsin,Madison,Milwaukee,What is the capital of Wisconsin?,The capital of Wisconsin is,0.284,0.551,1.940140845,False,critical,html-keyboard-response,9,122114,subject_15,67d993866d1d7516d87e97de,67f555766c245a55ae234777,0.8110002018442615,1,right,0.6554279621702829,0.372164415,0.11191511500000001,1.0,5.237309338808476e-06,-0.095003685,-47.400149,8.560058165000001,1.7988180000000007,3.435039077922012,10.0,4.430939999999996,4.430939999999996,0.6923076923076923,1.0821434293237562,24.0,1517.710744185,1.0,100.34263116500001,14.620227499999991,16.0,57.736683768535045,45.64217393826347,16.0
2631,j,capitals,42,state,Wisconsin,Madison,Milwaukee,What is the capital of Wisconsin?,The capital of Wisconsin is,0.284,0.551,1.940140845,False,critical,html-keyboard-response,21,107225,subject_34,67d993866d1d7516d87e97de,67f551b59a7816b01fff6735,0.7979706291650923,1,right,-0.4155630120300455,0.372164415,0.11191511500000001,1.0,5.237309338808476e-06,-0.095003685,-47.400149,8.560058165000001,1.7988180000000007,3.435039077922012,10.0,4.430939999999996,4.430939999999996,0.6923076923076923,1.0821434293237562,24.0,1517.710744185,1.0,100.34263116500001,14.620227499999991,16.0,57.736683768535045,45.64217393826347,16.0
3523,f,capitals,42,state,Wisconsin,Madison,Milwaukee,What is the capital of Wisconsin?,The capital of Wisconsin is,0.284,0.551,1.940140845,False,critical,html-keyboard-response,29,107839,subject_16,67d993866d1d7516d87e97de,67f5546d9be5bbc21122c85f,0.1976383351831119,0,left,0.4048105268128882,0.372164415,0.11191511500000001,1.0,5.237309338808476e-06,-0.095003685,-47.400149,8.560058165000001,1.7988180000000007,3.435039077922012,10.0,4.430939999999996,4.430939999999996,0.6923076923076923,1.0821434293237562,24.0,1517.710744185,1.0,100.34263116500001,14.620227499999991,16.0,57.736683768535045,45.64217393826347,16.0
3544,j,capitals,5,country,Morrocco,Rabat,Marrakesh,What is the capital of Morrocco?,The capital of Morrocco is,2.02,1.085,0.5371287129,True,critical,html-keyboard-response,15,295837,subject_25,67d993866d1d7516d87e97de,67daffc85579c5693bbb7675,0.2876221160821377,0,right,-0.7972233273960803,0.650772215,0.7455723000000001,1.0,4.410551093512141e-06,-0.3289540025,-48.031690499999996,7.1859574975000005,-7.362567500000001,6.449227873924668,17.0,11.334399000000001,11.334399000000001,0.9807692307692308,1.0114725324173168,24.0,1593.7834470025,3.0,20.903660997500012,98.308261,24.0,53.8643845943687,55.1191122481936,24.0
2059,j,capitals,5,country,Morrocco,Rabat,Marrakesh,What is the capital of Morrocco?,The capital of Morrocco is,2.02,1.085,0.5371287129,False,critical,html-keyboard-response,57,100109,subject_11,67d993866d1d7516d87e97de,67f556ee7e72bf6aa696a5fc,0.1223368700143241,1,right,0.2668816935418642,0.650772215,0.7455723000000001,1.0,4.410551093512141e-06,-0.3289540025,-48.031690499999996,7.1859574975000005,-7.362567500000001,6.449227873924668,17.0,11.334399000000001,11.334399000000001,0.9807692307692308,1.0114725324173168,24.0,1593.7834470025,3.0,20.903660997500012,98.308261,24.0,53.8643845943687,55.1191122481936,24.0
1156,j,capitals,5,country,Morrocco,Rabat,Marrakesh,What is the capital of Morrocco?,The capital of Morrocco is,2.02,1.085,0.5371287129,False,critical,html-keyboard-response,37,88235,subject_14,67d993866d1d7516d87e97de,67f5520928787542c8c6bebc,0.1851916936155551,1,right,0.4557571390221449,0.650772215,0.7455723000000001,1.0,4.410551093512141e-06,-0.3289540025,-48.031690499999996,7.1859574975000005,-7.362567500000001,6.449227873924668,17.0,11.334399000000001,11.334399000000001,0.9807692307692308,1.0114725324173168,24.0,1593.7834470025,3.0,20.903660997500012,98.308261,24.0,53.8643845943687,55.1191122481936,24.0
2235,j,capitals,5,country,Morrocco,Rabat,Marrakesh,What is the capital of Morrocco?,The capital of Morrocco is,2.02,1.085,0.5371287129,True,critical,html-keyboard-response,33,156586,subject_38,67d993866d1d7516d87e97de,67f5549f993bf9f3b7aad9cb,0.3027436892120891,0,right,1.1112741245544508,0.650772215,0.7455723000000001,1.0,4.410551093512141e-06,-0.3289540025,-48.031690499999996,7.1859574975000005,-7.362567500000001,6.449227873924668,17.0,11.334399000000001,11.334399000000001,0.9807692307692308,1.0114725324173168,24.0,1593.7834470025,3.0,20.903660997500012,98.308261,24.0,53.8643845943687,55.1191122481936,24.0
2903,j,capitals,5,country,Morrocco,Rabat,Marrakesh,What is the capital of Morrocco?,The capital of Morrocco is,2.02,1.085,0.5371287129,False,critical,html-keyboard-response,35,142308,subject_30,67d993866d1d7516d87e97de,67f55379f7cd013df69fe5f4,0.2581160959977725,1,right,-0.3359541347332174,0.650772215,0.7455723000000001,1.0,4.410551093512141e-06,-0.3289540025,-48.031690499999996,7.1859574975000005,-7.362567500000001,6.449227873924668,17.0,11.334399000000001,11.334399000000001,0.9807692307692308,1.0114725324173168,24.0,1593.7834470025,3.0,20.903660997500012,98.308261,24.0,53.8643845943687,55.1191122481936,24.0
1163,f,capitals,5,country,Morrocco,Rabat,Marrakesh,What is the capital of Morrocco?,The capital of Morrocco is,2.02,1.085,0.5371287129,True,critical,html-keyboard-response,21,55126,subject_28,67d993866d1d7516d87e97de,67f5594f1e1942f068f623fb,0.1506499290180857,1,left,-0.8551579149179315,0.650772215,0.7455723000000001,1.0,4.410551093512141e-06,-0.3289540025,-48.031690499999996,7.1859574975000005,-7.362567500000001,6.449227873924668,17.0,11.334399000000001,11.334399000000001,0.9807692307692308,1.0114725324173168,24.0,1593.7834470025,3.0,20.903660997500012,98.308261,24.0,53.8643845943687,55.1191122481936,24.0
2907,j,capitals,5,country,Morrocco,Rabat,Marrakesh,What is the capital of Morrocco?,The capital of Morrocco is,2.02,1.085,0.5371287129,False,critical,html-keyboard-response,73,495472,subject_24,67d993866d1d7516d87e97de,67dafc88e5fd277b68528422,0.4115900751875853,1,right,0.2307549548964602,0.650772215,0.7455723000000001,1.0,4.410551093512141e-06,-0.3289540025,-48.031690499999996,7.1859574975000005,-7.362567500000001,6.449227873924668,17.0,11.334399000000001,11.334399000000001,0.9807692307692308,1.0114725324173168,24.0,1593.7834470025,3.0,20.903660997500012,98.308261,24.0,53.8643845943687,55.1191122481936,24.0
8304,f,capitals,5,country,Morrocco,Rabat,Marrakesh,What is the capital of Morrocco?,The capital of Morrocco is,2.02,1.085,0.5371287129,True,critical,html-keyboard-response,61,349366,subject_7,67d993866d1d7516d87e97de,67db016e566ddc888e6ce5d4,0.7259458047283218,1,left,0.9458142400715888,0.650772215,0.7455723000000001,1.0,4.410551093512141e-06,-0.3289540025,-48.031690499999996,7.1859574975000005,-7.362567500000001,6.449227873924668,17.0,11.334399000000001,11.334399000000001,0.9807692307692308,1.0114725324173168,24.0,1593.7834470025,3.0,20.903660997500012,98.308261,24.0,53.8643845943687,55.1191122481936,24.0
4692,f,capitals,5,country,Morrocco,Rabat,Marrakesh,What is the capital of Morrocco?,The capital of Morrocco is,2.02,1.085,0.5371287129,True,critical,html-keyboard-response,7,47508,subject_31,67d993866d1d7516d87e97de,67daff042e85e568ce9b462c,0.1309822314454309,1,left,-1.0347425661349694,0.650772215,0.7455723000000001,1.0,4.410551093512141e-06,-0.3289540025,-48.031690499999996,7.1859574975000005,-7.362567500000001,6.449227873924668,17.0,11.334399000000001,11.334399000000001,0.9807692307692308,1.0114725324173168,24.0,1593.7834470025,3.0,20.903660997500012,98.308261,24.0,53.8643845943687,55.1191122481936,24.0
5296,j,capitals,5,country,Morrocco,Rabat,Marrakesh,What is the capital of Morrocco?,The capital of Morrocco is,2.02,1.085,0.5371287129,False,critical,html-keyboard-response,57,507838,subject_33,67d993866d1d7516d87e97de,67f553f147984fc1e4ce680b,0.8204237476026546,1,right,-1.1969660673550009,0.650772215,0.7455723000000001,1.0,4.410551093512141e-06,-0.3289540025,-48.031690499999996,7.1859574975000005,-7.362567500000001,6.449227873924668,17.0,11.334399000000001,11.334399000000001,0.9807692307692308,1.0114725324173168,24.0,1593.7834470025,3.0,20.903660997500012,98.308261,24.0,53.8643845943687,55.1191122481936,24.0
1017,f,capitals,5,country,Morrocco,Rabat,Marrakesh,What is the capital of Morrocco?,The capital of Morrocco is,2.02,1.085,0.5371287129,False,critical,html-keyboard-response,83,211305,subject_37,67d993866d1d7516d87e97de,67f5504b8097e457094e6b73,0.3737577148631503,0,left,-0.4819414164875937,0.650772215,0.7455723000000001,1.0,4.410551093512141e-06,-0.3289540025,-48.031690499999996,7.1859574975000005,-7.362567500000001,6.449227873924668,17.0,11.334399000000001,11.334399000000001,0.9807692307692308,1.0114725324173168,24.0,1593.7834470025,3.0,20.903660997500012,98.308261,24.0,53.8643845943687,55.1191122481936,24.0
2192,j,capitals,5,country,Morrocco,Rabat,Marrakesh,What is the capital of Morrocco?,The capital of Morrocco is,2.02,1.085,0.5371287129,True,critical,html-keyboard-response,63,439026,subject_22,67d993866d1d7516d87e97de,67f551c80905150518bb44d6,0.5022942977992455,0,right,-1.0435790823008575,0.650772215,0.7455723000000001,1.0,4.410551093512141e-06,-0.3289540025,-48.031690499999996,7.1859574975000005,-7.362567500000001,6.449227873924668,17.0,11.334399000000001,11.334399000000001,0.9807692307692308,1.0114725324173168,24.0,1593.7834470025,3.0,20.903660997500012,98.308261,24.0,53.8643845943687,55.1191122481936,24.0
1783,j,capitals,5,country,Morrocco,Rabat,Marrakesh,What is the capital of Morrocco?,The capital of Morrocco is,2.02,1.085,0.5371287129,True,critical,html-keyboard-response,37,92368,subject_10,67d993866d1d7516d87e97de,67f55669f837ba443d96a637,0.8740789947351859,0,right,-0.1733412476031151,0.650772215,0.7455723000000001,1.0,4.410551093512141e-06,-0.3289540025,-48.031690499999996,7.1859574975000005,-7.362567500000001,6.449227873924668,17.0,11.334399000000001,11.334399000000001,0.9807692307692308,1.0114725324173168,24.0,1593.7834470025,3.0,20.903660997500012,98.308261,24.0,53.8643845943687,55.1191122481936,24.0
2196,j,capitals,5,country,Morrocco,Rabat,Marrakesh,What is the capital of Morrocco?,The capital of Morrocco is,2.02,1.085,0.5371287129,True,critical,html-keyboard-response,73,168441,subject_1,67d993866d1d7516d87e97de,67f55341b5d9f135e79aab13,0.5628683827477375,0,right,-0.2497775650036991,0.650772215,0.7455723000000001,1.0,4.410551093512141e-06,-0.3289540025,-48.031690499999996,7.1859574975000005,-7.362567500000001,6.449227873924668,17.0,11.334399000000001,11.334399000000001,0.9807692307692308,1.0114725324173168,24.0,1593.7834470025,3.0,20.903660997500012,98.308261,24.0,53.8643845943687,55.1191122481936,24.0
2137,f,capitals,5,country,Morrocco,Rabat,Marrakesh,What is the capital of Morrocco?,The capital of Morrocco is,2.02,1.085,0.5371287129,True,critical,html-keyboard-response,35,124881,subject_29,67d993866d1d7516d87e97de,67f55007091bbde6621adf14,0.1861289460922268,1,left,-0.2089643809314072,0.650772215,0.7455723000000001,1.0,4.410551093512141e-06,-0.3289540025,-48.031690499999996,7.1859574975000005,-7.362567500000001,6.449227873924668,17.0,11.334399000000001,11.334399000000001,0.9807692307692308,1.0114725324173168,24.0,1593.7834470025,3.0,20.903660997500012,98.308261,24.0,53.8643845943687,55.1191122481936,24.0
2015,j,capitals,5,country,Morrocco,Rabat,Marrakesh,What is the capital of Morrocco?,The capital of Morrocco is,2.02,1.085,0.5371287129,True,critical,html-keyboard-response,9,58498,subject_13,67d993866d1d7516d87e97de,67f54edd7f11c2933de057d7,0.1903685215847766,0,right,-0.8084046535257672,0.650772215,0.7455723000000001,1.0,4.410551093512141e-06,-0.3289540025,-48.031690499999996,7.1859574975000005,-7.362567500000001,6.449227873924668,17.0,11.334399000000001,11.334399000000001,0.9807692307692308,1.0114725324173168,24.0,1593.7834470025,3.0,20.903660997500012,98.308261,24.0,53.8643845943687,55.1191122481936,24.0
2048,j,capitals,5,country,Morrocco,Rabat,Marrakesh,What is the capital of Morrocco?,The capital of Morrocco is,2.02,1.085,0.5371287129,False,critical,html-keyboard-response,63,556793,subject_39,67d993866d1d7516d87e97de,67f54fd9e85702fe33a171fc,0.9550883523334456,1,right,-1.2689705045247774,0.650772215,0.7455723000000001,1.0,4.410551093512141e-06,-0.3289540025,-48.031690499999996,7.1859574975000005,-7.362567500000001,6.449227873924668,17.0,11.334399000000001,11.334399000000001,0.9807692307692308,1.0114725324173168,24.0,1593.7834470025,3.0,20.903660997500012,98.308261,24.0,53.8643845943687,55.1191122481936,24.0
2577,j,capitals,5,country,Morrocco,Rabat,Marrakesh,What is the capital of Morrocco?,The capital of Morrocco is,2.02,1.085,0.5371287129,True,critical,html-keyboard-response,63,184869,subject_3,67d993866d1d7516d87e97de,67f551c74b27a832a4e249da,0.0300374819571467,0,right,0.0218864156422154,0.650772215,0.7455723000000001,1.0,4.410551093512141e-06,-0.3289540025,-48.031690499999996,7.1859574975000005,-7.362567500000001,6.449227873924668,17.0,11.334399000000001,11.334399000000001,0.9807692307692308,1.0114725324173168,24.0,1593.7834470025,3.0,20.903660997500012,98.308261,24.0,53.8643845943687,55.1191122481936,24.0
2367,j,capitals,5,country,Morrocco,Rabat,Marrakesh,What is the capital of Morrocco?,The capital of Morrocco is,2.02,1.085,0.5371287129,False,critical,html-keyboard-response,81,331042,subject_40,67d993866d1d7516d87e97de,67f557715c897569330c570e,0.0375486109350182,1,right,-0.2502696211114975,0.650772215,0.7455723000000001,1.0,4.410551093512141e-06,-0.3289540025,-48.031690499999996,7.1859574975000005,-7.362567500000001,6.449227873924668,17.0,11.334399000000001,11.334399000000001,0.9807692307692308,1.0114725324173168,24.0,1593.7834470025,3.0,20.903660997500012,98.308261,24.0,53.8643845943687,55.1191122481936,24.0
3065,f,capitals,5,country,Morrocco,Rabat,Marrakesh,What is the capital of Morrocco?,The capital of Morrocco is,2.02,1.085,0.5371287129,True,critical,html-keyboard-response,19,49259,subject_5,67d993866d1d7516d87e97de,67dafa2c9205c56ffe1e34e9,0.6318016865263707,1,left,1.1576058424877005,0.650772215,0.7455723000000001,1.0,4.410551093512141e-06,-0.3289540025,-48.031690499999996,7.1859574975000005,-7.362567500000001,6.449227873924668,17.0,11.334399000000001,11.334399000000001,0.9807692307692308,1.0114725324173168,24.0,1593.7834470025,3.0,20.903660997500012,98.308261,24.0,53.8643845943687,55.1191122481936,24.0
2893,f,capitals,5,country,Morrocco,Rabat,Marrakesh,What is the capital of Morrocco?,The capital of Morrocco is,2.02,1.085,0.5371287129,True,critical,html-keyboard-response,39,78282,subject_6,67d993866d1d7516d87e97de,67f54f7c3dcd7be72d7f8b07,0.9713996778653378,1,left,1.078733793521052,0.650772215,0.7455723000000001,1.0,4.410551093512141e-06,-0.3289540025,-48.031690499999996,7.1859574975000005,-7.362567500000001,6.449227873924668,17.0,11.334399000000001,11.334399000000001,0.9807692307692308,1.0114725324173168,24.0,1593.7834470025,3.0,20.903660997500012,98.308261,24.0,53.8643845943687,55.1191122481936,24.0
2064,f,capitals,5,country,Morrocco,Rabat,Marrakesh,What is the capital of Morrocco?,The capital of Morrocco is,2.02,1.085,0.5371287129,False,critical,html-keyboard-response,13,51921,subject_4,67d993866d1d7516d87e97de,67f556e5f837ba443d96a658,0.8075171345124827,0,left,0.2636001564889196,0.650772215,0.7455723000000001,1.0,4.410551093512141e-06,-0.3289540025,-48.031690499999996,7.1859574975000005,-7.362567500000001,6.449227873924668,17.0,11.334399000000001,11.334399000000001,0.9807692307692308,1.0114725324173168,24.0,1593.7834470025,3.0,20.903660997500012,98.308261,24.0,53.8643845943687,55.1191122481936,24.0
2943,j,capitals,5,country,Morrocco,Rabat,Marrakesh,What is the capital of Morrocco?,The capital of Morrocco is,2.02,1.085,0.5371287129,False,critical,html-keyboard-response,43,114084,subject_12,67d993866d1d7516d87e97de,67dafabad67546f6b694a1bd,0.4948754483420534,1,right,0.4158203733233298,0.650772215,0.7455723000000001,1.0,4.410551093512141e-06,-0.3289540025,-48.031690499999996,7.1859574975000005,-7.362567500000001,6.449227873924668,17.0,11.334399000000001,11.334399000000001,0.9807692307692308,1.0114725324173168,24.0,1593.7834470025,3.0,20.903660997500012,98.308261,24.0,53.8643845943687,55.1191122481936,24.0
14653,j,capitals,5,country,Morrocco,Rabat,Marrakesh,What is the capital of Morrocco?,The capital of Morrocco is,2.02,1.085,0.5371287129,False,critical,html-keyboard-response,81,1157799,subject_32,67d993866d1d7516d87e97de,67dafbe1bb0ae255ffe1b774,0.509360713732427,1,right,-0.1912508523050978,0.650772215,0.7455723000000001,1.0,4.410551093512141e-06,-0.3289540025,-48.031690499999996,7.1859574975000005,-7.362567500000001,6.449227873924668,17.0,11.334399000000001,11.334399000000001,0.9807692307692308,1.0114725324173168,24.0,1593.7834470025,3.0,20.903660997500012,98.308261,24.0,53.8643845943687,55.1191122481936,24.0
9199,j,capitals,5,country,Morrocco,Rabat,Marrakesh,What is the capital of Morrocco?,The capital of Morrocco is,2.02,1.085,0.5371287129,False,critical,html-keyboard-response,25,291904,subject_23,67d993866d1d7516d87e97de,67f5586f366e42610fa784ed,0.5385001664151741,1,right,-0.8468610857844856,0.650772215,0.7455723000000001,1.0,4.410551093512141e-06,-0.3289540025,-48.031690499999996,7.1859574975000005,-7.362567500000001,6.449227873924668,17.0,11.334399000000001,11.334399000000001,0.9807692307692308,1.0114725324173168,24.0,1593.7834470025,3.0,20.903660997500012,98.308261,24.0,53.8643845943687,55.1191122481936,24.0
3162,f,capitals,5,country,Morrocco,Rabat,Marrakesh,What is the capital of Morrocco?,The capital of Morrocco is,2.02,1.085,0.5371287129,False,critical,html-keyboard-response,39,151105,subject_21,67d993866d1d7516d87e97de,67daf6047b0fa6851c20e25f,0.4049075367419206,0,left,-0.4193386074940896,0.650772215,0.7455723000000001,1.0,4.410551093512141e-06,-0.3289540025,-48.031690499999996,7.1859574975000005,-7.362567500000001,6.449227873924668,17.0,11.334399000000001,11.334399000000001,0.9807692307692308,1.0114725324173168,24.0,1593.7834470025,3.0,20.903660997500012,98.308261,24.0,53.8643845943687,55.1191122481936,24.0
1607,f,capitals,5,country,Morrocco,Rabat,Marrakesh,What is the capital of Morrocco?,The capital of Morrocco is,2.02,1.085,0.5371287129,False,critical,html-keyboard-response,21,52092,subject_2,67d993866d1d7516d87e97de,67db038c76da1142dd7558ab,0.014697232112292,0,left,-0.5021925109788251,0.650772215,0.7455723000000001,1.0,4.410551093512141e-06,-0.3289540025,-48.031690499999996,7.1859574975000005,-7.362567500000001,6.449227873924668,17.0,11.334399000000001,11.334399000000001,0.9807692307692308,1.0114725324173168,24.0,1593.7834470025,3.0,20.903660997500012,98.308261,24.0,53.8643845943687,55.1191122481936,24.0
1827,f,capitals,5,country,Morrocco,Rabat,Marrakesh,What is the capital of Morrocco?,The capital of Morrocco is,2.02,1.085,0.5371287129,True,critical,html-keyboard-response,27,106945,subject_36,67d993866d1d7516d87e97de,67f558c441141b94709c0bf0,0.8243781496268796,1,left,-0.606177207513017,0.650772215,0.7455723000000001,1.0,4.410551093512141e-06,-0.3289540025,-48.031690499999996,7.1859574975000005,-7.362567500000001,6.449227873924668,17.0,11.334399000000001,11.334399000000001,0.9807692307692308,1.0114725324173168,24.0,1593.7834470025,3.0,20.903660997500012,98.308261,24.0,53.8643845943687,55.1191122481936,24.0
2016,j,capitals,5,country,Morrocco,Rabat,Marrakesh,What is the capital of Morrocco?,The capital of Morrocco is,2.02,1.085,0.5371287129,True,critical,html-keyboard-response,23,59332,subject_20,67d993866d1d7516d87e97de,67f550e142588c25dbb4316d,0.9282073277313146,0,right,-0.6656272554671991,0.650772215,0.7455723000000001,1.0,4.410551093512141e-06,-0.3289540025,-48.031690499999996,7.1859574975000005,-7.362567500000001,6.449227873924668,17.0,11.334399000000001,11.334399000000001,0.9807692307692308,1.0114725324173168,24.0,1593.7834470025,3.0,20.903660997500012,98.308261,24.0,53.8643845943687,55.1191122481936,24.0
2353,j,capitals,5,country,Morrocco,Rabat,Marrakesh,What is the capital of Morrocco?,The capital of Morrocco is,2.02,1.085,0.5371287129,True,critical,html-keyboard-response,27,149101,subject_8,67d993866d1d7516d87e97de,67dafe9cb85ca12096b1842e,0.2612460665735832,0,right,-0.2006648832566861,0.650772215,0.7455723000000001,1.0,4.410551093512141e-06,-0.3289540025,-48.031690499999996,7.1859574975000005,-7.362567500000001,6.449227873924668,17.0,11.334399000000001,11.334399000000001,0.9807692307692308,1.0114725324173168,24.0,1593.7834470025,3.0,20.903660997500012,98.308261,24.0,53.8643845943687,55.1191122481936,24.0
1673,f,capitals,5,country,Morrocco,Rabat,Marrakesh,What is the capital of Morrocco?,The capital of Morrocco is,2.02,1.085,0.5371287129,False,critical,html-keyboard-response,61,115258,subject_19,67d993866d1d7516d87e97de,67f554a334e6b49976b7f0b8,0.632225210767262,0,left,-0.5010651400453379,0.650772215,0.7455723000000001,1.0,4.410551093512141e-06,-0.3289540025,-48.031690499999996,7.1859574975000005,-7.362567500000001,6.449227873924668,17.0,11.334399000000001,11.334399000000001,0.9807692307692308,1.0114725324173168,24.0,1593.7834470025,3.0,20.903660997500012,98.308261,24.0,53.8643845943687,55.1191122481936,24.0
5587,j,capitals,5,country,Morrocco,Rabat,Marrakesh,What is the capital of Morrocco?,The capital of Morrocco is,2.02,1.085,0.5371287129,False,critical,html-keyboard-response,7,71529,subject_17,67d993866d1d7516d87e97de,67f553041b6b947432e5f48b,0.5891247858355094,1,right,1.938033064389131,0.650772215,0.7455723000000001,1.0,4.410551093512141e-06,-0.3289540025,-48.031690499999996,7.1859574975000005,-7.362567500000001,6.449227873924668,17.0,11.334399000000001,11.334399000000001,0.9807692307692308,1.0114725324173168,24.0,1593.7834470025,3.0,20.903660997500012,98.308261,24.0,53.8643845943687,55.1191122481936,24.0
440,j,capitals,5,country,Morrocco,Rabat,Marrakesh,What is the capital of Morrocco?,The capital of Morrocco is,2.02,1.085,0.5371287129,False,critical,html-keyboard-response,55,816622,subject_35,67d993866d1d7516d87e97de,67f555df14ce3715e6d45f79,0.9096106056143266,1,right,-0.6201059576393636,0.650772215,0.7455723000000001,1.0,4.410551093512141e-06,-0.3289540025,-48.031690499999996,7.1859574975000005,-7.362567500000001,6.449227873924668,17.0,11.334399000000001,11.334399000000001,0.9807692307692308,1.0114725324173168,24.0,1593.7834470025,3.0,20.903660997500012,98.308261,24.0,53.8643845943687,55.1191122481936,24.0
2543,f,capitals,5,country,Morrocco,Rabat,Marrakesh,What is the capital of Morrocco?,The capital of Morrocco is,2.02,1.085,0.5371287129,True,critical,html-keyboard-response,77,132288,subject_26,67d993866d1d7516d87e97de,67f5501c62e6496094cbacbc,0.3203566281066039,1,left,0.5669890317284823,0.650772215,0.7455723000000001,1.0,4.410551093512141e-06,-0.3289540025,-48.031690499999996,7.1859574975000005,-7.362567500000001,6.449227873924668,17.0,11.334399000000001,11.334399000000001,0.9807692307692308,1.0114725324173168,24.0,1593.7834470025,3.0,20.903660997500012,98.308261,24.0,53.8643845943687,55.1191122481936,24.0
1488,j,capitals,5,country,Morrocco,Rabat,Marrakesh,What is the capital of Morrocco?,The capital of Morrocco is,2.02,1.085,0.5371287129,False,critical,html-keyboard-response,59,170707,subject_18,67d993866d1d7516d87e97de,67f5576462b73577d57e1593,0.058820149919702,1,right,0.3230020557575772,0.650772215,0.7455723000000001,1.0,4.410551093512141e-06,-0.3289540025,-48.031690499999996,7.1859574975000005,-7.362567500000001,6.449227873924668,17.0,11.334399000000001,11.334399000000001,0.9807692307692308,1.0114725324173168,24.0,1593.7834470025,3.0,20.903660997500012,98.308261,24.0,53.8643845943687,55.1191122481936,24.0
2021,j,capitals,5,country,Morrocco,Rabat,Marrakesh,What is the capital of Morrocco?,The capital of Morrocco is,2.02,1.085,0.5371287129,False,critical,html-keyboard-response,13,67631,subject_0,67d993866d1d7516d87e97de,67f54eeec3cc2aee0ce248ad,0.8570890864144345,1,right,-0.303599258071987,0.650772215,0.7455723000000001,1.0,4.410551093512141e-06,-0.3289540025,-48.031690499999996,7.1859574975000005,-7.362567500000001,6.449227873924668,17.0,11.334399000000001,11.334399000000001,0.9807692307692308,1.0114725324173168,24.0,1593.7834470025,3.0,20.903660997500012,98.308261,24.0,53.8643845943687,55.1191122481936,24.0
1602,j,capitals,5,country,Morrocco,Rabat,Marrakesh,What is the capital of Morrocco?,The capital of Morrocco is,2.02,1.085,0.5371287129,True,critical,html-keyboard-response,23,76468,subject_27,67d993866d1d7516d87e97de,67f5593dc520aae4ec59b4e4,0.1760584082591159,0,right,-0.2468358551675324,0.650772215,0.7455723000000001,1.0,4.410551093512141e-06,-0.3289540025,-48.031690499999996,7.1859574975000005,-7.362567500000001,6.449227873924668,17.0,11.334399000000001,11.334399000000001,0.9807692307692308,1.0114725324173168,24.0,1593.7834470025,3.0,20.903660997500012,98.308261,24.0,53.8643845943687,55.1191122481936,24.0
1539,f,capitals,5,country,Morrocco,Rabat,Marrakesh,What is the capital of Morrocco?,The capital of Morrocco is,2.02,1.085,0.5371287129,False,critical,html-keyboard-response,85,131609,subject_9,67d993866d1d7516d87e97de,67dafecb026446588f74c678,0.2976404393464391,0,left,-0.5320967418689335,0.650772215,0.7455723000000001,1.0,4.410551093512141e-06,-0.3289540025,-48.031690499999996,7.1859574975000005,-7.362567500000001,6.449227873924668,17.0,11.334399000000001,11.334399000000001,0.9807692307692308,1.0114725324173168,24.0,1593.7834470025,3.0,20.903660997500012,98.308261,24.0,53.8643845943687,55.1191122481936,24.0
990,f,capitals,5,country,Morrocco,Rabat,Marrakesh,What is the capital of Morrocco?,The capital of Morrocco is,2.02,1.085,0.5371287129,False,critical,html-keyboard-response,53,177211,subject_15,67d993866d1d7516d87e97de,67f555766c245a55ae234777,0.8110002018442615,0,left,-0.8833582434857474,0.650772215,0.7455723000000001,1.0,4.410551093512141e-06,-0.3289540025,-48.031690499999996,7.1859574975000005,-7.362567500000001,6.449227873924668,17.0,11.334399000000001,11.334399000000001,0.9807692307692308,1.0114725324173168,24.0,1593.7834470025,3.0,20.903660997500012,98.308261,24.0,53.8643845943687,55.1191122481936,24.0
3102,f,capitals,5,country,Morrocco,Rabat,Marrakesh,What is the capital of Morrocco?,The capital of Morrocco is,2.02,1.085,0.5371287129,True,critical,html-keyboard-response,89,246029,subject_34,67d993866d1d7516d87e97de,67f551b59a7816b01fff6735,0.7979706291650923,1,left,0.0875686058154993,0.650772215,0.7455723000000001,1.0,4.410551093512141e-06,-0.3289540025,-48.031690499999996,7.1859574975000005,-7.362567500000001,6.449227873924668,17.0,11.334399000000001,11.334399000000001,0.9807692307692308,1.0114725324173168,24.0,1593.7834470025,3.0,20.903660997500012,98.308261,24.0,53.8643845943687,55.1191122481936,24.0
3981,f,capitals,5,country,Morrocco,Rabat,Marrakesh,What is the capital of Morrocco?,The capital of Morrocco is,2.02,1.085,0.5371287129,False,critical,html-keyboard-response,89,231047,subject_16,67d993866d1d7516d87e97de,67f5546d9be5bbc21122c85f,0.1976383351831119,0,left,0.798965988129588,0.650772215,0.7455723000000001,1.0,4.410551093512141e-06,-0.3289540025,-48.031690499999996,7.1859574975000005,-7.362567500000001,6.449227873924668,17.0,11.334399000000001,11.334399000000001,0.9807692307692308,1.0114725324173168,24.0,1593.7834470025,3.0,20.903660997500012,98.308261,24.0,53.8643845943687,55.1191122481936,24.0
2088,f,capitals,19,state,Kansas,Topeka,Wichita,What is the capital of Kansas?,The capital of Kansas is,0.125,0.395,3.16,True,critical,html-keyboard-response,17,298928,subject_25,67d993866d1d7516d87e97de,67daffc85579c5693bbb7675,0.2876221160821377,1,left,-1.086474274721276,1.5417025,0.14199140500000001,1.0,3.923461140030325e-06,-0.88806288,-59.973622000000006,3.4139481700000003,-6.983993500000004,8.206558175827833,23.0,14.830999999999996,10.259262499999998,1.0,1.005705143667209,24.0,1792.49774588,1.0,8.798398669999994,134.42506849999998,3.0,59.54578377231947,19.163654538897497,3.0
1696,f,capitals,19,state,Kansas,Topeka,Wichita,What is the capital of Kansas?,The capital of Kansas is,0.125,0.395,3.16,False,critical,html-keyboard-response,9,32403,subject_11,67d993866d1d7516d87e97de,67f556ee7e72bf6aa696a5fc,0.1223368700143241,0,left,-0.2524390849826108,1.5417025,0.14199140500000001,1.0,3.923461140030325e-06,-0.88806288,-59.973622000000006,3.4139481700000003,-6.983993500000004,8.206558175827833,23.0,14.830999999999996,10.259262499999998,1.0,1.005705143667209,24.0,1792.49774588,1.0,8.798398669999994,134.42506849999998,3.0,59.54578377231947,19.163654538897497,3.0
1075,f,capitals,19,state,Kansas,Topeka,Wichita,What is the capital of Kansas?,The capital of Kansas is,0.125,0.395,3.16,True,critical,html-keyboard-response,77,128082,subject_14,67d993866d1d7516d87e97de,67f5520928787542c8c6bebc,0.1851916936155551,1,left,0.1484259622226729,1.5417025,0.14199140500000001,1.0,3.923461140030325e-06,-0.88806288,-59.973622000000006,3.4139481700000003,-6.983993500000004,8.206558175827833,23.0,14.830999999999996,10.259262499999998,1.0,1.005705143667209,24.0,1792.49774588,1.0,8.798398669999994,134.42506849999998,3.0,59.54578377231947,19.163654538897497,3.0
361,f,capitals,19,state,Kansas,Topeka,Wichita,What is the capital of Kansas?,The capital of Kansas is,0.125,0.395,3.16,False,critical,html-keyboard-response,39,161214,subject_38,67d993866d1d7516d87e97de,67f5549f993bf9f3b7aad9cb,0.3027436892120891,0,left,-1.289465968093196,1.5417025,0.14199140500000001,1.0,3.923461140030325e-06,-0.88806288,-59.973622000000006,3.4139481700000003,-6.983993500000004,8.206558175827833,23.0,14.830999999999996,10.259262499999998,1.0,1.005705143667209,24.0,1792.49774588,1.0,8.798398669999994,134.42506849999998,3.0,59.54578377231947,19.163654538897497,3.0
5411,f,capitals,19,state,Kansas,Topeka,Wichita,What is the capital of Kansas?,The capital of Kansas is,0.125,0.395,3.16,True,critical,html-keyboard-response,37,148732,subject_30,67d993866d1d7516d87e97de,67f55379f7cd013df69fe5f4,0.2581160959977725,1,left,-0.1585872436789409,1.5417025,0.14199140500000001,1.0,3.923461140030325e-06,-0.88806288,-59.973622000000006,3.4139481700000003,-6.983993500000004,8.206558175827833,23.0,14.830999999999996,10.259262499999998,1.0,1.005705143667209,24.0,1792.49774588,1.0,8.798398669999994,134.42506849999998,3.0,59.54578377231947,19.163654538897497,3.0
1418,j,capitals,19,state,Kansas,Topeka,Wichita,What is the capital of Kansas?,The capital of Kansas is,0.125,0.395,3.16,True,critical,html-keyboard-response,89,141030,subject_28,67d993866d1d7516d87e97de,67f5594f1e1942f068f623fb,0.1506499290180857,0,right,-0.2688859094915427,1.5417025,0.14199140500000001,1.0,3.923461140030325e-06,-0.88806288,-59.973622000000006,3.4139481700000003,-6.983993500000004,8.206558175827833,23.0,14.830999999999996,10.259262499999998,1.0,1.005705143667209,24.0,1792.49774588,1.0,8.798398669999994,134.42506849999998,3.0,59.54578377231947,19.163654538897497,3.0
1988,f,capitals,19,state,Kansas,Topeka,Wichita,What is the capital of Kansas?,The capital of Kansas is,0.125,0.395,3.16,False,critical,html-keyboard-response,57,469803,subject_24,67d993866d1d7516d87e97de,67dafc88e5fd277b68528422,0.4115900751875853,0,left,-0.5660494599446173,1.5417025,0.14199140500000001,1.0,3.923461140030325e-06,-0.88806288,-59.973622000000006,3.4139481700000003,-6.983993500000004,8.206558175827833,23.0,14.830999999999996,10.259262499999998,1.0,1.005705143667209,24.0,1792.49774588,1.0,8.798398669999994,134.42506849999998,3.0,59.54578377231947,19.163654538897497,3.0
2603,j,capitals,19,state,Kansas,Topeka,Wichita,What is the capital of Kansas?,The capital of Kansas is,0.125,0.395,3.16,True,critical,html-keyboard-response,17,193494,subject_7,67d993866d1d7516d87e97de,67db016e566ddc888e6ce5d4,0.7259458047283218,0,right,-1.1476194193037246,1.5417025,0.14199140500000001,1.0,3.923461140030325e-06,-0.88806288,-59.973622000000006,3.4139481700000003,-6.983993500000004,8.206558175827833,23.0,14.830999999999996,10.259262499999998,1.0,1.005705143667209,24.0,1792.49774588,1.0,8.798398669999994,134.42506849999998,3.0,59.54578377231947,19.163654538897497,3.0
13113,f,capitals,19,state,Kansas,Topeka,Wichita,What is the capital of Kansas?,The capital of Kansas is,0.125,0.395,3.16,True,critical,html-keyboard-response,71,403325,subject_31,67d993866d1d7516d87e97de,67daff042e85e568ce9b462c,0.1309822314454309,1,left,0.7508070492851977,1.5417025,0.14199140500000001,1.0,3.923461140030325e-06,-0.88806288,-59.973622000000006,3.4139481700000003,-6.983993500000004,8.206558175827833,23.0,14.830999999999996,10.259262499999998,1.0,1.005705143667209,24.0,1792.49774588,1.0,8.798398669999994,134.42506849999998,3.0,59.54578377231947,19.163654538897497,3.0
12445,f,capitals,19,state,Kansas,Topeka,Wichita,What is the capital of Kansas?,The capital of Kansas is,0.125,0.395,3.16,True,critical,html-keyboard-response,89,717363,subject_33,67d993866d1d7516d87e97de,67f553f147984fc1e4ce680b,0.8204237476026546,1,left,0.0928653906261858,1.5417025,0.14199140500000001,1.0,3.923461140030325e-06,-0.88806288,-59.973622000000006,3.4139481700000003,-6.983993500000004,8.206558175827833,23.0,14.830999999999996,10.259262499999998,1.0,1.005705143667209,24.0,1792.49774588,1.0,8.798398669999994,134.42506849999998,3.0,59.54578377231947,19.163654538897497,3.0
1153,j,capitals,19,state,Kansas,Topeka,Wichita,What is the capital of Kansas?,The capital of Kansas is,0.125,0.395,3.16,True,critical,html-keyboard-response,53,174950,subject_37,67d993866d1d7516d87e97de,67f5504b8097e457094e6b73,0.3737577148631503,0,right,-0.3527481852609588,1.5417025,0.14199140500000001,1.0,3.923461140030325e-06,-0.88806288,-59.973622000000006,3.4139481700000003,-6.983993500000004,8.206558175827833,23.0,14.830999999999996,10.259262499999998,1.0,1.005705143667209,24.0,1792.49774588,1.0,8.798398669999994,134.42506849999998,3.0,59.54578377231947,19.163654538897497,3.0
383,f,capitals,19,state,Kansas,Topeka,Wichita,What is the capital of Kansas?,The capital of Kansas is,0.125,0.395,3.16,True,critical,html-keyboard-response,83,465301,subject_22,67d993866d1d7516d87e97de,67f551c80905150518bb44d6,0.5022942977992455,1,left,-1.3630842906528802,1.5417025,0.14199140500000001,1.0,3.923461140030325e-06,-0.88806288,-59.973622000000006,3.4139481700000003,-6.983993500000004,8.206558175827833,23.0,14.830999999999996,10.259262499999998,1.0,1.005705143667209,24.0,1792.49774588,1.0,8.798398669999994,134.42506849999998,3.0,59.54578377231947,19.163654538897497,3.0
1373,f,capitals,19,state,Kansas,Topeka,Wichita,What is the capital of Kansas?,The capital of Kansas is,0.125,0.395,3.16,True,critical,html-keyboard-response,65,131890,subject_10,67d993866d1d7516d87e97de,67f55669f837ba443d96a637,0.8740789947351859,1,left,-1.2505466910263008,1.5417025,0.14199140500000001,1.0,3.923461140030325e-06,-0.88806288,-59.973622000000006,3.4139481700000003,-6.983993500000004,8.206558175827833,23.0,14.830999999999996,10.259262499999998,1.0,1.005705143667209,24.0,1792.49774588,1.0,8.798398669999994,134.42506849999998,3.0,59.54578377231947,19.163654538897497,3.0
3639,f,capitals,19,state,Kansas,Topeka,Wichita,What is the capital of Kansas?,The capital of Kansas is,0.125,0.395,3.16,True,critical,html-keyboard-response,15,68626,subject_1,67d993866d1d7516d87e97de,67f55341b5d9f135e79aab13,0.5628683827477375,1,left,1.863290428381868,1.5417025,0.14199140500000001,1.0,3.923461140030325e-06,-0.88806288,-59.973622000000006,3.4139481700000003,-6.983993500000004,8.206558175827833,23.0,14.830999999999996,10.259262499999998,1.0,1.005705143667209,24.0,1792.49774588,1.0,8.798398669999994,134.42506849999998,3.0,59.54578377231947,19.163654538897497,3.0
2909,j,capitals,19,state,Kansas,Topeka,Wichita,What is the capital of Kansas?,The capital of Kansas is,0.125,0.395,3.16,False,critical,html-keyboard-response,23,107186,subject_29,67d993866d1d7516d87e97de,67f55007091bbde6621adf14,0.1861289460922268,1,right,0.5708999246993426,1.5417025,0.14199140500000001,1.0,3.923461140030325e-06,-0.88806288,-59.973622000000006,3.4139481700000003,-6.983993500000004,8.206558175827833,23.0,14.830999999999996,10.259262499999998,1.0,1.005705143667209,24.0,1792.49774588,1.0,8.798398669999994,134.42506849999998,3.0,59.54578377231947,19.163654538897497,3.0
2083,j,capitals,19,state,Kansas,Topeka,Wichita,What is the capital of Kansas?,The capital of Kansas is,0.125,0.395,3.16,True,critical,html-keyboard-response,67,169076,subject_13,67d993866d1d7516d87e97de,67f54edd7f11c2933de057d7,0.1903685215847766,0,right,-0.7191858695985088,1.5417025,0.14199140500000001,1.0,3.923461140030325e-06,-0.88806288,-59.973622000000006,3.4139481700000003,-6.983993500000004,8.206558175827833,23.0,14.830999999999996,10.259262499999998,1.0,1.005705143667209,24.0,1792.49774588,1.0,8.798398669999994,134.42506849999998,3.0,59.54578377231947,19.163654538897497,3.0
25056,j,capitals,19,state,Kansas,Topeka,Wichita,What is the capital of Kansas?,The capital of Kansas is,0.125,0.395,3.16,False,critical,html-keyboard-response,65,582851,subject_39,67d993866d1d7516d87e97de,67f54fd9e85702fe33a171fc,0.9550883523334456,1,right,1.187630869487987,1.5417025,0.14199140500000001,1.0,3.923461140030325e-06,-0.88806288,-59.973622000000006,3.4139481700000003,-6.983993500000004,8.206558175827833,23.0,14.830999999999996,10.259262499999998,1.0,1.005705143667209,24.0,1792.49774588,1.0,8.798398669999994,134.42506849999998,3.0,59.54578377231947,19.163654538897497,3.0
2304,f,capitals,19,state,Kansas,Topeka,Wichita,What is the capital of Kansas?,The capital of Kansas is,0.125,0.395,3.16,False,critical,html-keyboard-response,25,115149,subject_3,67d993866d1d7516d87e97de,67f551c74b27a832a4e249da,0.0300374819571467,0,left,-0.3127131066959774,1.5417025,0.14199140500000001,1.0,3.923461140030325e-06,-0.88806288,-59.973622000000006,3.4139481700000003,-6.983993500000004,8.206558175827833,23.0,14.830999999999996,10.259262499999998,1.0,1.005705143667209,24.0,1792.49774588,1.0,8.798398669999994,134.42506849999998,3.0,59.54578377231947,19.163654538897497,3.0
1758,j,capitals,19,state,Kansas,Topeka,Wichita,What is the capital of Kansas?,The capital of Kansas is,0.125,0.395,3.16,True,critical,html-keyboard-response,19,203856,subject_40,67d993866d1d7516d87e97de,67f557715c897569330c570e,0.0375486109350182,0,right,-0.501837504817773,1.5417025,0.14199140500000001,1.0,3.923461140030325e-06,-0.88806288,-59.973622000000006,3.4139481700000003,-6.983993500000004,8.206558175827833,23.0,14.830999999999996,10.259262499999998,1.0,1.005705143667209,24.0,1792.49774588,1.0,8.798398669999994,134.42506849999998,3.0,59.54578377231947,19.163654538897497,3.0
2217,j,capitals,19,state,Kansas,Topeka,Wichita,What is the capital of Kansas?,The capital of Kansas is,0.125,0.395,3.16,False,critical,html-keyboard-response,53,102129,subject_5,67d993866d1d7516d87e97de,67dafa2c9205c56ffe1e34e9,0.6318016865263707,1,right,-0.2231473285116951,1.5417025,0.14199140500000001,1.0,3.923461140030325e-06,-0.88806288,-59.973622000000006,3.4139481700000003,-6.983993500000004,8.206558175827833,23.0,14.830999999999996,10.259262499999998,1.0,1.005705143667209,24.0,1792.49774588,1.0,8.798398669999994,134.42506849999998,3.0,59.54578377231947,19.163654538897497,3.0
3882,j,capitals,19,state,Kansas,Topeka,Wichita,What is the capital of Kansas?,The capital of Kansas is,0.125,0.395,3.16,True,critical,html-keyboard-response,35,70552,subject_6,67d993866d1d7516d87e97de,67f54f7c3dcd7be72d7f8b07,0.9713996778653378,0,right,2.695958477365476,1.5417025,0.14199140500000001,1.0,3.923461140030325e-06,-0.88806288,-59.973622000000006,3.4139481700000003,-6.983993500000004,8.206558175827833,23.0,14.830999999999996,10.259262499999998,1.0,1.005705143667209,24.0,1792.49774588,1.0,8.798398669999994,134.42506849999998,3.0,59.54578377231947,19.163654538897497,3.0
2432,f,capitals,19,state,Kansas,Topeka,Wichita,What is the capital of Kansas?,The capital of Kansas is,0.125,0.395,3.16,False,critical,html-keyboard-response,81,148556,subject_4,67d993866d1d7516d87e97de,67f556e5f837ba443d96a658,0.8075171345124827,0,left,0.9273675104629734,1.5417025,0.14199140500000001,1.0,3.923461140030325e-06,-0.88806288,-59.973622000000006,3.4139481700000003,-6.983993500000004,8.206558175827833,23.0,14.830999999999996,10.259262499999998,1.0,1.005705143667209,24.0,1792.49774588,1.0,8.798398669999994,134.42506849999998,3.0,59.54578377231947,19.163654538897497,3.0
2192,j,capitals,19,state,Kansas,Topeka,Wichita,What is the capital of Kansas?,The capital of Kansas is,0.125,0.395,3.16,True,critical,html-keyboard-response,85,187263,subject_12,67d993866d1d7516d87e97de,67dafabad67546f6b694a1bd,0.4948754483420534,0,right,-0.4864157287172883,1.5417025,0.14199140500000001,1.0,3.923461140030325e-06,-0.88806288,-59.973622000000006,3.4139481700000003,-6.983993500000004,8.206558175827833,23.0,14.830999999999996,10.259262499999998,1.0,1.005705143667209,24.0,1792.49774588,1.0,8.798398669999994,134.42506849999998,3.0,59.54578377231947,19.163654538897497,3.0
26835,j,capitals,19,state,Kansas,Topeka,Wichita,What is the capital of Kansas?,The capital of Kansas is,0.125,0.395,3.16,False,critical,html-keyboard-response,69,1031821,subject_32,67d993866d1d7516d87e97de,67dafbe1bb0ae255ffe1b774,0.509360713732427,1,right,-0.1031089214650902,1.5417025,0.14199140500000001,1.0,3.923461140030325e-06,-0.88806288,-59.973622000000006,3.4139481700000003,-6.983993500000004,8.206558175827833,23.0,14.830999999999996,10.259262499999998,1.0,1.005705143667209,24.0,1792.49774588,1.0,8.798398669999994,134.42506849999998,3.0,59.54578377231947,19.163654538897497,3.0
32480,f,capitals,19,state,Kansas,Topeka,Wichita,What is the capital of Kansas?,The capital of Kansas is,0.125,0.395,3.16,True,critical,html-keyboard-response,67,784637,subject_23,67d993866d1d7516d87e97de,67f5586f366e42610fa784ed,0.5385001664151741,1,left,0.7995336481424894,1.5417025,0.14199140500000001,1.0,3.923461140030325e-06,-0.88806288,-59.973622000000006,3.4139481700000003,-6.983993500000004,8.206558175827833,23.0,14.830999999999996,10.259262499999998,1.0,1.005705143667209,24.0,1792.49774588,1.0,8.798398669999994,134.42506849999998,3.0,59.54578377231947,19.163654538897497,3.0
2266,f,capitals,19,state,Kansas,Topeka,Wichita,What is the capital of Kansas?,The capital of Kansas is,0.125,0.395,3.16,True,critical,html-keyboard-response,83,261311,subject_21,67d993866d1d7516d87e97de,67daf6047b0fa6851c20e25f,0.4049075367419206,1,left,-0.9564574120283842,1.5417025,0.14199140500000001,1.0,3.923461140030325e-06,-0.88806288,-59.973622000000006,3.4139481700000003,-6.983993500000004,8.206558175827833,23.0,14.830999999999996,10.259262499999998,1.0,1.005705143667209,24.0,1792.49774588,1.0,8.798398669999994,134.42506849999998,3.0,59.54578377231947,19.163654538897497,3.0
1689,j,capitals,19,state,Kansas,Topeka,Wichita,What is the capital of Kansas?,The capital of Kansas is,0.125,0.395,3.16,False,critical,html-keyboard-response,67,117440,subject_2,67d993866d1d7516d87e97de,67db038c76da1142dd7558ab,0.014697232112292,1,right,-0.3929001882103528,1.5417025,0.14199140500000001,1.0,3.923461140030325e-06,-0.88806288,-59.973622000000006,3.4139481700000003,-6.983993500000004,8.206558175827833,23.0,14.830999999999996,10.259262499999998,1.0,1.005705143667209,24.0,1792.49774588,1.0,8.798398669999994,134.42506849999998,3.0,59.54578377231947,19.163654538897497,3.0
2044,f,capitals,19,state,Kansas,Topeka,Wichita,What is the capital of Kansas?,The capital of Kansas is,0.125,0.395,3.16,False,critical,html-keyboard-response,47,138991,subject_36,67d993866d1d7516d87e97de,67f558c441141b94709c0bf0,0.8243781496268796,0,left,-0.2385012412363206,1.5417025,0.14199140500000001,1.0,3.923461140030325e-06,-0.88806288,-59.973622000000006,3.4139481700000003,-6.983993500000004,8.206558175827833,23.0,14.830999999999996,10.259262499999998,1.0,1.005705143667209,24.0,1792.49774588,1.0,8.798398669999994,134.42506849999998,3.0,59.54578377231947,19.163654538897497,3.0
1511,j,capitals,19,state,Kansas,Topeka,Wichita,What is the capital of Kansas?,The capital of Kansas is,0.125,0.395,3.16,False,critical,html-keyboard-response,73,185937,subject_20,67d993866d1d7516d87e97de,67f550e142588c25dbb4316d,0.9282073277313146,1,right,-0.8539947331981801,1.5417025,0.14199140500000001,1.0,3.923461140030325e-06,-0.88806288,-59.973622000000006,3.4139481700000003,-6.983993500000004,8.206558175827833,23.0,14.830999999999996,10.259262499999998,1.0,1.005705143667209,24.0,1792.49774588,1.0,8.798398669999994,134.42506849999998,3.0,59.54578377231947,19.163654538897497,3.0
3599,j,capitals,19,state,Kansas,Topeka,Wichita,What is the capital of Kansas?,The capital of Kansas is,0.125,0.395,3.16,False,critical,html-keyboard-response,59,209136,subject_8,67d993866d1d7516d87e97de,67dafe9cb85ca12096b1842e,0.2612460665735832,1,right,1.1132984138640476,1.5417025,0.14199140500000001,1.0,3.923461140030325e-06,-0.88806288,-59.973622000000006,3.4139481700000003,-6.983993500000004,8.206558175827833,23.0,14.830999999999996,10.259262499999998,1.0,1.005705143667209,24.0,1792.49774588,1.0,8.798398669999994,134.42506849999998,3.0,59.54578377231947,19.163654538897497,3.0
1920,j,capitals,19,state,Kansas,Topeka,Wichita,What is the capital of Kansas?,The capital of Kansas is,0.125,0.395,3.16,True,critical,html-keyboard-response,47,96539,subject_19,67d993866d1d7516d87e97de,67f554a334e6b49976b7f0b8,0.632225210767262,0,right,-0.2861186998670996,1.5417025,0.14199140500000001,1.0,3.923461140030325e-06,-0.88806288,-59.973622000000006,3.4139481700000003,-6.983993500000004,8.206558175827833,23.0,14.830999999999996,10.259262499999998,1.0,1.005705143667209,24.0,1792.49774588,1.0,8.798398669999994,134.42506849999998,3.0,59.54578377231947,19.163654538897497,3.0
2895,j,capitals,19,state,Kansas,Topeka,Wichita,What is the capital of Kansas?,The capital of Kansas is,0.125,0.395,3.16,True,critical,html-keyboard-response,89,218384,subject_17,67d993866d1d7516d87e97de,67f553041b6b947432e5f48b,0.5891247858355094,0,right,0.1663929004855008,1.5417025,0.14199140500000001,1.0,3.923461140030325e-06,-0.88806288,-59.973622000000006,3.4139481700000003,-6.983993500000004,8.206558175827833,23.0,14.830999999999996,10.259262499999998,1.0,1.005705143667209,24.0,1792.49774588,1.0,8.798398669999994,134.42506849999998,3.0,59.54578377231947,19.163654538897497,3.0
243,j,capitals,19,state,Kansas,Topeka,Wichita,What is the capital of Kansas?,The capital of Kansas is,0.125,0.395,3.16,False,critical,html-keyboard-response,37,799724,subject_35,67d993866d1d7516d87e97de,67f555df14ce3715e6d45f79,0.9096106056143266,1,right,-0.7755551697071118,1.5417025,0.14199140500000001,1.0,3.923461140030325e-06,-0.88806288,-59.973622000000006,3.4139481700000003,-6.983993500000004,8.206558175827833,23.0,14.830999999999996,10.259262499999998,1.0,1.005705143667209,24.0,1792.49774588,1.0,8.798398669999994,134.42506849999998,3.0,59.54578377231947,19.163654538897497,3.0
1146,f,capitals,19,state,Kansas,Topeka,Wichita,What is the capital of Kansas?,The capital of Kansas is,0.125,0.395,3.16,True,critical,html-keyboard-response,55,97795,subject_26,67d993866d1d7516d87e97de,67f5501c62e6496094cbacbc,0.3203566281066039,1,left,-1.096719432346181,1.5417025,0.14199140500000001,1.0,3.923461140030325e-06,-0.88806288,-59.973622000000006,3.4139481700000003,-6.983993500000004,8.206558175827833,23.0,14.830999999999996,10.259262499999998,1.0,1.005705143667209,24.0,1792.49774588,1.0,8.798398669999994,134.42506849999998,3.0,59.54578377231947,19.163654538897497,3.0
946,j,capitals,19,state,Kansas,Topeka,Wichita,What is the capital of Kansas?,The capital of Kansas is,0.125,0.395,3.16,False,critical,html-keyboard-response,51,161814,subject_18,67d993866d1d7516d87e97de,67f5576462b73577d57e1593,0.058820149919702,1,right,-0.8478289629152703,1.5417025,0.14199140500000001,1.0,3.923461140030325e-06,-0.88806288,-59.973622000000006,3.4139481700000003,-6.983993500000004,8.206558175827833,23.0,14.830999999999996,10.259262499999998,1.0,1.005705143667209,24.0,1792.49774588,1.0,8.798398669999994,134.42506849999998,3.0,59.54578377231947,19.163654538897497,3.0
2144,f,capitals,19,state,Kansas,Topeka,Wichita,What is the capital of Kansas?,The capital of Kansas is,0.125,0.395,3.16,False,critical,html-keyboard-response,29,92870,subject_0,67d993866d1d7516d87e97de,67f54eeec3cc2aee0ce248ad,0.8570890864144345,0,left,-0.165195289911037,1.5417025,0.14199140500000001,1.0,3.923461140030325e-06,-0.88806288,-59.973622000000006,3.4139481700000003,-6.983993500000004,8.206558175827833,23.0,14.830999999999996,10.259262499999998,1.0,1.005705143667209,24.0,1792.49774588,1.0,8.798398669999994,134.42506849999998,3.0,59.54578377231947,19.163654538897497,3.0
2388,j,capitals,19,state,Kansas,Topeka,Wichita,What is the capital of Kansas?,The capital of Kansas is,0.125,0.395,3.16,False,critical,html-keyboard-response,33,91254,subject_27,67d993866d1d7516d87e97de,67f5593dc520aae4ec59b4e4,0.1760584082591159,1,right,0.7494406151577621,1.5417025,0.14199140500000001,1.0,3.923461140030325e-06,-0.88806288,-59.973622000000006,3.4139481700000003,-6.983993500000004,8.206558175827833,23.0,14.830999999999996,10.259262499999998,1.0,1.005705143667209,24.0,1792.49774588,1.0,8.798398669999994,134.42506849999998,3.0,59.54578377231947,19.163654538897497,3.0
1787,f,capitals,19,state,Kansas,Topeka,Wichita,What is the capital of Kansas?,The capital of Kansas is,0.125,0.395,3.16,False,critical,html-keyboard-response,15,34897,subject_9,67d993866d1d7516d87e97de,67dafecb026446588f74c678,0.2976404393464391,0,left,0.1240320213969371,1.5417025,0.14199140500000001,1.0,3.923461140030325e-06,-0.88806288,-59.973622000000006,3.4139481700000003,-6.983993500000004,8.206558175827833,23.0,14.830999999999996,10.259262499999998,1.0,1.005705143667209,24.0,1792.49774588,1.0,8.798398669999994,134.42506849999998,3.0,59.54578377231947,19.163654538897497,3.0
2193,f,capitals,19,state,Kansas,Topeka,Wichita,What is the capital of Kansas?,The capital of Kansas is,0.125,0.395,3.16,True,critical,html-keyboard-response,49,172811,subject_15,67d993866d1d7516d87e97de,67f555766c245a55ae234777,0.8110002018442615,1,left,2.0000682446827955,1.5417025,0.14199140500000001,1.0,3.923461140030325e-06,-0.88806288,-59.973622000000006,3.4139481700000003,-6.983993500000004,8.206558175827833,23.0,14.830999999999996,10.259262499999998,1.0,1.005705143667209,24.0,1792.49774588,1.0,8.798398669999994,134.42506849999998,3.0,59.54578377231947,19.163654538897497,3.0
3252,f,capitals,19,state,Kansas,Topeka,Wichita,What is the capital of Kansas?,The capital of Kansas is,0.125,0.395,3.16,False,critical,html-keyboard-response,51,167332,subject_34,67d993866d1d7516d87e97de,67f551b59a7816b01fff6735,0.7979706291650923,0,left,0.2478016051293671,1.5417025,0.14199140500000001,1.0,3.923461140030325e-06,-0.88806288,-59.973622000000006,3.4139481700000003,-6.983993500000004,8.206558175827833,23.0,14.830999999999996,10.259262499999998,1.0,1.005705143667209,24.0,1792.49774588,1.0,8.798398669999994,134.42506849999998,3.0,59.54578377231947,19.163654538897497,3.0
3370,f,capitals,19,state,Kansas,Topeka,Wichita,What is the capital of Kansas?,The capital of Kansas is,0.125,0.395,3.16,False,critical,html-keyboard-response,11,74965,subject_16,67d993866d1d7516d87e97de,67f5546d9be5bbc21122c85f,0.1976383351831119,0,left,0.2731385058926807,1.5417025,0.14199140500000001,1.0,3.923461140030325e-06,-0.88806288,-59.973622000000006,3.4139481700000003,-6.983993500000004,8.206558175827833,23.0,14.830999999999996,10.259262499999998,1.0,1.005705143667209,24.0,1792.49774588,1.0,8.798398669999994,134.42506849999998,3.0,59.54578377231947,19.163654538897497,3.0
2077,j,capitals,14,state,California,Sacramento,Los Angeles,What is the capital of California?,The capital of California is,0.527,3.8,7.210626186,False,critical,html-keyboard-response,19,302009,subject_25,67d993866d1d7516d87e97de,67daffc85579c5693bbb7675,0.2876221160821377,1,right,-1.0886595497354086,0.12516312975,0.1306291275,1.0,5.058594111977552e-06,-0.02370530245,-47.9009435,14.276374697549999,-6.175383500000002,3.7222687915887205,13.0,21.73246499999999,8.337418,0.9230769230769231,1.187491625500992,24.0,1442.89567530245,0.0,38.81987669755,106.62857,0.0,156.49461386250942,76.31261118917422,21.0
1164,j,capitals,14,state,California,Sacramento,Los Angeles,What is the capital of California?,The capital of California is,0.527,3.8,7.210626186,False,critical,html-keyboard-response,47,86325,subject_11,67d993866d1d7516d87e97de,67f556ee7e72bf6aa696a5fc,0.1223368700143241,1,right,-1.0135373058504364,0.12516312975,0.1306291275,1.0,5.058594111977552e-06,-0.02370530245,-47.9009435,14.276374697549999,-6.175383500000002,3.7222687915887205,13.0,21.73246499999999,8.337418,0.9230769230769231,1.187491625500992,24.0,1442.89567530245,0.0,38.81987669755,106.62857,0.0,156.49461386250942,76.31261118917422,21.0
