subject_id,session,trial,rt,object_response,category,condition,item_id,response_correct,rt_zscore,output_entropy,output_rank_correct,output_logprob_correct,midpoint_entropy,midpoint_rank_correct,midpoint_logprob_correct,auc_entropy,layer_biggest_change_entropy,auc_rank_correct,layer_biggest_change_rank_correct,auc_logprob_correct,layer_biggest_change_logprob_correct
subject-01,1,1,0.586625099182129,boat,boat,0,0_boat_00_boat-0068-sketch-23.png,True,-0.7378590591454031,1.4075976610183716,0.0714285714285714,-6.142563155688165,1.6675019264221191,0.25,-2.979049380274697,25.257563591003418,10.0,1.5498015873015871,1.0,38.24276473703667,6.0
subject-05,1,285,0.679347991943359,boat,boat,0,0_boat_00_boat-0068-sketch-23.png,True,-0.5855366050133725,1.4075976610183716,0.0714285714285714,-6.142563155688165,1.6675019264221191,0.25,-2.979049380274697,25.257563591003418,10.0,1.5498015873015871,1.0,38.24276473703667,6.0
subject-02,1,123,0.73372483253479,boat,boat,0,0_boat_00_boat-0068-sketch-23.png,True,0.03794408914826676,1.4075976610183716,0.0714285714285714,-6.142563155688165,1.6675019264221191,0.25,-2.979049380274697,25.257563591003418,10.0,1.5498015873015871,1.0,38.24276473703667,6.0
subject-06,1,710,0.640969038009644,boat,boat,0,0_boat_00_boat-0068-sketch-23.png,True,-0.7362931173489334,1.4075976610183716,0.0714285714285714,-6.142563155688165,1.6675019264221191,0.25,-2.979049380274697,25.257563591003418,10.0,1.5498015873015871,1.0,38.24276473703667,6.0
subject-07,1,661,0.560901165008545,boat,boat,0,0_boat_00_boat-0068-sketch-23.png,True,-0.9614210148136239,1.4075976610183716,0.0714285714285714,-6.142563155688165,1.6675019264221191,0.25,-2.979049380274697,25.257563591003418,10.0,1.5498015873015871,1.0,38.24276473703667,6.0
subject-03,1,111,0.996337890625,knife,boat,0,0_boat_00_boat-0068-sketch-23.png,False,0.40492194521604674,1.4075976610183716,0.0714285714285714,-6.142563155688165,1.6675019264221191,0.25,-2.979049380274697,25.257563591003418,10.0,1.5498015873015871,1.0,38.24276473703667,6.0
subject-04,1,687,0.667598009109497,boat,boat,0,0_boat_00_boat-0068-sketch-23.png,True,-0.7167136175370573,1.4075976610183716,0.0714285714285714,-6.142563155688165,1.6675019264221191,0.25,-2.979049380274697,25.257563591003418,10.0,1.5498015873015871,1.0,38.24276473703667,6.0
subject-01,1,2,0.706346035003662,dog,dog,0,0_dog_00_dog-4581-sketch-16.png,True,-0.07864015076348684,2.203108787536621,0.2,-2.6275609617805507,1.4799946546554563,0.0769230769230769,-5.436533567156819,26.795806765556335,4.0,0.9615190365190365,9.0,41.50565232578234,6.0
subject-05,1,551,0.809551000595093,dog,dog,0,0_dog_00_dog-4581-sketch-16.png,True,-0.05623898778479509,2.203108787536621,0.2,-2.6275609617805507,1.4799946546554563,0.0769230769230769,-5.436533567156819,26.795806765556335,4.0,0.9615190365190365,9.0,41.50565232578234,6.0
subject-02,1,161,0.805687189102173,dog,dog,0,0_dog_00_dog-4581-sketch-16.png,True,0.4876253136449977,2.203108787536621,0.2,-2.6275609617805507,1.4799946546554563,0.0769230769230769,-5.436533567156819,26.795806765556335,4.0,0.9615190365190365,9.0,41.50565232578234,6.0
subject-06,1,535,1.38627791404724,dog,dog,0,0_dog_00_dog-4581-sketch-16.png,True,2.6987484292928037,2.203108787536621,0.2,-2.6275609617805507,1.4799946546554563,0.0769230769230769,-5.436533567156819,26.795806765556335,4.0,0.9615190365190365,9.0,41.50565232578234,6.0
subject-07,1,691,0.94520115852356,dog,dog,0,0_dog_00_dog-4581-sketch-16.png,True,0.7570242582380405,2.203108787536621,0.2,-2.6275609617805507,1.4799946546554563,0.0769230769230769,-5.436533567156819,26.795806765556335,4.0,0.9615190365190365,9.0,41.50565232578234,6.0
subject-03,1,217,1.28585004806519,dog,dog,0,0_dog_00_dog-4581-sketch-16.png,True,2.095507391474989,2.203108787536621,0.2,-2.6275609617805507,1.4799946546554563,0.0769230769230769,-5.436533567156819,26.795806765556335,4.0,0.9615190365190365,9.0,41.50565232578234,6.0
subject-04,1,555,0.868303060531616,dog,dog,0,0_dog_00_dog-4581-sketch-16.png,True,0.47337683841320416,2.203108787536621,0.2,-2.6275609617805507,1.4799946546554563,0.0769230769230769,-5.436533567156819,26.795806765556335,4.0,0.9615190365190365,9.0,41.50565232578234,6.0
subject-01,1,3,0.716404914855957,airplane,airplane,0,0_airplane_00_airplane-0018-sketch-24.png,True,-0.02325298100681565,1.9659833908081057,0.5,-1.2599732867298696,1.5850489139556885,0.3333333333333333,-2.287726458856156,26.327983379364014,4.0,5.699999999999999,9.0,23.940970608357414,9.0
subject-05,1,318,1.37930202484131,airplane,airplane,0,0_airplane_00_airplane-0018-sketch-24.png,True,2.25989688856577,1.9659833908081057,0.5,-1.2599732867298696,1.5850489139556885,0.3333333333333333,-2.287726458856156,26.327983379364014,4.0,5.699999999999999,9.0,23.940970608357414,9.0
subject-02,1,654,0.693873882293701,airplane,airplane,0,0_airplane_00_airplane-0018-sketch-24.png,True,-0.21107810740794794,1.9659833908081057,0.5,-1.2599732867298696,1.5850489139556885,0.3333333333333333,-2.287726458856156,26.327983379364014,4.0,5.699999999999999,9.0,23.940970608357414,9.0
subject-06,1,432,0.60974907875061,airplane,airplane,0,0_airplane_00_airplane-0018-sketch-24.png,True,-0.8801822626243674,1.9659833908081057,0.5,-1.2599732867298696,1.5850489139556885,0.3333333333333333,-2.287726458856156,26.327983379364014,4.0,5.699999999999999,9.0,23.940970608357414,9.0
subject-07,1,685,0.496639013290405,airplane,airplane,0,0_airplane_00_airplane-0018-sketch-24.png,True,-1.248777227979555,1.9659833908081057,0.5,-1.2599732867298696,1.5850489139556885,0.3333333333333333,-2.287726458856156,26.327983379364014,4.0,5.699999999999999,9.0,23.940970608357414,9.0
subject-03,1,702,1.08056807518005,airplane,airplane,0,0_airplane_00_airplane-0018-sketch-24.png,True,0.8967780572478535,1.9659833908081057,0.5,-1.2599732867298696,1.5850489139556885,0.3333333333333333,-2.287726458856156,26.327983379364014,4.0,5.699999999999999,9.0,23.940970608357414,9.0
subject-04,1,680,0.790961980819702,airplane,airplane,0,0_airplane_00_airplane-0018-sketch-24.png,True,0.014779109228728543,1.9659833908081057,0.5,-1.2599732867298696,1.5850489139556885,0.3333333333333333,-2.287726458856156,26.327983379364014,4.0,5.699999999999999,9.0,23.940970608357414,9.0
subject-01,1,4,1.1105329990387,bird,cat,0,0_cat_00_cat-0251-sketch-6.png,False,2.146932906989503,1.8129873275756836,0.1,-4.023326053313989,1.55731201171875,0.2,-4.113691833256331,24.992536187171936,10.0,2.0428571428571427,9.0,40.61395990091675,6.0
subject-05,1,97,0.991420030593872,cat,cat,0,0_cat_00_cat-0251-sketch-6.png,True,0.683089889656966,1.8129873275756836,0.1,-4.023326053313989,1.55731201171875,0.2,-4.113691833256331,24.992536187171936,10.0,2.0428571428571427,9.0,40.61395990091675,6.0
subject-02,1,250,0.769126176834106,cat,cat,0,0_cat_00_cat-0251-sketch-6.png,True,0.2591614118250262,1.8129873275756836,0.1,-4.023326053313989,1.55731201171875,0.2,-4.113691833256331,24.992536187171936,10.0,2.0428571428571427,9.0,40.61395990091675,6.0
subject-06,1,11,1.11223793029785,cat,cat,0,0_cat_00_cat-0251-sketch-6.png,True,1.4357301560840234,1.8129873275756836,0.1,-4.023326053313989,1.55731201171875,0.2,-4.113691833256331,24.992536187171936,10.0,2.0428571428571427,9.0,40.61395990091675,6.0
subject-07,1,464,0.781142950057983,cat,cat,0,0_cat_00_cat-0251-sketch-6.png,True,0.02341755097698424,1.8129873275756836,0.1,-4.023326053313989,1.55731201171875,0.2,-4.113691833256331,24.992536187171936,10.0,2.0428571428571427,9.0,40.61395990091675,6.0
subject-03,1,736,1.09615111351013,bird,cat,0,0_cat_00_cat-0251-sketch-6.png,False,0.9877740901684094,1.8129873275756836,0.1,-4.023326053313989,1.55731201171875,0.2,-4.113691833256331,24.992536187171936,10.0,2.0428571428571427,9.0,40.61395990091675,6.0
subject-04,1,250,0.93303918838501,bird,cat,0,0_cat_00_cat-0251-sketch-6.png,False,0.8572328867169768,1.8129873275756836,0.1,-4.023326053313989,1.55731201171875,0.2,-4.113691833256331,24.992536187171936,10.0,2.0428571428571427,9.0,40.61395990091675,6.0
subject-01,1,5,0.87578010559082,keyboard,keyboard,0,0_keyboard_00_keyboard-0002-sketch-1.png,True,0.8543139920413471,0.0186470560729503,1.0,-0.002303270571378715,1.654868483543396,0.1,-4.772435920354744,24.102497320622206,10.0,3.14047619047619,9.0,38.748605171224796,6.0
subject-05,1,766,0.489195108413696,keyboard,keyboard,0,0_keyboard_00_keyboard-0002-sketch-1.png,True,-1.358540771381025,0.0186470560729503,1.0,-0.002303270571378715,1.654868483543396,0.1,-4.772435920354744,24.102497320622206,10.0,3.14047619047619,9.0,38.748605171224796,6.0
subject-02,1,390,0.722136974334717,keyboard,keyboard,0,0_keyboard_00_keyboard-0002-sketch-1.png,True,-0.034466578223695664,0.0186470560729503,1.0,-0.002303270571378715,1.654868483543396,0.1,-4.772435920354744,24.102497320622206,10.0,3.14047619047619,9.0,38.748605171224796,6.0
subject-06,1,589,0.516081094741821,keyboard,keyboard,0,0_keyboard_00_keyboard-0002-sketch-1.png,True,-1.3118870591255887,0.0186470560729503,1.0,-0.002303270571378715,1.654868483543396,0.1,-4.772435920354744,24.102497320622206,10.0,3.14047619047619,9.0,38.748605171224796,6.0
subject-07,1,81,1.07991504669189,keyboard,keyboard,0,0_keyboard_00_keyboard-0002-sketch-1.png,True,1.3594141834104763,0.0186470560729503,1.0,-0.002303270571378715,1.654868483543396,0.1,-4.772435920354744,24.102497320622206,10.0,3.14047619047619,9.0,38.748605171224796,6.0
subject-03,1,137,0.701507091522217,keyboard,keyboard,0,0_keyboard_00_keyboard-0002-sketch-1.png,True,-1.316721326966851,0.0186470560729503,1.0,-0.002303270571378715,1.654868483543396,0.1,-4.772435920354744,24.102497320622206,10.0,3.14047619047619,9.0,38.748605171224796,6.0
subject-04,1,96,0.645277976989746,keyboard,keyboard,0,0_keyboard_00_keyboard-0002-sketch-1.png,True,-0.8490613437851249,0.0186470560729503,1.0,-0.002303270571378715,1.654868483543396,0.1,-4.772435920354744,24.102497320622206,10.0,3.14047619047619,9.0,38.748605171224796,6.0
subject-01,1,6,0.659713983535767,elephant,elephant,0,0_elephant_00_elephant-0021-sketch-27.png,True,-0.3354100285908703,1.6811730861663818,0.1428571428571428,-3.7467524392867935,1.5510847568511963,0.0909090909090909,-4.754901932290038,25.523276805877686,10.0,0.5711760461760458,2.0,44.23856790795157,6.0
subject-05,1,43,0.817649126052856,elephant,elephant,0,0_elephant_00_elephant-0021-sketch-27.png,True,-0.023318715410160066,1.6811730861663818,0.1428571428571428,-3.7467524392867935,1.5510847568511963,0.0909090909090909,-4.754901932290038,25.523276805877686,10.0,0.5711760461760458,2.0,44.23856790795157,6.0
subject-02,1,429,0.730826139450073,elephant,elephant,0,0_elephant_00_elephant-0021-sketch-27.png,True,0.019830620969174862,1.6811730861663818,0.1428571428571428,-3.7467524392867935,1.5510847568511963,0.0909090909090909,-4.754901932290038,25.523276805877686,10.0,0.5711760461760458,2.0,44.23856790795157,6.0
subject-06,1,295,0.666460037231445,elephant,elephant,0,0_elephant_00_elephant-0021-sketch-27.png,True,-0.6188080796584906,1.6811730861663818,0.1428571428571428,-3.7467524392867935,1.5510847568511963,0.0909090909090909,-4.754901932290038,25.523276805877686,10.0,0.5711760461760458,2.0,44.23856790795157,6.0
subject-07,1,278,0.830434083938599,elephant,elephant,0,0_elephant_00_elephant-0021-sketch-27.png,True,0.24382899372969366,1.6811730861663818,0.1428571428571428,-3.7467524392867935,1.5510847568511963,0.0909090909090909,-4.754901932290038,25.523276805877686,10.0,0.5711760461760458,2.0,44.23856790795157,6.0
subject-03,1,9,0.883802175521851,elephant,elephant,0,0_elephant_00_elephant-0021-sketch-27.png,True,-0.2522222791228918,1.6811730861663818,0.1428571428571428,-3.7467524392867935,1.5510847568511963,0.0909090909090909,-4.754901932290038,25.523276805877686,10.0,0.5711760461760458,2.0,44.23856790795157,6.0
subject-04,1,174,0.947211027145386,elephant,elephant,0,0_elephant_00_elephant-0021-sketch-27.png,True,0.9412655004079878,1.6811730861663818,0.1428571428571428,-3.7467524392867935,1.5510847568511963,0.0909090909090909,-4.754901932290038,25.523276805877686,10.0,0.5711760461760458,2.0,44.23856790795157,6.0
subject-01,1,7,0.771556854248047,oven,oven,0,0_oven_00_oven-0004-sketch-11.png,True,0.28042992150070006,1.7654573917388916,0.1666666666666666,-3.627343829257395,1.747495412826538,0.0625,-7.049123883525485,25.862961053848267,10.0,0.29027777777777775,10.0,59.295105523409106,6.0
subject-05,1,677,0.657850980758667,oven,oven,0,0_oven_00_oven-0004-sketch-11.png,True,-0.6729256516676493,1.7654573917388916,0.1666666666666666,-3.627343829257395,1.747495412826538,0.0625,-7.049123883525485,25.862961053848267,10.0,0.29027777777777775,10.0,59.295105523409106,6.0
subject-02,1,480,0.557241916656494,oven,oven,0,0_oven_00_oven-0004-sketch-11.png,True,-1.0648693469375141,1.7654573917388916,0.1666666666666666,-3.627343829257395,1.747495412826538,0.0625,-7.049123883525485,25.862961053848267,10.0,0.29027777777777775,10.0,59.295105523409106,6.0
subject-06,1,36,0.567521810531616,oven,oven,0,0_oven_00_oven-0004-sketch-11.png,True,-1.0748028090810176,1.7654573917388916,0.1666666666666666,-3.627343829257395,1.747495412826538,0.0625,-7.049123883525485,25.862961053848267,10.0,0.29027777777777775,10.0,59.295105523409106,6.0
subject-07,1,109,0.612776041030884,oven,oven,0,0_oven_00_oven-0004-sketch-11.png,True,-0.7294560473532572,1.7654573917388916,0.1666666666666666,-3.627343829257395,1.747495412826538,0.0625,-7.049123883525485,25.862961053848267,10.0,0.29027777777777775,10.0,59.295105523409106,6.0
subject-03,1,537,0.702308893203735,oven,oven,0,0_oven_00_oven-0004-sketch-11.png,True,-1.3120392636450704,1.7654573917388916,0.1666666666666666,-3.627343829257395,1.747495412826538,0.0625,-7.049123883525485,25.862961053848267,10.0,0.29027777777777775,10.0,59.295105523409106,6.0
subject-04,1,649,0.618754863739014,oven,oven,0,0_oven_00_oven-0004-sketch-11.png,True,-1.006331445948111,1.7654573917388916,0.1666666666666666,-3.627343829257395,1.747495412826538,0.0625,-7.049123883525485,25.862961053848267,10.0,0.29027777777777775,10.0,59.295105523409106,6.0
subject-01,1,8,0.609380960464478,oven,oven,0,0_oven_00_oven-0002-sketch-1.png,True,-0.6125585515031775,1.5637606382369995,0.0833333333333333,-5.8616594990831326,1.7637598514556885,0.0625,-6.817749057974187,27.115930199623108,10.0,0.029166666666666494,10.0,62.64915567904262,6.0
subject-05,1,719,1.0239679813385,oven,oven,0,0_oven_00_oven-0002-sketch-1.png,True,0.8154029057170242,1.5637606382369995,0.0833333333333333,-5.8616594990831326,1.7637598514556885,0.0625,-6.817749057974187,27.115930199623108,10.0,0.029166666666666494,10.0,62.64915567904262,6.0
subject-02,1,741,0.733748912811279,oven,oven,0,0_oven_00_oven-0002-sketch-1.png,True,0.03809456293392746,1.5637606382369995,0.0833333333333333,-5.8616594990831326,1.7637598514556885,0.0625,-6.817749057974187,27.115930199623108,10.0,0.029166666666666494,10.0,62.64915567904262,6.0
subject-06,1,524,0.974024057388306,bird,oven,0,0_oven_00_oven-0002-sketch-1.png,False,0.7987185612528418,1.5637606382369995,0.0833333333333333,-5.8616594990831326,1.7637598514556885,0.0625,-6.817749057974187,27.115930199623108,10.0,0.029166666666666494,10.0,62.64915567904262,6.0
subject-07,1,474,0.58749794960022,oven,oven,0,0_oven_00_oven-0002-sketch-1.png,True,-0.8424901807485659,1.5637606382369995,0.0833333333333333,-5.8616594990831326,1.7637598514556885,0.0625,-6.817749057974187,27.115930199623108,10.0,0.029166666666666494,10.0,62.64915567904262,6.0
subject-03,1,507,1.12980318069458,bird,oven,0,0_oven_00_oven-0002-sketch-1.png,False,1.1842829190949202,1.5637606382369995,0.0833333333333333,-5.8616594990831326,1.7637598514556885,0.0625,-6.817749057974187,27.115930199623108,10.0,0.029166666666666494,10.0,62.64915567904262,6.0
subject-04,1,360,1.02875518798828,oven,oven,0,0_oven_00_oven-0002-sketch-1.png,True,1.4247856055073762,1.5637606382369995,0.0833333333333333,-5.8616594990831326,1.7637598514556885,0.0625,-6.817749057974187,27.115930199623108,10.0,0.029166666666666494,10.0,62.64915567904262,6.0
subject-01,1,9,0.720973968505859,knife,knife,0,0_knife_00_knife-0044-sketch-48.png,True,0.0019055807665135124,0.0012705863919109,1.0,-0.00010729411640344288,1.7436854839324951,0.2,-3.548493847764286,23.761011177441105,10.0,4.278643578643578,8.0,31.226939380955738,10.0
subject-05,1,601,1.4022741317749,knife,knife,0,0_knife_00_knife-0044-sketch-48.png,True,2.353282453066759,0.0012705863919109,1.0,-0.00010729411640344288,1.7436854839324951,0.2,-3.548493847764286,23.761011177441105,10.0,4.278643578643578,8.0,31.226939380955738,10.0
subject-02,1,646,0.705613851547241,knife,knife,0,0_knife_00_knife-0044-sketch-48.png,True,-0.13771692245922318,0.0012705863919109,1.0,-0.00010729411640344288,1.7436854839324951,0.2,-3.548493847764286,23.761011177441105,10.0,4.278643578643578,8.0,31.226939380955738,10.0
subject-06,1,118,0.512141942977905,knife,knife,0,0_knife_00_knife-0044-sketch-48.png,True,-1.3300421494547365,0.0012705863919109,1.0,-0.00010729411640344288,1.7436854839324951,0.2,-3.548493847764286,23.761011177441105,10.0,4.278643578643578,8.0,31.226939380955738,10.0
subject-07,1,456,1.04271602630615,knife,knife,0,0_knife_00_knife-0044-sketch-48.png,True,1.193074131829054,0.0012705863919109,1.0,-0.00010729411640344288,1.7436854839324951,0.2,-3.548493847764286,23.761011177441105,10.0,4.278643578643578,8.0,31.226939380955738,10.0
subject-03,1,792,0.954322099685669,knife,knife,0,0_knife_00_knife-0044-sketch-48.png,True,0.1595737522312126,0.0012705863919109,1.0,-0.00010729411640344288,1.7436854839324951,0.2,-3.548493847764286,23.761011177441105,10.0,4.278643578643578,8.0,31.226939380955738,10.0
subject-04,1,430,0.915933847427368,knife,knife,0,0_knife_00_knife-0044-sketch-48.png,True,0.7558059277280347,0.0012705863919109,1.0,-0.00010729411640344288,1.7436854839324951,0.2,-3.548493847764286,23.761011177441105,10.0,4.278643578643578,8.0,31.226939380955738,10.0
subject-01,1,10,1.30277895927429,keyboard,keyboard,0,0_keyboard_00_keyboard-0052-sketch-0.png,True,3.2054960662038408,1.675382137298584,0.25,-2.2551610520066707,1.8804631233215332,0.2,-3.7929902554767914,26.465619325637817,10.0,1.5385281385281384,6.0,39.55931390365248,6.0
subject-05,1,50,0.660315036773682,keyboard,keyboard,0,0_keyboard_00_keyboard-0052-sketch-0.png,True,-0.6629088402976933,1.675382137298584,0.25,-2.2551610520066707,1.8804631233215332,0.2,-3.7929902554767914,26.465619325637817,10.0,1.5385281385281384,6.0,39.55931390365248,6.0
subject-02,1,711,0.695308923721313,keyboard,keyboard,0,0_keyboard_00_keyboard-0052-sketch-0.png,True,-0.20211076368612454,1.675382137298584,0.25,-2.2551610520066707,1.8804631233215332,0.2,-3.7929902554767914,26.465619325637817,10.0,1.5385281385281384,6.0,39.55931390365248,6.0
subject-06,1,402,0.629381895065308,keyboard,keyboard,0,0_keyboard_00_keyboard-0052-sketch-0.png,True,-0.789696905631019,1.675382137298584,0.25,-2.2551610520066707,1.8804631233215332,0.2,-3.7929902554767914,26.465619325637817,10.0,1.5385281385281384,6.0,39.55931390365248,6.0
subject-07,1,653,0.50055193901062,keyboard,keyboard,0,0_keyboard_00_keyboard-0052-sketch-0.png,True,-1.2312800933941415,1.675382137298584,0.25,-2.2551610520066707,1.8804631233215332,0.2,-3.7929902554767914,26.465619325637817,10.0,1.5385281385281384,6.0,39.55931390365248,6.0
subject-03,1,567,0.778656005859375,keyboard,keyboard,0,0_keyboard_00_keyboard-0052-sketch-0.png,True,-0.8662157836892016,1.675382137298584,0.25,-2.2551610520066707,1.8804631233215332,0.2,-3.7929902554767914,26.465619325637817,10.0,1.5385281385281384,6.0,39.55931390365248,6.0
subject-04,1,352,0.722194910049438,keyboard,keyboard,0,0_keyboard_00_keyboard-0052-sketch-0.png,True,-0.3929786129983274,1.675382137298584,0.25,-2.2551610520066707,1.8804631233215332,0.2,-3.7929902554767914,26.465619325637817,10.0,1.5385281385281384,6.0,39.55931390365248,6.0
subject-01,1,11,0.46082592010498,oven,oven,0,0_oven_00_oven-0015-sketch-21.png,True,-1.430546573969053,1.9995033740997312,0.2,-2.5135668336864114,1.756471872329712,0.0625,-7.288572519508534,25.8226158618927,10.0,0.3069444444444444,10.0,59.47412912673178,6.0
subject-05,1,770,0.6964271068573,oven,oven,0,0_oven_00_oven-0015-sketch-21.png,True,-0.5161070663112218,1.9995033740997312,0.2,-2.5135668336864114,1.756471872329712,0.0625,-7.288572519508534,25.8226158618927,10.0,0.3069444444444444,10.0,59.47412912673178,6.0
subject-02,1,721,0.57923698425293,oven,oven,0,0_oven_00_oven-0015-sketch-21.png,True,-0.9274256972094461,1.9995033740997312,0.2,-2.5135668336864114,1.756471872329712,0.0625,-7.288572519508534,25.8226158618927,10.0,0.3069444444444444,10.0,59.47412912673178,6.0
subject-06,1,27,1.46922898292542,bird,oven,0,0_oven_00_oven-0015-sketch-21.png,False,3.0810602158500253,1.9995033740997312,0.2,-2.5135668336864114,1.756471872329712,0.0625,-7.288572519508534,25.8226158618927,10.0,0.3069444444444444,10.0,59.47412912673178,6.0
subject-07,1,705,0.616919994354248,oven,oven,0,0_oven_00_oven-0015-sketch-21.png,True,-0.7109258440733983,1.9995033740997312,0.2,-2.5135668336864114,1.756471872329712,0.0625,-7.288572519508534,25.8226158618927,10.0,0.3069444444444444,10.0,59.47412912673178,6.0
subject-03,1,314,0.721734046936035,oven,oven,0,0_oven_00_oven-0015-sketch-21.png,True,-1.198607473831707,1.9995033740997312,0.2,-2.5135668336864114,1.756471872329712,0.0625,-7.288572519508534,25.8226158618927,10.0,0.3069444444444444,10.0,59.47412912673178,6.0
subject-04,1,420,0.602109909057617,oven,oven,0,0_oven_00_oven-0015-sketch-21.png,True,-1.1050285219095592,1.9995033740997312,0.2,-2.5135668336864114,1.756471872329712,0.0625,-7.288572519508534,25.8226158618927,10.0,0.3069444444444444,10.0,59.47412912673178,6.0
subject-01,1,12,0.752594947814941,bicycle,bicycle,0,0_bicycle_00_bicycle-0039-sketch-43.png,True,0.17602005221680217,1.617443561553955,1.0,-0.6824226526219337,2.056938648223877,0.125,-3.4759944455034293,27.40115523338318,10.0,1.8718253968253966,10.0,33.865553162273564,10.0
subject-05,1,328,0.539266109466553,bicycle,bicycle,0,0_bicycle_00_bicycle-0039-sketch-43.png,True,-1.1549935429109413,1.617443561553955,1.0,-0.6824226526219337,2.056938648223877,0.125,-3.4759944455034293,27.40115523338318,10.0,1.8718253968253966,10.0,33.865553162273564,10.0
subject-02,1,71,0.897284030914307,bicycle,bicycle,0,0_bicycle_00_bicycle-0039-sketch-43.png,True,1.0599992873564557,1.617443561553955,1.0,-0.6824226526219337,2.056938648223877,0.125,-3.4759944455034293,27.40115523338318,10.0,1.8718253968253966,10.0,33.865553162273564,10.0
subject-06,1,690,0.550750970840454,bicycle,bicycle,0,0_bicycle_00_bicycle-0039-sketch-43.png,True,-1.1520976501373634,1.617443561553955,1.0,-0.6824226526219337,2.056938648223877,0.125,-3.4759944455034293,27.40115523338318,10.0,1.8718253968253966,10.0,33.865553162273564,10.0
subject-07,1,623,0.593657970428467,bicycle,bicycle,0,0_bicycle_00_bicycle-0039-sketch-43.png,True,-0.814944880585069,1.617443561553955,1.0,-0.6824226526219337,2.056938648223877,0.125,-3.4759944455034293,27.40115523338318,10.0,1.8718253968253966,10.0,33.865553162273564,10.0
subject-03,1,557,0.878965854644775,car,bicycle,0,0_bicycle_00_bicycle-0039-sketch-43.png,False,-0.2804636274673468,1.617443561553955,1.0,-0.6824226526219337,2.056938648223877,0.125,-3.4759944455034293,27.40115523338318,10.0,1.8718253968253966,10.0,33.865553162273564,10.0
subject-04,1,450,0.850343942642212,bicycle,bicycle,0,0_bicycle_00_bicycle-0039-sketch-43.png,True,0.36688736719150566,1.617443561553955,1.0,-0.6824226526219337,2.056938648223877,0.125,-3.4759944455034293,27.40115523338318,10.0,1.8718253968253966,10.0,33.865553162273564,10.0
subject-01,1,13,0.792433977127075,elephant,elephant,0,0_elephant_00_elephant-0065-sketch-20.png,True,0.39538553941354154,2.3527793884277344,0.2,-2.3919517609739875,1.4301989078521729,0.0909090909090909,-5.5712779139475614,26.1788067817688,4.0,0.7992424242424241,9.0,42.39671094749018,6.0
subject-05,1,186,0.988050937652588,elephant,elephant,0,0_elephant_00_elephant-0065-sketch-20.png,True,0.6693939475699974,2.3527793884277344,0.2,-2.3919517609739875,1.4301989078521729,0.0909090909090909,-5.5712779139475614,26.1788067817688,4.0,0.7992424242424241,9.0,42.39671094749018,6.0
subject-02,1,255,0.756417989730835,elephant,elephant,0,0_elephant_00_elephant-0065-sketch-20.png,True,0.17974998882109067,2.3527793884277344,0.2,-2.3919517609739875,1.4301989078521729,0.0909090909090909,-5.5712779139475614,26.1788067817688,4.0,0.7992424242424241,9.0,42.39671094749018,6.0
subject-06,1,427,0.603216171264648,elephant,elephant,0,0_elephant_00_elephant-0065-sketch-20.png,True,-0.9102916700876892,2.3527793884277344,0.2,-2.3919517609739875,1.4301989078521729,0.0909090909090909,-5.5712779139475614,26.1788067817688,4.0,0.7992424242424241,9.0,42.39671094749018,6.0
subject-07,1,629,1.45045399665833,elephant,elephant,0,0_elephant_00_elephant-0065-sketch-20.png,True,3.0163252367448488,2.3527793884277344,0.2,-2.3919517609739875,1.4301989078521729,0.0909090909090909,-5.5712779139475614,26.1788067817688,4.0,0.7992424242424241,9.0,42.39671094749018,6.0
subject-03,1,771,1.00604510307312,elephant,elephant,0,0_elephant_00_elephant-0065-sketch-20.png,True,0.46160651498899463,2.3527793884277344,0.2,-2.3919517609739875,1.4301989078521729,0.0909090909090909,-5.5712779139475614,26.1788067817688,4.0,0.7992424242424241,9.0,42.39671094749018,6.0
subject-04,1,746,0.814950942993164,elephant,elephant,0,0_elephant_00_elephant-0065-sketch-20.png,True,0.1570228381657999,2.3527793884277344,0.2,-2.3919517609739875,1.4301989078521729,0.0909090909090909,-5.5712779139475614,26.1788067817688,4.0,0.7992424242424241,9.0,42.39671094749018,6.0
subject-01,1,14,0.764175176620483,airplane,airplane,0,0_airplane_00_airplane-0045-sketch-49.png,True,0.2397842196083937,1.8976576328277588,0.3333333333333333,-2.026485290276024,1.587157964706421,0.3333333333333333,-2.269128201408068,25.336766958236694,10.0,4.166666666666667,0.0,26.55879847815295,7.0
subject-05,1,787,0.933269023895264,airplane,airplane,0,0_airplane_00_airplane-0045-sketch-49.png,True,0.44669604896359016,1.8976576328277588,0.3333333333333333,-2.026485290276024,1.587157964706421,0.3333333333333333,-2.269128201408068,25.336766958236694,10.0,4.166666666666667,0.0,26.55879847815295,7.0
subject-02,1,134,0.669266939163208,airplane,airplane,0,0_airplane_00_airplane-0045-sketch-49.png,True,-0.36484294844230686,1.8976576328277588,0.3333333333333333,-2.026485290276024,1.587157964706421,0.3333333333333333,-2.269128201408068,25.336766958236694,10.0,4.166666666666667,0.0,26.55879847815295,7.0
subject-06,1,541,0.472676992416382,airplane,airplane,0,0_airplane_00_airplane-0045-sketch-49.png,True,-1.5119314965073476,1.8976576328277588,0.3333333333333333,-2.026485290276024,1.587157964706421,0.3333333333333333,-2.269128201408068,25.336766958236694,10.0,4.166666666666667,0.0,26.55879847815295,7.0
subject-07,1,656,0.605829954147339,airplane,airplane,0,0_airplane_00_airplane-0045-sketch-49.png,True,-0.7605163397619474,1.8976576328277588,0.3333333333333333,-2.026485290276024,1.587157964706421,0.3333333333333333,-2.269128201408068,25.336766958236694,10.0,4.166666666666667,0.0,26.55879847815295,7.0
subject-03,1,274,0.931241035461426,airplane,airplane,0,0_airplane_00_airplane-0045-sketch-49.png,True,0.02479353572256989,1.8976576328277588,0.3333333333333333,-2.026485290276024,1.587157964706421,0.3333333333333333,-2.269128201408068,25.336766958236694,10.0,4.166666666666667,0.0,26.55879847815295,7.0
subject-04,1,596,0.868492126464844,airplane,airplane,0,0_airplane_00_airplane-0045-sketch-49.png,True,0.47449791414640397,1.8976576328277588,0.3333333333333333,-2.026485290276024,1.587157964706421,0.3333333333333333,-2.269128201408068,25.336766958236694,10.0,4.166666666666667,0.0,26.55879847815295,7.0
subject-01,1,15,0.812115907669067,bird,bird,0,0_bird_00_bird-0749-sketch-4.png,True,0.5037600745581882,1.1098875999450684,1.0,-0.3200013332930435,1.7751684188842771,0.1666666666666666,-3.5611349630396263,25.727285146713257,10.0,2.4873015873015873,10.0,33.52023405003083,10.0
subject-05,1,280,0.810522079467773,bird,bird,0,0_bird_00_bird-0749-sketch-4.png,True,-0.052291385200392816,1.1098875999450684,1.0,-0.3200013332930435,1.7751684188842771,0.1666666666666666,-3.5611349630396263,25.727285146713257,10.0,2.4873015873015873,10.0,33.52023405003083,10.0
subject-02,1,3,0.793958187103271,bird,bird,0,0_bird_00_bird-0749-sketch-4.png,True,0.41433266131152185,1.1098875999450684,1.0,-0.3200013332930435,1.7751684188842771,0.1666666666666666,-3.5611349630396263,25.727285146713257,10.0,2.4873015873015873,10.0,33.52023405003083,10.0
subject-06,1,659,0.6944420337677,bird,bird,0,0_bird_00_bird-0749-sketch-4.png,True,-0.4898423263307757,1.1098875999450684,1.0,-0.3200013332930435,1.7751684188842771,0.1666666666666666,-3.5611349630396263,25.727285146713257,10.0,2.4873015873015873,10.0,33.52023405003083,10.0
subject-07,1,187,0.825318098068237,bird,bird,0,0_bird_00_bird-0749-sketch-4.png,True,0.22095222588093444,1.1098875999450684,1.0,-0.3200013332930435,1.7751684188842771,0.1666666666666666,-3.5611349630396263,25.727285146713257,10.0,2.4873015873015873,10.0,33.52023405003083,10.0
subject-03,1,735,0.768486022949219,bird,bird,0,0_bird_00_bird-0749-sketch-4.png,True,-0.9256026683320818,1.1098875999450684,1.0,-0.3200013332930435,1.7751684188842771,0.1666666666666666,-3.5611349630396263,25.727285146713257,10.0,2.4873015873015873,10.0,33.52023405003083,10.0
subject-04,1,104,1.03392887115479,bird,bird,0,0_bird_00_bird-0749-sketch-4.png,True,1.455463213843325,1.1098875999450684,1.0,-0.3200013332930435,1.7751684188842771,0.1666666666666666,-3.5611349630396263,25.727285146713257,10.0,2.4873015873015873,10.0,33.52023405003083,10.0
subject-01,1,16,0.821708917617798,airplane,airplane,0,0_airplane_00_airplane-0038-sketch-42.png,True,0.5565820267347584,1.8812973499298096,0.0714285714285714,-5.118386334340857,1.6362993717193604,0.3333333333333333,-2.411188512639732,25.994791984558105,10.0,3.0586080586080584,0.0,32.7637917891926,7.0
subject-05,1,717,0.742727994918823,airplane,airplane,0,0_airplane_00_airplane-0038-sketch-42.png,True,-0.3278859953828056,1.8812973499298096,0.0714285714285714,-5.118386334340857,1.6362993717193604,0.3333333333333333,-2.411188512639732,25.994791984558105,10.0,3.0586080586080584,0.0,32.7637917891926,7.0
subject-02,1,257,0.693898916244507,airplane,airplane,0,0_airplane_00_airplane-0038-sketch-42.png,True,-0.21092167426443503,1.8812973499298096,0.0714285714285714,-5.118386334340857,1.6362993717193604,0.3333333333333333,-2.411188512639732,25.994791984558105,10.0,3.0586080586080584,0.0,32.7637917891926,7.0
subject-06,1,611,0.615739107131958,airplane,airplane,0,0_airplane_00_airplane-0038-sketch-42.png,True,-0.8525749215379645,1.8812973499298096,0.0714285714285714,-5.118386334340857,1.6362993717193604,0.3333333333333333,-2.411188512639732,25.994791984558105,10.0,3.0586080586080584,0.0,32.7637917891926,7.0
subject-07,1,173,0.538303852081299,airplane,airplane,0,0_airplane_00_airplane-0038-sketch-42.png,True,-1.0624677133272367,1.8812973499298096,0.0714285714285714,-5.118386334340857,1.6362993717193604,0.3333333333333333,-2.411188512639732,25.994791984558105,10.0,3.0586080586080584,0.0,32.7637917891926,7.0
subject-03,1,138,1.22100019454956,airplane,airplane,0,0_airplane_00_airplane-0038-sketch-42.png,True,1.7168213303613122,1.8812973499298096,0.0714285714285714,-5.118386334340857,1.6362993717193604,0.3333333333333333,-2.411188512639732,25.994791984558105,10.0,3.0586080586080584,0.0,32.7637917891926,7.0
subject-04,1,326,0.637240886688232,airplane,airplane,0,0_airplane_00_airplane-0038-sketch-42.png,True,-0.8967176653060296,1.8812973499298096,0.0714285714285714,-5.118386334340857,1.6362993717193604,0.3333333333333333,-2.411188512639732,25.994791984558105,10.0,3.0586080586080584,0.0,32.7637917891926,7.0
subject-01,1,17,0.965553998947144,truck,truck,0,0_truck_00_truck-0029-sketch-34.png,True,1.3486356206975965,2.0034849643707275,1.0,-1.1496991338782563,1.5446593761444092,0.0833333333333333,-5.20311954984359,26.33371925354004,10.0,1.2959096459096457,10.0,46.246846707966064,6.0
subject-05,1,442,0.637977123260498,truck,truck,0,0_truck_00_truck-0029-sketch-34.png,True,-0.7537162995017386,2.0034849643707275,1.0,-1.1496991338782563,1.5446593761444092,0.0833333333333333,-5.20311954984359,26.33371925354004,10.0,1.2959096459096457,10.0,46.246846707966064,6.0
subject-02,1,216,0.765375137329102,truck,truck,0,0_truck_00_truck-0029-sketch-34.png,True,0.23572176756926347,2.0034849643707275,1.0,-1.1496991338782563,1.5446593761444092,0.0833333333333333,-5.20311954984359,26.33371925354004,10.0,1.2959096459096457,10.0,46.246846707966064,6.0
subject-06,1,190,0.979768037796021,truck,truck,0,0_truck_00_truck-0029-sketch-34.png,True,0.8251918959707847,2.0034849643707275,1.0,-1.1496991338782563,1.5446593761444092,0.0833333333333333,-5.20311954984359,26.33371925354004,10.0,1.2959096459096457,10.0,46.246846707966064,6.0
subject-07,1,6,0.600226879119873,truck,truck,0,0_truck_00_truck-0029-sketch-34.png,True,-0.7855711874277892,2.0034849643707275,1.0,-1.1496991338782563,1.5446593761444092,0.0833333333333333,-5.20311954984359,26.33371925354004,10.0,1.2959096459096457,10.0,46.246846707966064,6.0
subject-03,1,404,0.965970039367676,truck,truck,0,0_truck_00_truck-0029-sketch-34.png,True,0.22759105927425538,2.0034849643707275,1.0,-1.1496991338782563,1.5446593761444092,0.0833333333333333,-5.20311954984359,26.33371925354004,10.0,1.2959096459096457,10.0,46.246846707966064,6.0
subject-04,1,66,1.03495597839355,truck,truck,0,0_truck_00_truck-0029-sketch-34.png,True,1.4615534966410153,2.0034849643707275,1.0,-1.1496991338782563,1.5446593761444092,0.0833333333333333,-5.20311954984359,26.33371925354004,10.0,1.2959096459096457,10.0,46.246846707966064,6.0
subject-01,1,18,1.02355599403381,oven,oven,0,0_oven_00_oven-0047-sketch-50.png,True,1.6680117734366904,0.7591487169265747,0.3333333333333333,-4.137985517681526,1.5742511749267578,0.0625,-7.420225700495119,24.372695922851562,10.0,0.3609487734487733,10.0,62.431485647990655,6.0
subject-05,1,536,1.47865295410156,oven,oven,0,0_oven_00_oven-0047-sketch-50.png,True,2.663775498372342,0.7591487169265747,0.3333333333333333,-4.137985517681526,1.5742511749267578,0.0625,-7.420225700495119,24.372695922851562,10.0,0.3609487734487733,10.0,62.431485647990655,6.0
subject-02,1,596,0.607534170150757,oven,oven,0,0_oven_00_oven-0047-sketch-50.png,True,-0.7506011209821309,0.7591487169265747,0.3333333333333333,-4.137985517681526,1.5742511749267578,0.0625,-7.420225700495119,24.372695922851562,10.0,0.3609487734487733,10.0,62.431485647990655,6.0
subject-06,1,367,0.740024089813232,oven,oven,0,0_oven_00_oven-0047-sketch-50.png,True,-0.279759954670068,0.7591487169265747,0.3333333333333333,-4.137985517681526,1.5742511749267578,0.0625,-7.420225700495119,24.372695922851562,10.0,0.3609487734487733,10.0,62.431485647990655,6.0
subject-07,1,518,0.553388833999634,oven,oven,0,0_oven_00_oven-0047-sketch-50.png,True,-0.9950133383361539,0.7591487169265747,0.3333333333333333,-4.137985517681526,1.5742511749267578,0.0625,-7.420225700495119,24.372695922851562,10.0,0.3609487734487733,10.0,62.431485647990655,6.0
subject-03,1,341,0.939910173416138,bottle,oven,0,0_oven_00_oven-0047-sketch-50.png,False,0.07541634406136967,0.7591487169265747,0.3333333333333333,-4.137985517681526,1.5742511749267578,0.0625,-7.420225700495119,24.372695922851562,10.0,0.3609487734487733,10.0,62.431485647990655,6.0
subject-04,1,581,0.719526052474976,oven,oven,0,0_oven_00_oven-0047-sketch-50.png,True,-0.4088037350127091,0.7591487169265747,0.3333333333333333,-4.137985517681526,1.5742511749267578,0.0625,-7.420225700495119,24.372695922851562,10.0,0.3609487734487733,10.0,62.431485647990655,6.0
subject-01,1,19,0.681785106658936,keyboard,keyboard,0,0_keyboard_00_keyboard-0043-sketch-47.png,True,-0.2138798919261568,0.7964291572570801,0.2,-3.94531761201742,1.691148281097412,0.2,-3.927019593374096,24.266760110855103,10.0,1.6218614718614717,4.0,42.50906341243706,6.0
subject-05,1,439,0.622539043426514,keyboard,keyboard,0,0_keyboard_00_keyboard-0043-sketch-47.png,True,-0.8164747484448728,0.7964291572570801,0.2,-3.94531761201742,1.691148281097412,0.2,-3.927019593374096,24.266760110855103,10.0,1.6218614718614717,4.0,42.50906341243706,6.0
subject-02,1,450,1.13058090209961,keyboard,keyboard,0,0_keyboard_00_keyboard-0043-sketch-47.png,True,2.51783401804138,0.7964291572570801,0.2,-3.94531761201742,1.691148281097412,0.2,-3.927019593374096,24.266760110855103,10.0,1.6218614718614717,4.0,42.50906341243706,6.0
subject-06,1,234,1.00949096679688,keyboard,keyboard,0,0_keyboard_00_keyboard-0043-sketch-47.png,True,0.9621814036613968,0.7964291572570801,0.2,-3.94531761201742,1.691148281097412,0.2,-3.927019593374096,24.266760110855103,10.0,1.6218614718614717,4.0,42.50906341243706,6.0
subject-07,1,395,0.686172008514404,keyboard,keyboard,0,0_keyboard_00_keyboard-0043-sketch-47.png,True,-0.40125683967312326,0.7964291572570801,0.2,-3.94531761201742,1.691148281097412,0.2,-3.927019593374096,24.266760110855103,10.0,1.6218614718614717,4.0,42.50906341243706,6.0
subject-03,1,672,0.870421171188354,keyboard,keyboard,0,0_keyboard_00_keyboard-0043-sketch-47.png,True,-0.3303596927035675,0.7964291572570801,0.2,-3.94531761201742,1.691148281097412,0.2,-3.927019593374096,24.266760110855103,10.0,1.6218614718614717,4.0,42.50906341243706,6.0
subject-04,1,258,0.675503015518188,keyboard,keyboard,0,0_keyboard_00_keyboard-0043-sketch-47.png,True,-0.6698404939432577,0.7964291572570801,0.2,-3.94531761201742,1.691148281097412,0.2,-3.927019593374096,24.266760110855103,10.0,1.6218614718614717,4.0,42.50906341243706,6.0
subject-01,1,20,1.15126895904541,bicycle,bicycle,0,0_bicycle_00_bicycle-0047-sketch-50.png,True,2.371237160069713,0.0675446912646293,1.0,-0.008953119198154707,1.8811805248260496,0.1111111111111111,-3.816394623350689,25.054161064326763,10.0,2.830988455988456,9.0,33.36650967244598,6.0
subject-05,1,392,0.669315099716187,chair,bicycle,0,0_bicycle_00_bicycle-0047-sketch-50.png,False,-0.6263220369687698,0.0675446912646293,1.0,-0.008953119198154707,1.8811805248260496,0.1111111111111111,-3.816394623350689,25.054161064326763,10.0,2.830988455988456,9.0,33.36650967244598,6.0
subject-02,1,636,0.543812036514282,bicycle,bicycle,0,0_bicycle_00_bicycle-0047-sketch-50.png,True,-1.1487905139929506,0.0675446912646293,1.0,-0.008953119198154707,1.8811805248260496,0.1111111111111111,-3.816394623350689,25.054161064326763,10.0,2.830988455988456,9.0,33.36650967244598,6.0
subject-06,1,403,0.635251045227051,bicycle,bicycle,0,0_bicycle_00_bicycle-0047-sketch-50.png,True,-0.7626466781384251,0.0675446912646293,1.0,-0.008953119198154707,1.8811805248260496,0.1111111111111111,-3.816394623350689,25.054161064326763,10.0,2.830988455988456,9.0,33.36650967244598,6.0
subject-07,1,89,0.822804927825928,bicycle,bicycle,0,0_bicycle_00_bicycle-0047-sketch-50.png,True,0.20971427220893862,0.0675446912646293,1.0,-0.008953119198154707,1.8811805248260496,0.1111111111111111,-3.816394623350689,25.054161064326763,10.0,2.830988455988456,9.0,33.36650967244598,6.0
subject-03,1,681,0.864474058151245,bicycle,bicycle,0,0_bicycle_00_bicycle-0047-sketch-50.png,True,-0.3650874320727525,0.0675446912646293,1.0,-0.008953119198154707,1.8811805248260496,0.1111111111111111,-3.816394623350689,25.054161064326763,10.0,2.830988455988456,9.0,33.36650967244598,6.0
subject-04,1,506,0.787513971328735,bicycle,bicycle,0,0_bicycle_00_bicycle-0047-sketch-50.png,True,-0.005666032326754708,0.0675446912646293,1.0,-0.008953119198154707,1.8811805248260496,0.1111111111111111,-3.816394623350689,25.054161064326763,10.0,2.830988455988456,9.0,33.36650967244598,6.0
subject-01,1,21,0.950965166091919,bird,bird,0,0_bird_00_bird-2262-sketch-28.png,True,1.268305188903077,0.1485118567943573,1.0,-0.021626183610484,1.7052127122879028,0.1666666666666666,-3.753857636275256,24.934173434972763,10.0,3.1980158730158728,9.0,32.6181229277166,10.0
subject-05,1,302,0.5886549949646,bird,bird,0,0_bird_00_bird-2262-sketch-28.png,True,-0.954219231453867,0.1485118567943573,1.0,-0.021626183610484,1.7052127122879028,0.1666666666666666,-3.753857636275256,24.934173434972763,10.0,3.1980158730158728,9.0,32.6181229277166,10.0
subject-02,1,304,0.816812992095947,bird,bird,0,0_bird_00_bird-2262-sketch-28.png,True,0.5571486721395884,0.1485118567943573,1.0,-0.021626183610484,1.7052127122879028,0.1666666666666666,-3.753857636275256,24.934173434972763,10.0,3.1980158730158728,9.0,32.6181229277166,10.0
subject-06,1,397,0.732584953308105,bird,bird,0,0_bird_00_bird-2262-sketch-28.png,True,-0.31404606582187083,0.1485118567943573,1.0,-0.021626183610484,1.7052127122879028,0.1666666666666666,-3.753857636275256,24.934173434972763,10.0,3.1980158730158728,9.0,32.6181229277166,10.0
subject-07,1,174,0.913747072219849,bird,bird,0,0_bird_00_bird-2262-sketch-28.png,True,0.6163733947488652,0.1485118567943573,1.0,-0.021626183610484,1.7052127122879028,0.1666666666666666,-3.753857636275256,24.934173434972763,10.0,3.1980158730158728,9.0,32.6181229277166,10.0
subject-03,1,130,0.800819158554077,bird,bird,0,0_bird_00_bird-2262-sketch-28.png,True,-0.7367956456191154,0.1485118567943573,1.0,-0.021626183610484,1.7052127122879028,0.1666666666666666,-3.753857636275256,24.934173434972763,10.0,3.1980158730158728,9.0,32.6181229277166,10.0
subject-04,1,648,0.811058044433594,bird,bird,0,0_bird_00_bird-2262-sketch-28.png,True,0.1339397050363655,0.1485118567943573,1.0,-0.021626183610484,1.7052127122879028,0.1666666666666666,-3.753857636275256,24.934173434972763,10.0,3.1980158730158728,9.0,32.6181229277166,10.0
subject-01,1,22,0.584779977798462,bear,bear,0,0_bear_00_bear-0030-sketch-35.png,True,-0.7480188436143975,0.373371958732605,1.0,-0.07786191324168577,1.8040523529052737,0.1428571428571428,-3.635366604583294,26.008558750152588,10.0,2.195238095238095,10.0,31.89071628683235,10.0
subject-05,1,678,0.937835931777954,bear,bear,0,0_bear_00_bear-0030-sketch-35.png,True,0.4652613147392518,0.373371958732605,1.0,-0.07786191324168577,1.8040523529052737,0.1428571428571428,-3.635366604583294,26.008558750152588,10.0,2.195238095238095,10.0,31.89071628683235,10.0
subject-02,1,557,0.796594858169556,bear,bear,0,0_bear_00_bear-0030-sketch-35.png,True,0.43080879592187066,0.373371958732605,1.0,-0.07786191324168577,1.8040523529052737,0.1428571428571428,-3.635366604583294,26.008558750152588,10.0,2.195238095238095,10.0,31.89071628683235,10.0
subject-06,1,6,0.601299047470093,bear,bear,0,0_bear_00_bear-0030-sketch-35.png,True,-0.9191274697085966,0.373371958732605,1.0,-0.07786191324168577,1.8040523529052737,0.1428571428571428,-3.635366604583294,26.008558750152588,10.0,2.195238095238095,10.0,31.89071628683235,10.0
subject-07,1,129,1.01911807060242,bear,bear,0,0_bear_00_bear-0030-sketch-35.png,True,1.0875529345429225,0.373371958732605,1.0,-0.07786191324168577,1.8040523529052737,0.1428571428571428,-3.635366604583294,26.008558750152588,10.0,2.195238095238095,10.0,31.89071628683235,10.0
subject-03,1,253,,na,bear,0,0_bear_00_bear-0030-sketch-35.png,False,,0.373371958732605,1.0,-0.07786191324168577,1.8040523529052737,0.1428571428571428,-3.635366604583294,26.008558750152588,10.0,2.195238095238095,10.0,31.89071628683235,10.0
subject-04,1,546,0.60193920135498,bear,bear,0,0_bear_00_bear-0030-sketch-35.png,True,-1.1060407416131786,0.373371958732605,1.0,-0.07786191324168577,1.8040523529052737,0.1428571428571428,-3.635366604583294,26.008558750152588,10.0,2.195238095238095,10.0,31.89071628683235,10.0
subject-01,1,23,0.860413074493408,bicycle,bicycle,0,0_bicycle_00_bicycle-0040-sketch-44.png,True,0.7696985703893816,0.3190939724445343,1.0,-0.08704503792463844,1.8309249877929688,0.1428571428571428,-3.680117682611521,25.54497304558754,10.0,1.966269841269841,10.0,34.09043108579939,10.0
subject-05,1,409,0.697979927062988,bicycle,bicycle,0,0_bicycle_00_bicycle-0040-sketch-44.png,True,-0.5097945851837432,0.3190939724445343,1.0,-0.08704503792463844,1.8309249877929688,0.1428571428571428,-3.680117682611521,25.54497304558754,10.0,1.966269841269841,10.0,34.09043108579939,10.0
subject-02,1,42,0.67686915397644,bicycle,bicycle,0,0_bicycle_00_bicycle-0040-sketch-44.png,True,-0.3173379273567298,0.3190939724445343,1.0,-0.08704503792463844,1.8309249877929688,0.1428571428571428,-3.680117682611521,25.54497304558754,10.0,1.966269841269841,10.0,34.09043108579939,10.0
subject-06,1,630,1.0805070400238,bicycle,bicycle,0,0_bicycle_00_bicycle-0040-sketch-44.png,True,1.2894861894446217,0.3190939724445343,1.0,-0.08704503792463844,1.8309249877929688,0.1428571428571428,-3.680117682611521,25.54497304558754,10.0,1.966269841269841,10.0,34.09043108579939,10.0
subject-07,1,233,0.612748861312866,bicycle,bicycle,0,0_bicycle_00_bicycle-0040-sketch-44.png,True,-0.7295775848467235,0.3190939724445343,1.0,-0.08704503792463844,1.8309249877929688,0.1428571428571428,-3.680117682611521,25.54497304558754,10.0,1.966269841269841,10.0,34.09043108579939,10.0
subject-03,1,397,1.0397961139679,bicycle,bicycle,0,0_bicycle_00_bicycle-0040-sketch-44.png,True,0.6586931186043538,0.3190939724445343,1.0,-0.08704503792463844,1.8309249877929688,0.1428571428571428,-3.680117682611521,25.54497304558754,10.0,1.966269841269841,10.0,34.09043108579939,10.0
subject-04,1,168,0.784507989883423,bicycle,bicycle,0,0_bicycle_00_bicycle-0040-sketch-44.png,True,-0.02349014688431785,0.3190939724445343,1.0,-0.08704503792463844,1.8309249877929688,0.1428571428571428,-3.680117682611521,25.54497304558754,10.0,1.966269841269841,10.0,34.09043108579939,10.0
subject-01,1,24,0.668322801589966,boat,boat,0,0_boat_00_boat-0233-sketch-34.png,True,-0.28800732829284215,2.3472323417663574,0.125,-2.826395670654766,1.6016374826431274,0.25,-2.999534879665873,26.409274458885193,4.0,1.5977564102564101,1.0,33.86138397903363,9.0
subject-05,1,479,0.650953054428101,boat,boat,0,0_boat_00_boat-0233-sketch-34.png,True,-0.7009669082284147,2.3472323417663574,0.125,-2.826395670654766,1.6016374826431274,0.25,-2.999534879665873,26.409274458885193,4.0,1.5977564102564101,1.0,33.86138397903363,9.0
subject-02,1,61,0.834932088851929,boat,boat,0,0_boat_00_boat-0233-sketch-34.png,True,0.6703720017337966,2.3472323417663574,0.125,-2.826395670654766,1.6016374826431274,0.25,-2.999534879665873,26.409274458885193,4.0,1.5977564102564101,1.0,33.86138397903363,9.0
subject-06,1,686,0.803468942642212,boat,boat,0,0_boat_00_boat-0233-sketch-34.png,True,0.012649960728717043,2.3472323417663574,0.125,-2.826395670654766,1.6016374826431274,0.25,-2.999534879665873,26.409274458885193,4.0,1.5977564102564101,1.0,33.86138397903363,9.0
subject-07,1,670,0.557244062423706,boat,boat,0,0_boat_00_boat-0233-sketch-34.png,True,-0.9777742043947629,2.3472323417663574,0.125,-2.826395670654766,1.6016374826431274,0.25,-2.999534879665873,26.409274458885193,4.0,1.5977564102564101,1.0,33.86138397903363,9.0
subject-03,1,624,0.917862176895142,boat,boat,0,0_boat_00_boat-0233-sketch-34.png,True,-0.053331347804606646,2.3472323417663574,0.125,-2.826395670654766,1.6016374826431274,0.25,-2.999534879665873,26.409274458885193,4.0,1.5977564102564101,1.0,33.86138397903363,9.0
subject-04,1,783,0.531718969345093,boat,boat,0,0_boat_00_boat-0233-sketch-34.png,True,-1.5224150547530113,2.3472323417663574,0.125,-2.826395670654766,1.6016374826431274,0.25,-2.999534879665873,26.409274458885193,4.0,1.5977564102564101,1.0,33.86138397903363,9.0
subject-01,1,25,1.12427806854248,knife,knife,0,0_knife_00_knife-0037-sketch-41.png,True,2.222617328028632,0.2155984938144683,0.5,-4.1154057352721045,1.602295160293579,0.2,-3.924981793414665,23.78208628296852,10.0,2.3484848484848486,7.0,39.09210419017255,6.0
subject-05,1,594,0.723356008529663,knife,knife,0,0_knife_00_knife-0037-sketch-41.png,True,-0.40663645086723266,0.2155984938144683,0.5,-4.1154057352721045,1.602295160293579,0.2,-3.924981793414665,23.78208628296852,10.0,2.3484848484848486,7.0,39.09210419017255,6.0
subject-02,1,463,0.774218082427979,knife,knife,0,0_knife_00_knife-0037-sketch-41.png,True,0.2909799132151318,0.2155984938144683,0.5,-4.1154057352721045,1.602295160293579,0.2,-3.924981793414665,23.78208628296852,10.0,2.3484848484848486,7.0,39.09210419017255,6.0
subject-06,1,152,0.913738965988159,knife,knife,0,0_knife_00_knife-0037-sketch-41.png,True,0.5208716171730378,0.2155984938144683,0.5,-4.1154057352721045,1.602295160293579,0.2,-3.924981793414665,23.78208628296852,10.0,2.3484848484848486,7.0,39.09210419017255,6.0
subject-07,1,559,0.576077222824097,knife,knife,0,0_knife_00_knife-0037-sketch-41.png,True,-0.8935593826075979,0.2155984938144683,0.5,-4.1154057352721045,1.602295160293579,0.2,-3.924981793414665,23.78208628296852,10.0,2.3484848484848486,7.0,39.09210419017255,6.0
subject-03,1,678,0.921044111251831,knife,knife,0,0_knife_00_knife-0037-sketch-41.png,True,-0.034750670703055014,0.2155984938144683,0.5,-4.1154057352721045,1.602295160293579,0.2,-3.924981793414665,23.78208628296852,10.0,2.3484848484848486,7.0,39.09210419017255,6.0
subject-04,1,498,0.784893989562988,knife,knife,0,0_knife_00_knife-0037-sketch-41.png,True,-0.021201342833820882,0.2155984938144683,0.5,-4.1154057352721045,1.602295160293579,0.2,-3.924981793414665,23.78208628296852,10.0,2.3484848484848486,7.0,39.09210419017255,6.0
subject-01,1,26,0.671607971191406,truck,truck,0,0_truck_00_truck-0112-sketch-17.png,True,-0.26991821210234535,0.4477121531963348,1.0,-0.13483878069746238,1.5418057441711426,0.0833333333333333,-5.110993163126645,24.10181400179863,10.0,1.6471361971361969,10.0,44.69133186790671,10.0
subject-05,1,456,0.703248023986816,truck,truck,0,0_truck_00_truck-0112-sketch-17.png,True,-0.4883788653936596,0.4477121531963348,1.0,-0.13483878069746238,1.5418057441711426,0.0833333333333333,-5.110993163126645,24.10181400179863,10.0,1.6471361971361969,10.0,44.69133186790671,10.0
subject-02,1,404,0.82495903968811,truck,truck,0,0_truck_00_truck-0112-sketch-17.png,True,0.6080520170380073,0.4477121531963348,1.0,-0.13483878069746238,1.5418057441711426,0.0833333333333333,-5.110993163126645,24.10181400179863,10.0,1.6471361971361969,10.0,44.69133186790671,10.0
subject-06,1,775,0.57867693901062,truck,truck,0,0_truck_00_truck-0112-sketch-17.png,True,-1.0233901250040172,0.4477121531963348,1.0,-0.13483878069746238,1.5418057441711426,0.0833333333333333,-5.110993163126645,24.10181400179863,10.0,1.6471361971361969,10.0,44.69133186790671,10.0
subject-07,1,240,0.751485109329224,truck,truck,0,0_truck_00_truck-0112-sketch-17.png,True,-0.10920117675990225,0.4477121531963348,1.0,-0.13483878069746238,1.5418057441711426,0.0833333333333333,-5.110993163126645,24.10181400179863,10.0,1.6471361971361969,10.0,44.69133186790671,10.0
subject-03,1,487,0.963729858398438,truck,truck,0,0_truck_00_truck-0112-sketch-17.png,True,0.21450968342784615,0.4477121531963348,1.0,-0.13483878069746238,1.5418057441711426,0.0833333333333333,-5.110993163126645,24.10181400179863,10.0,1.6471361971361969,10.0,44.69133186790671,10.0
subject-04,1,205,0.740002870559692,truck,truck,0,0_truck_00_truck-0112-sketch-17.png,True,-0.28738543687731605,0.4477121531963348,1.0,-0.13483878069746238,1.5418057441711426,0.0833333333333333,-5.110993163126645,24.10181400179863,10.0,1.6471361971361969,10.0,44.69133186790671,10.0
subject-01,1,27,0.665903091430664,bird,bird,0,0_bird_00_bird-0479-sketch-26.png,True,-0.30133096863084946,0.1984918415546417,1.0,-0.03337723815932315,1.7965784072875977,0.1428571428571428,-3.6370146921499527,25.463803559541702,10.0,2.0571789321789318,10.0,34.839399056603206,10.0
subject-05,1,313,0.770519018173218,bird,bird,0,0_bird_00_bird-0479-sketch-26.png,True,-0.2149107074749762,0.1984918415546417,1.0,-0.03337723815932315,1.7965784072875977,0.1428571428571428,-3.6370146921499527,25.463803559541702,10.0,2.0571789321789318,10.0,34.839399056603206,10.0
subject-02,1,186,0.65890908241272,bird,bird,0,0_bird_00_bird-0479-sketch-26.png,True,-0.42956753402977116,0.1984918415546417,1.0,-0.03337723815932315,1.7965784072875977,0.1428571428571428,-3.6370146921499527,25.463803559541702,10.0,2.0571789321789318,10.0,34.839399056603206,10.0
subject-06,1,761,0.693229913711548,bird,bird,0,0_bird_00_bird-0479-sketch-26.png,True,-0.49542884607616755,0.1984918415546417,1.0,-0.03337723815932315,1.7965784072875977,0.1428571428571428,-3.6370146921499527,25.463803559541702,10.0,2.0571789321789318,10.0,34.839399056603206,10.0
subject-07,1,681,0.691237211227417,bird,bird,0,0_bird_00_bird-0479-sketch-26.png,True,-0.3786071550358384,0.1984918415546417,1.0,-0.03337723815932315,1.7965784072875977,0.1428571428571428,-3.6370146921499527,25.463803559541702,10.0,2.0571789321789318,10.0,34.839399056603206,10.0
subject-03,1,419,0.825361013412476,bird,bird,0,0_bird_00_bird-0479-sketch-26.png,True,-0.59348524713825,0.1984918415546417,1.0,-0.03337723815932315,1.7965784072875977,0.1428571428571428,-3.6370146921499527,25.463803559541702,10.0,2.0571789321789318,10.0,34.839399056603206,10.0
subject-04,1,335,0.749860048294067,bird,bird,0,0_bird_00_bird-0479-sketch-26.png,True,-0.22893681756671966,0.1984918415546417,1.0,-0.03337723815932315,1.7965784072875977,0.1428571428571428,-3.6370146921499527,25.463803559541702,10.0,2.0571789321789318,10.0,34.839399056603206,10.0
subject-01,1,28,0.912215948104858,airplane,airplane,0,0_airplane_00_airplane-0012-sketch-19.png,True,1.0549405254313362,2.1894659996032715,1.0,-1.437158920242161,1.5795141458511353,0.3333333333333333,-2.3680428222049397,25.109086990356445,5.0,5.166666666666666,0.0,26.6471464886805,10.0
subject-05,1,750,0.492741107940674,airplane,airplane,0,0_airplane_00_airplane-0012-sketch-19.png,True,-1.3441256736059544,2.1894659996032715,1.0,-1.437158920242161,1.5795141458511353,0.3333333333333333,-2.3680428222049397,25.109086990356445,5.0,5.166666666666666,0.0,26.6471464886805,10.0
subject-02,1,759,0.870043039321899,airplane,airplane,0,0_airplane_00_airplane-0012-sketch-19.png,True,0.8897746999458286,2.1894659996032715,1.0,-1.437158920242161,1.5795141458511353,0.3333333333333333,-2.3680428222049397,25.109086990356445,5.0,5.166666666666666,0.0,26.6471464886805,10.0
subject-06,1,696,0.735620021820068,airplane,airplane,0,0_airplane_00_airplane-0012-sketch-19.png,True,-0.30005778959078094,2.1894659996032715,1.0,-1.437158920242161,1.5795141458511353,0.3333333333333333,-2.3680428222049397,25.109086990356445,5.0,5.166666666666666,0.0,26.6471464886805,10.0
subject-07,1,619,0.660676002502441,airplane,airplane,0,0_airplane_00_airplane-0012-sketch-19.png,True,-0.5152654052528747,2.1894659996032715,1.0,-1.437158920242161,1.5795141458511353,0.3333333333333333,-2.3680428222049397,25.109086990356445,5.0,5.166666666666666,0.0,26.6471464886805,10.0
subject-03,1,497,0.827913045883179,airplane,airplane,0,0_airplane_00_airplane-0012-sketch-19.png,True,-0.578582836850896,2.1894659996032715,1.0,-1.437158920242161,1.5795141458511353,0.3333333333333333,-2.3680428222049397,25.109086990356445,5.0,5.166666666666666,0.0,26.6471464886805,10.0
subject-04,1,509,0.764838933944702,airplane,airplane,0,0_airplane_00_airplane-0012-sketch-19.png,True,-0.140118779718239,2.1894659996032715,1.0,-1.437158920242161,1.5795141458511353,0.3333333333333333,-2.3680428222049397,25.109086990356445,5.0,5.166666666666666,0.0,26.6471464886805,10.0
subject-01,1,29,0.827598094940186,chair,chair,0,0_chair_00_chair-0083-sketch-37.png,True,0.5890095801872258,0.051689401268959,1.0,-0.006329138457627371,1.5471398830413818,0.0909090909090909,-5.353746463257826,24.372400537133217,10.0,2.2850482850482847,9.0,43.557113819939886,10.0
subject-05,1,130,,na,chair,0,0_chair_00_chair-0083-sketch-37.png,False,,0.051689401268959,1.0,-0.006329138457627371,1.5471398830413818,0.0909090909090909,-5.353746463257826,24.372400537133217,10.0,2.2850482850482847,9.0,43.557113819939886,10.0
subject-02,1,718,0.673763036727905,chair,chair,0,0_chair_00_chair-0083-sketch-37.png,True,-0.33674755586776567,0.051689401268959,1.0,-0.006329138457627371,1.5471398830413818,0.0909090909090909,-5.353746463257826,24.372400537133217,10.0,2.2850482850482847,9.0,43.557113819939886,10.0
subject-06,1,156,0.613107919692993,chair,chair,0,0_chair_00_chair-0083-sketch-37.png,True,-0.8647017570828435,0.051689401268959,1.0,-0.006329138457627371,1.5471398830413818,0.0909090909090909,-5.353746463257826,24.372400537133217,10.0,2.2850482850482847,9.0,43.557113819939886,10.0
subject-07,1,181,0.692461013793945,chair,chair,0,0_chair_00_chair-0083-sketch-37.png,True,-0.3731347694748526,0.051689401268959,1.0,-0.006329138457627371,1.5471398830413818,0.0909090909090909,-5.353746463257826,24.372400537133217,10.0,2.2850482850482847,9.0,43.557113819939886,10.0
subject-03,1,211,0.747286081314087,chair,chair,0,0_chair_00_chair-0083-sketch-37.png,True,-1.049398204612099,0.051689401268959,1.0,-0.006329138457627371,1.5471398830413818,0.0909090909090909,-5.353746463257826,24.372400537133217,10.0,2.2850482850482847,9.0,43.557113819939886,10.0
subject-04,1,147,0.678242921829224,chair,chair,0,0_chair_00_chair-0083-sketch-37.png,True,-0.6535940849572485,0.051689401268959,1.0,-0.006329138457627371,1.5471398830413818,0.0909090909090909,-5.353746463257826,24.372400537133217,10.0,2.2850482850482847,9.0,43.557113819939886,10.0
subject-01,1,30,0.727412939071655,dog,dog,0,0_dog_00_dog-4909-sketch-37.png,True,0.0373604585484151,1.9787081480026243,0.5,-1.5174242224201215,1.674720287322998,0.0833333333333333,-5.033427803550356,26.625731348991394,10.0,1.3027777777777776,10.0,40.19687241710129,6.0
subject-05,1,370,0.767552852630615,dog,dog,0,0_dog_00_dog-4909-sketch-37.png,True,-0.22696868040711213,1.9787081480026243,0.5,-1.5174242224201215,1.674720287322998,0.0833333333333333,-5.033427803550356,26.625731348991394,10.0,1.3027777777777776,10.0,40.19687241710129,6.0
subject-02,1,387,0.938282012939453,dog,dog,0,0_dog_00_dog-4909-sketch-37.png,True,1.3161891015643856,1.9787081480026243,0.5,-1.5174242224201215,1.674720287322998,0.0833333333333333,-5.033427803550356,26.625731348991394,10.0,1.3027777777777776,10.0,40.19687241710129,6.0
subject-06,1,793,0.741391897201538,dog,dog,0,0_dog_00_dog-4909-sketch-37.png,True,-0.27345589019734373,1.9787081480026243,0.5,-1.5174242224201215,1.674720287322998,0.0833333333333333,-5.033427803550356,26.625731348991394,10.0,1.3027777777777776,10.0,40.19687241710129,6.0
subject-07,1,342,0.844306945800781,dog,dog,0,0_dog_00_dog-4909-sketch-37.png,True,0.30586322295960916,1.9787081480026243,0.5,-1.5174242224201215,1.674720287322998,0.0833333333333333,-5.033427803550356,26.625731348991394,10.0,1.3027777777777776,10.0,40.19687241710129,6.0
subject-03,1,30,1.29130482673645,dog,dog,0,0_dog_00_dog-4909-sketch-37.png,True,2.12736017968165,1.9787081480026243,0.5,-1.5174242224201215,1.674720287322998,0.0833333333333333,-5.033427803550356,26.625731348991394,10.0,1.3027777777777776,10.0,40.19687241710129,6.0
subject-04,1,460,0.754000186920166,cat,dog,0,0_dog_00_dog-4909-sketch-37.png,False,-0.20438766232463887,1.9787081480026243,0.5,-1.5174242224201215,1.674720287322998,0.0833333333333333,-5.033427803550356,26.625731348991394,10.0,1.3027777777777776,10.0,40.19687241710129,6.0
subject-01,1,31,0.949219942092896,chair,chair,0,0_chair_00_chair-0135-sketch-39.png,True,1.2586954690021828,0.2557525634765625,1.0,-0.04405719536035478,1.7951475381851196,0.0714285714285714,-5.295785443742901,24.890475869178772,10.0,1.5888278388278385,10.0,44.87896928337688,10.0
subject-05,1,648,0.673561096191406,chair,chair,0,0_chair_00_chair-0135-sketch-39.png,True,-0.6090613312418713,0.2557525634765625,1.0,-0.04405719536035478,1.7951475381851196,0.0714285714285714,-5.295785443742901,24.890475869178772,10.0,1.5888278388278385,10.0,44.87896928337688,10.0
subject-02,1,451,0.662401914596558,chair,chair,0,0_chair_00_chair-0135-sketch-39.png,True,-0.4077413859113566,0.2557525634765625,1.0,-0.04405719536035478,1.7951475381851196,0.0714285714285714,-5.295785443742901,24.890475869178772,10.0,1.5888278388278385,10.0,44.87896928337688,10.0
subject-06,1,123,0.69756007194519,chair,chair,0,0_chair_00_chair-0135-sketch-39.png,True,-0.47547165260334645,0.2557525634765625,1.0,-0.04405719536035478,1.7951475381851196,0.0714285714285714,-5.295785443742901,24.890475869178772,10.0,1.5888278388278385,10.0,44.87896928337688,10.0
subject-07,1,119,0.597144842147827,chair,chair,0,0_chair_00_chair-0135-sketch-39.png,True,-0.7993528995156297,0.2557525634765625,1.0,-0.04405719536035478,1.7951475381851196,0.0714285714285714,-5.295785443742901,24.890475869178772,10.0,1.5888278388278385,10.0,44.87896928337688,10.0
subject-03,1,689,0.735070943832397,chair,chair,0,0_chair_00_chair-0135-sketch-39.png,True,-1.1207276224617222,0.2557525634765625,1.0,-0.04405719536035478,1.7951475381851196,0.0714285714285714,-5.295785443742901,24.890475869178772,10.0,1.5888278388278385,10.0,44.87896928337688,10.0
subject-04,1,598,0.818716049194336,chair,chair,0,0_chair_00_chair-0135-sketch-39.png,True,0.17934822023219388,0.2557525634765625,1.0,-0.04405719536035478,1.7951475381851196,0.0714285714285714,-5.295785443742901,24.890475869178772,10.0,1.5888278388278385,10.0,44.87896928337688,10.0
subject-01,1,32,0.64490008354187,clock,clock,0,0_clock_00_clock-0021-sketch-27.png,True,-0.41697974666769183,0.2169673293828964,1.0,-0.03446302882298562,1.442529797554016,1.0,-0.84899673366357,23.721698865294456,10.0,8.783333333333333,2.0,16.114785128656003,10.0
subject-05,1,474,0.587837934494019,clock,clock,0,0_clock_00_clock-0021-sketch-27.png,True,-0.9575407227518675,0.2169673293828964,1.0,-0.03446302882298562,1.442529797554016,1.0,-0.84899673366357,23.721698865294456,10.0,8.783333333333333,2.0,16.114785128656003,10.0
subject-02,1,763,0.755368947982788,clock,clock,0,0_clock_00_clock-0021-sketch-27.png,True,0.17319469518825575,0.2169673293828964,1.0,-0.03446302882298562,1.442529797554016,1.0,-0.84899673366357,23.721698865294456,10.0,8.783333333333333,2.0,16.114785128656003,10.0
subject-06,1,339,0.77121901512146,clock,clock,0,0_clock_00_clock-0021-sketch-27.png,True,-0.1359861879495659,0.2169673293828964,1.0,-0.03446302882298562,1.442529797554016,1.0,-0.84899673366357,23.721698865294456,10.0,8.783333333333333,2.0,16.114785128656003,10.0
subject-07,1,523,0.690799951553345,clock,clock,0,0_clock_00_clock-0021-sketch-27.png,True,-0.3805624161149044,0.2169673293828964,1.0,-0.03446302882298562,1.442529797554016,1.0,-0.84899673366357,23.721698865294456,10.0,8.783333333333333,2.0,16.114785128656003,10.0
subject-03,1,438,0.75206184387207,clock,clock,0,0_clock_00_clock-0021-sketch-27.png,True,-1.02151048222178,0.2169673293828964,1.0,-0.03446302882298562,1.442529797554016,1.0,-0.84899673366357,23.721698865294456,10.0,8.783333333333333,2.0,16.114785128656003,10.0
subject-04,1,461,0.571868181228638,clock,clock,0,0_clock_00_clock-0021-sketch-27.png,True,-1.284348331778315,0.2169673293828964,1.0,-0.03446302882298562,1.442529797554016,1.0,-0.84899673366357,23.721698865294456,10.0,8.783333333333333,2.0,16.114785128656003,10.0
subject-01,1,33,0.608633041381836,airplane,airplane,0,0_airplane_00_airplane-0024-sketch-3.png,True,-0.6166768153459542,1.791923761367798,0.125,-4.298046425610924,1.6614751815795898,0.3333333333333333,-2.0472225019824757,26.545217275619507,10.0,5.212301587301587,0.0,27.639883682387772,9.0
subject-05,1,448,0.670654058456421,airplane,airplane,0,0_airplane_00_airplane-0024-sketch-3.png,True,-0.6208789394696259,1.791923761367798,0.125,-4.298046425610924,1.6614751815795898,0.3333333333333333,-2.0472225019824757,26.545217275619507,10.0,5.212301587301587,0.0,27.639883682387772,9.0
subject-02,1,652,0.582488059997559,airplane,airplane,0,0_airplane_00_airplane-0024-sketch-3.png,True,-0.9071102463055074,1.791923761367798,0.125,-4.298046425610924,1.6614751815795898,0.3333333333333333,-2.0472225019824757,26.545217275619507,10.0,5.212301587301587,0.0,27.639883682387772,9.0
subject-06,1,618,0.560167074203491,airplane,airplane,0,0_airplane_00_airplane-0024-sketch-3.png,True,-1.108699929676198,1.791923761367798,0.125,-4.298046425610924,1.6614751815795898,0.3333333333333333,-2.0472225019824757,26.545217275619507,10.0,5.212301587301587,0.0,27.639883682387772,9.0
subject-07,1,86,1.09092593193054,airplane,airplane,0,0_airplane_00_airplane-0024-sketch-3.png,True,1.4086507278022808,1.791923761367798,0.125,-4.298046425610924,1.6614751815795898,0.3333333333333333,-2.0472225019824757,26.545217275619507,10.0,5.212301587301587,0.0,27.639883682387772,9.0
subject-03,1,344,1.08333492279053,airplane,airplane,0,0_airplane_00_airplane-0024-sketch-3.png,True,0.9129348651126848,1.791923761367798,0.125,-4.298046425610924,1.6614751815795898,0.3333333333333333,-2.0472225019824757,26.545217275619507,10.0,5.212301587301587,0.0,27.639883682387772,9.0
subject-04,1,777,0.822589874267578,airplane,airplane,0,0_airplane_00_airplane-0024-sketch-3.png,True,0.20231825618804034,1.791923761367798,0.125,-4.298046425610924,1.6614751815795898,0.3333333333333333,-2.0472225019824757,26.545217275619507,10.0,5.212301587301587,0.0,27.639883682387772,9.0
subject-01,1,34,0.69701099395752,bear,bear,0,0_bear_00_bear-0026-sketch-31.png,True,-0.13004164980715952,0.752531886100769,1.0,-0.19454597296132398,1.9073082208633425,0.1666666666666666,-3.159603115352011,26.430691242218018,10.0,2.8107142857142855,10.0,30.50002330865843,10.0
subject-05,1,488,0.611377000808716,bear,bear,0,0_bear_00_bear-0026-sketch-31.png,True,-0.8618503708838833,0.752531886100769,1.0,-0.19454597296132398,1.9073082208633425,0.1666666666666666,-3.159603115352011,26.430691242218018,10.0,2.8107142857142855,10.0,30.50002330865843,10.0
subject-02,1,522,0.865295886993408,bear,bear,0,0_bear_00_bear-0026-sketch-31.png,True,0.8601105064177932,0.752531886100769,1.0,-0.19454597296132398,1.9073082208633425,0.1666666666666666,-3.159603115352011,26.430691242218018,10.0,2.8107142857142855,10.0,30.50002330865843,10.0
subject-06,1,245,0.653491020202637,bear,bear,0,0_bear_00_bear-0026-sketch-31.png,True,-0.6785807641727324,0.752531886100769,1.0,-0.19454597296132398,1.9073082208633425,0.1666666666666666,-3.159603115352011,26.430691242218018,10.0,2.8107142857142855,10.0,30.50002330865843,10.0
subject-07,1,515,0.603924036026001,bear,bear,0,0_bear_00_bear-0026-sketch-31.png,True,-0.7690388899615451,0.752531886100769,1.0,-0.19454597296132398,1.9073082208633425,0.1666666666666666,-3.159603115352011,26.430691242218018,10.0,2.8107142857142855,10.0,30.50002330865843,10.0
subject-03,1,459,1.2741539478302,bear,bear,0,0_bear_00_bear-0026-sketch-31.png,True,2.0272088543424167,0.752531886100769,1.0,-0.19454597296132398,1.9073082208633425,0.1666666666666666,-3.159603115352011,26.430691242218018,10.0,2.8107142857142855,10.0,30.50002330865843,10.0
subject-04,1,359,0.823096036911011,elephant,bear,0,0_bear_00_bear-0026-sketch-31.png,False,0.20531957243215018,0.752531886100769,1.0,-0.19454597296132398,1.9073082208633425,0.1666666666666666,-3.159603115352011,26.430691242218018,10.0,2.8107142857142855,10.0,30.50002330865843,10.0
subject-01,1,35,0.713838815689087,car,car,0,0_car_00_car-0151-sketch-7.png,True,-0.037382682549622466,2.286231517791748,0.1666666666666666,-2.6499722968709527,1.68971049785614,0.0833333333333333,-4.888104510846715,26.541595339775085,4.0,1.5217032967032962,9.0,47.61275591746333,6.0
subject-05,1,533,0.774890899658203,car,car,0,0_car_00_car-0151-sketch-7.png,True,-0.1971382575387551,2.286231517791748,0.1666666666666666,-2.6499722968709527,1.68971049785614,0.0833333333333333,-4.888104510846715,26.541595339775085,4.0,1.5217032967032962,9.0,47.61275591746333,6.0
subject-02,1,64,0.714375972747803,car,car,0,0_car_00_car-0151-sketch-7.png,True,-0.08296383239097271,2.286231517791748,0.1666666666666666,-2.6499722968709527,1.68971049785614,0.0833333333333333,-4.888104510846715,26.541595339775085,4.0,1.5217032967032962,9.0,47.61275591746333,6.0
subject-06,1,764,0.590802907943726,car,car,0,0_car_00_car-0151-sketch-7.png,True,-0.9675029506824745,2.286231517791748,0.1666666666666666,-2.6499722968709527,1.68971049785614,0.0833333333333333,-4.888104510846715,26.541595339775085,4.0,1.5217032967032962,9.0,47.61275591746333,6.0
subject-07,1,694,0.52065896987915,car,car,0,0_car_00_car-0151-sketch-7.png,True,-1.1413690011896105,2.286231517791748,0.1666666666666666,-2.6499722968709527,1.68971049785614,0.0833333333333333,-4.888104510846715,26.541595339775085,4.0,1.5217032967032962,9.0,47.61275591746333,6.0
subject-03,1,3,0.794683933258057,car,car,0,0_car_00_car-0151-sketch-7.png,True,-0.7726218530111625,2.286231517791748,0.1666666666666666,-2.6499722968709527,1.68971049785614,0.0833333333333333,-4.888104510846715,26.541595339775085,4.0,1.5217032967032962,9.0,47.61275591746333,6.0
subject-04,1,443,0.673175811767578,car,car,0,0_car_00_car-0151-sketch-7.png,True,-0.6836397628357367,2.286231517791748,0.1666666666666666,-2.6499722968709527,1.68971049785614,0.0833333333333333,-4.888104510846715,26.541595339775085,4.0,1.5217032967032962,9.0,47.61275591746333,6.0
subject-01,1,36,0.748553991317749,bicycle,bicycle,0,0_bicycle_00_bicycle-0099-sketch-6.png,True,0.15376934967578046,1.5197628736495972,0.3333333333333333,-2.2955652509849087,1.622305393218994,0.1666666666666666,-4.051791312482039,25.29620611667633,10.0,1.8789682539682537,9.0,35.21996590685208,6.0
subject-05,1,296,0.71347188949585,bicycle,bicycle,0,0_bicycle_00_bicycle-0099-sketch-6.png,True,-0.4468170942116147,1.5197628736495972,0.3333333333333333,-2.2955652509849087,1.622305393218994,0.1666666666666666,-4.051791312482039,25.29620611667633,10.0,1.8789682539682537,9.0,35.21996590685208,6.0
subject-02,1,102,0.569424152374268,bicycle,bicycle,0,0_bicycle_00_bicycle-0099-sketch-6.png,True,-0.9887445097867614,1.5197628736495972,0.3333333333333333,-2.2955652509849087,1.622305393218994,0.1666666666666666,-4.051791312482039,25.29620611667633,10.0,1.8789682539682537,9.0,35.21996590685208,6.0
subject-06,1,448,0.824687957763672,bicycle,bicycle,0,0_bicycle_00_bicycle-0099-sketch-6.png,True,0.1104459227311305,1.5197628736495972,0.3333333333333333,-2.2955652509849087,1.622305393218994,0.1666666666666666,-4.051791312482039,25.29620611667633,10.0,1.8789682539682537,9.0,35.21996590685208,6.0
subject-07,1,230,0.681453943252563,bicycle,bicycle,0,0_bicycle_00_bicycle-0099-sketch-6.png,True,-0.4223542559728273,1.5197628736495972,0.3333333333333333,-2.2955652509849087,1.622305393218994,0.1666666666666666,-4.051791312482039,25.29620611667633,10.0,1.8789682539682537,9.0,35.21996590685208,6.0
subject-03,1,212,0.722795009613037,bicycle,bicycle,0,0_bicycle_00_bicycle-0099-sketch-6.png,True,-1.1924120584936344,1.5197628736495972,0.3333333333333333,-2.2955652509849087,1.622305393218994,0.1666666666666666,-4.051791312482039,25.29620611667633,10.0,1.8789682539682537,9.0,35.21996590685208,6.0
subject-04,1,315,0.703042030334473,bicycle,bicycle,0,0_bicycle_00_bicycle-0099-sketch-6.png,True,-0.5065465535720007,1.5197628736495972,0.3333333333333333,-2.2955652509849087,1.622305393218994,0.1666666666666666,-4.051791312482039,25.29620611667633,10.0,1.8789682539682537,9.0,35.21996590685208,6.0
subject-01,1,37,0.969815969467163,elephant,elephant,0,0_elephant_00_elephant-0101-sketch-8.png,True,1.3721032918654112,1.5826438665390017,0.0909090909090909,-4.49198091182571,1.706383228302002,0.0909090909090909,-4.473402758862145,25.24314773082733,10.0,0.5100288600288598,2.0,45.06517917607131,6.0
subject-05,1,176,1.17404699325562,elephant,elephant,0,0_elephant_00_elephant-0101-sketch-8.png,True,1.4254998936923702,1.5826438665390017,0.0909090909090909,-4.49198091182571,1.706383228302002,0.0909090909090909,-4.473402758862145,25.24314773082733,10.0,0.5100288600288598,2.0,45.06517917607131,6.0
subject-02,1,423,0.67591118812561,elephant,elephant,0,0_elephant_00_elephant-0101-sketch-8.png,True,-0.3233241023150763,1.5826438665390017,0.0909090909090909,-4.49198091182571,1.706383228302002,0.0909090909090909,-4.473402758862145,25.24314773082733,10.0,0.5100288600288598,2.0,45.06517917607131,6.0
subject-06,1,570,0.913419008255005,elephant,elephant,0,0_elephant_00_elephant-0101-sketch-8.png,True,0.5193969693566904,1.5826438665390017,0.0909090909090909,-4.49198091182571,1.706383228302002,0.0909090909090909,-4.473402758862145,25.24314773082733,10.0,0.5100288600288598,2.0,45.06517917607131,6.0
subject-07,1,258,0.705931901931763,elephant,elephant,0,0_elephant_00_elephant-0101-sketch-8.png,True,-0.31289801580616766,1.5826438665390017,0.0909090909090909,-4.49198091182571,1.706383228302002,0.0909090909090909,-4.473402758862145,25.24314773082733,10.0,0.5100288600288598,2.0,45.06517917607131,6.0
subject-03,1,574,1.15735387802124,elephant,elephant,0,0_elephant_00_elephant-0101-sketch-8.png,True,1.3451632370289217,1.5826438665390017,0.0909090909090909,-4.49198091182571,1.706383228302002,0.0909090909090909,-4.473402758862145,25.24314773082733,10.0,0.5100288600288598,2.0,45.06517917607131,6.0
subject-04,1,542,0.838781833648682,elephant,elephant,0,0_elephant_00_elephant-0101-sketch-8.png,True,0.2983292742767582,1.5826438665390017,0.0909090909090909,-4.49198091182571,1.706383228302002,0.0909090909090909,-4.473402758862145,25.24314773082733,10.0,0.5100288600288598,2.0,45.06517917607131,6.0
subject-01,1,38,0.533783197402954,boat,boat,0,0_boat_00_boat-0010-sketch-17.png,True,-1.028822210816883,1.990971565246582,1.0,-0.8170789268300632,1.7871488332748413,0.25,-2.558649733866487,27.30037558078766,10.0,2.8011655011655012,10.0,28.933643644428535,10.0
subject-05,1,709,1.39583802223206,boat,boat,0,0_boat_00_boat-0010-sketch-17.png,True,2.3271185611527154,1.990971565246582,1.0,-0.8170789268300632,1.7871488332748413,0.25,-2.558649733866487,27.30037558078766,10.0,2.8011655011655012,10.0,28.933643644428535,10.0
subject-02,1,21,0.510345935821533,boat,boat,0,0_boat_00_boat-0010-sketch-17.png,True,-1.3579148097565958,1.990971565246582,1.0,-0.8170789268300632,1.7871488332748413,0.25,-2.558649733866487,27.30037558078766,10.0,2.8011655011655012,10.0,28.933643644428535,10.0
subject-06,1,773,0.873398065567017,boat,boat,0,0_boat_00_boat-0010-sketch-17.png,True,0.3349451195412432,1.990971565246582,1.0,-0.8170789268300632,1.7871488332748413,0.25,-2.558649733866487,27.30037558078766,10.0,2.8011655011655012,10.0,28.933643644428535,10.0
subject-07,1,374,0.638120174407959,boat,boat,0,0_boat_00_boat-0010-sketch-17.png,True,-0.6161265991711985,1.990971565246582,1.0,-0.8170789268300632,1.7871488332748413,0.25,-2.558649733866487,27.30037558078766,10.0,2.8011655011655012,10.0,28.933643644428535,10.0
subject-03,1,169,0.900812149047852,boat,boat,0,0_boat_00_boat-0010-sketch-17.png,True,-0.15289376062968138,1.990971565246582,1.0,-0.8170789268300632,1.7871488332748413,0.25,-2.558649733866487,27.30037558078766,10.0,2.8011655011655012,10.0,28.933643644428535,10.0
subject-04,1,26,0.577020168304443,boat,boat,0,0_boat_00_boat-0010-sketch-17.png,True,-1.253799371477364,1.990971565246582,1.0,-0.8170789268300632,1.7871488332748413,0.25,-2.558649733866487,27.30037558078766,10.0,2.8011655011655012,10.0,28.933643644428535,10.0
subject-01,1,39,0.997997999191284,dog,dog,0,0_dog_00_dog-0607-sketch-8.png,True,1.527281889019179,0.2531608939170837,1.0,-0.05593792988524831,1.7443039417266846,0.0769230769230769,-5.010270793381569,25.887371361255646,10.0,2.0142968142968143,10.0,37.739634903287396,10.0
subject-05,1,572,0.925403833389282,dog,dog,0,0_dog_00_dog-0607-sketch-8.png,True,0.4147226972186982,0.2531608939170837,1.0,-0.05593792988524831,1.7443039417266846,0.0769230769230769,-5.010270793381569,25.887371361255646,10.0,2.0142968142968143,10.0,37.739634903287396,10.0
subject-02,1,735,0.677120923995972,dog,dog,0,0_dog_00_dog-0607-sketch-8.png,True,-0.3157646568848447,0.2531608939170837,1.0,-0.05593792988524831,1.7443039417266846,0.0769230769230769,-5.010270793381569,25.887371361255646,10.0,2.0142968142968143,10.0,37.739634903287396,10.0
subject-06,1,746,0.911977052688599,dog,dog,0,0_dog_00_dog-0607-sketch-8.png,True,0.5127511645926986,0.2531608939170837,1.0,-0.05593792988524831,1.7443039417266846,0.0769230769230769,-5.010270793381569,25.887371361255646,10.0,2.0142968142968143,10.0,37.739634903287396,10.0
subject-07,1,630,0.886642932891846,dog,dog,0,0_dog_00_dog-0607-sketch-8.png,True,0.4951738608058064,0.2531608939170837,1.0,-0.05593792988524831,1.7443039417266846,0.0769230769230769,-5.010270793381569,25.887371361255646,10.0,2.0142968142968143,10.0,37.739634903287396,10.0
subject-03,1,158,0.787301063537598,dog,dog,0,0_dog_00_dog-0607-sketch-8.png,True,-0.8157335903951523,0.2531608939170837,1.0,-0.05593792988524831,1.7443039417266846,0.0769230769230769,-5.010270793381569,25.887371361255646,10.0,2.0142968142968143,10.0,37.739634903287396,10.0
subject-04,1,36,0.842802047729492,dog,dog,0,0_dog_00_dog-0607-sketch-8.png,True,0.3221673310398953,0.2531608939170837,1.0,-0.05593792988524831,1.7443039417266846,0.0769230769230769,-5.010270793381569,25.887371361255646,10.0,2.0142968142968143,10.0,37.739634903287396,10.0
subject-01,1,40,0.803601026535034,dog,cat,0,0_cat_00_cat-0233-sketch-35.png,False,0.45687461874662844,1.7402212619781494,0.1,-4.350331147958995,1.5294759273529053,0.1666666666666666,-3.9287331701246644,24.912004053592682,10.0,1.6246031746031744,9.0,39.551921658676115,6.0
subject-05,1,386,0.652379035949707,cat,cat,0,0_cat_00_cat-0233-sketch-35.png,True,-0.6951700481603276,1.7402212619781494,0.1,-4.350331147958995,1.5294759273529053,0.1666666666666666,-3.9287331701246644,24.912004053592682,10.0,1.6246031746031744,9.0,39.551921658676115,6.0
subject-02,1,444,0.587877035140991,cat,cat,0,0_cat_00_cat-0233-sketch-35.png,True,-0.8734354049457499,1.7402212619781494,0.1,-4.350331147958995,1.5294759273529053,0.1666666666666666,-3.9287331701246644,24.912004053592682,10.0,1.6246031746031744,9.0,39.551921658676115,6.0
subject-06,1,531,0.754750967025757,dog,cat,0,0_cat_00_cat-0233-sketch-35.png,False,-0.21188549791294367,1.7402212619781494,0.1,-4.350331147958995,1.5294759273529053,0.1666666666666666,-3.9287331701246644,24.912004053592682,10.0,1.6246031746031744,9.0,39.551921658676115,6.0
subject-07,1,737,0.608614206314087,cat,cat,0,0_cat_00_cat-0233-sketch-35.png,True,-0.7480662095103967,1.7402212619781494,0.1,-4.350331147958995,1.5294759273529053,0.1666666666666666,-3.9287331701246644,24.912004053592682,10.0,1.6246031746031744,9.0,39.551921658676115,6.0
subject-03,1,236,1.23632597923279,oven,cat,0,0_cat_00_cat-0233-sketch-35.png,False,1.806315149090909,1.7402212619781494,0.1,-4.350331147958995,1.5294759273529053,0.1666666666666666,-3.9287331701246644,24.912004053592682,10.0,1.6246031746031744,9.0,39.551921658676115,6.0
subject-04,1,228,0.889611959457397,dog,cat,0,0_cat_00_cat-0233-sketch-35.png,False,0.5997290007464039,1.7402212619781494,0.1,-4.350331147958995,1.5294759273529053,0.1666666666666666,-3.9287331701246644,24.912004053592682,10.0,1.6246031746031744,9.0,39.551921658676115,6.0
subject-01,1,41,0.77295994758606,dog,dog,0,0_dog_00_dog-2454-sketch-21.png,True,0.28815576871610854,0.0601735301315784,1.0,-0.0078075542297373355,1.7340312004089355,0.0833333333333333,-4.6015049150125,25.36078955605626,10.0,2.4055555555555554,10.0,34.47583747701779,10.0
subject-05,1,748,,na,dog,0,0_dog_00_dog-2454-sketch-21.png,False,,0.0601735301315784,1.0,-0.0078075542297373355,1.7340312004089355,0.0833333333333333,-4.6015049150125,25.36078955605626,10.0,2.4055555555555554,10.0,34.47583747701779,10.0
subject-02,1,235,0.79978609085083,dog,dog,0,0_dog_00_dog-2454-sketch-21.png,True,0.45075029712084197,0.0601735301315784,1.0,-0.0078075542297373355,1.7340312004089355,0.0833333333333333,-4.6015049150125,25.36078955605626,10.0,2.4055555555555554,10.0,34.47583747701779,10.0
subject-06,1,601,1.07135105133057,dog,dog,0,0_dog_00_dog-2454-sketch-21.png,True,1.2472873071113857,0.0601735301315784,1.0,-0.0078075542297373355,1.7340312004089355,0.0833333333333333,-4.6015049150125,25.36078955605626,10.0,2.4055555555555554,10.0,34.47583747701779,10.0
subject-07,1,269,0.681852102279663,dog,dog,0,0_dog_00_dog-2454-sketch-21.png,True,-0.4205738383054093,0.0601735301315784,1.0,-0.0078075542297373355,1.7340312004089355,0.0833333333333333,-4.6015049150125,25.36078955605626,10.0,2.4055555555555554,10.0,34.47583747701779,10.0
subject-03,1,676,1.14985203742981,dog,dog,0,0_dog_00_dog-2454-sketch-21.png,True,1.301356777790172,0.0601735301315784,1.0,-0.0078075542297373355,1.7340312004089355,0.0833333333333333,-4.6015049150125,25.36078955605626,10.0,2.4055555555555554,10.0,34.47583747701779,10.0
subject-04,1,87,0.850988864898682,dog,dog,0,0_dog_00_dog-2454-sketch-21.png,True,0.37071146537347205,0.0601735301315784,1.0,-0.0078075542297373355,1.7340312004089355,0.0833333333333333,-4.6015049150125,25.36078955605626,10.0,2.4055555555555554,10.0,34.47583747701779,10.0
subject-01,1,42,0.846967935562134,knife,knife,0,0_knife_00_knife-0030-sketch-35.png,True,0.6956656558577907,2.1628081798553467,0.2,-2.783276178183247,1.5572350025177002,0.125,-4.327173259606749,25.958826780319214,4.0,1.6739177489177488,6.0,39.91070641640975,6.0
subject-05,1,39,0.808457136154175,knife,knife,0,0_knife_00_knife-0030-sketch-35.png,True,-0.060685734815791904,2.1628081798553467,0.2,-2.783276178183247,1.5572350025177002,0.125,-4.327173259606749,25.958826780319214,4.0,1.6739177489177488,6.0,39.91070641640975,6.0
subject-02,1,251,0.72296404838562,knife,knife,0,0_knife_00_knife-0030-sketch-35.png,True,-0.02929832512999278,2.1628081798553467,0.2,-2.783276178183247,1.5572350025177002,0.125,-4.327173259606749,25.958826780319214,4.0,1.6739177489177488,6.0,39.91070641640975,6.0
subject-06,1,98,1.22979092597961,knife,knife,0,0_knife_00_knife-0030-sketch-35.png,True,1.9775181812660465,2.1628081798553467,0.2,-2.783276178183247,1.5572350025177002,0.125,-4.327173259606749,25.958826780319214,4.0,1.6739177489177488,6.0,39.91070641640975,6.0
subject-07,1,790,0.548872947692871,knife,knife,0,0_knife_00_knife-0030-sketch-35.png,True,-1.0152066862634221,2.1628081798553467,0.2,-2.783276178183247,1.5572350025177002,0.125,-4.327173259606749,25.958826780319214,4.0,1.6739177489177488,6.0,39.91070641640975,6.0
subject-03,1,283,0.821307182312012,cat,knife,0,0_knife_00_knife-0030-sketch-35.png,False,-0.6171573026423512,2.1628081798553467,0.2,-2.783276178183247,1.5572350025177002,0.125,-4.327173259606749,25.958826780319214,4.0,1.6739177489177488,6.0,39.91070641640975,6.0
subject-04,1,562,1.02693605422974,knife,knife,0,0_knife_00_knife-0030-sketch-35.png,True,1.4139989625763922,2.1628081798553467,0.2,-2.783276178183247,1.5572350025177002,0.125,-4.327173259606749,25.958826780319214,4.0,1.6739177489177488,6.0,39.91070641640975,6.0
subject-01,1,43,0.550930023193359,clock,clock,0,0_clock_00_clock-0137-sketch-4.png,True,-0.9344067127905747,0.716361403465271,1.0,-0.14314829006347826,1.4268832206726074,1.0,-0.6518883841736848,24.123203992843628,10.0,9.283333333333333,2.0,15.93604205325734,10.0
subject-05,1,118,0.861445188522339,clock,clock,0,0_clock_00_clock-0137-sketch-4.png,True,0.15471980880778669,0.716361403465271,1.0,-0.14314829006347826,1.4268832206726074,1.0,-0.6518883841736848,24.123203992843628,10.0,9.283333333333333,2.0,15.93604205325734,10.0
subject-02,1,476,0.689454078674316,clock,clock,0,0_clock_00_clock-0137-sketch-4.png,True,-0.23869675135464943,0.716361403465271,1.0,-0.14314829006347826,1.4268832206726074,1.0,-0.6518883841736848,24.123203992843628,10.0,9.283333333333333,2.0,15.93604205325734,10.0
subject-06,1,111,0.673353910446167,clock,clock,0,0_clock_00_clock-0137-sketch-4.png,True,-0.587035023317409,0.716361403465271,1.0,-0.14314829006347826,1.4268832206726074,1.0,-0.6518883841736848,24.123203992843628,10.0,9.283333333333333,2.0,15.93604205325734,10.0
subject-07,1,399,0.813411951065063,clock,clock,0,0_clock_00_clock-0137-sketch-4.png,True,0.16771240703336243,0.716361403465271,1.0,-0.14314829006347826,1.4268832206726074,1.0,-0.6518883841736848,24.123203992843628,10.0,9.283333333333333,2.0,15.93604205325734,10.0
subject-03,1,619,0.655025959014893,clock,clock,0,0_clock_00_clock-0137-sketch-4.png,True,-1.588144561270057,0.716361403465271,1.0,-0.14314829006347826,1.4268832206726074,1.0,-0.6518883841736848,24.123203992843628,10.0,9.283333333333333,2.0,15.93604205325734,10.0
subject-04,1,126,0.809903860092163,clock,clock,0,0_clock_00_clock-0137-sketch-4.png,True,0.12709591231958242,0.716361403465271,1.0,-0.14314829006347826,1.4268832206726074,1.0,-0.6518883841736848,24.123203992843628,10.0,9.283333333333333,2.0,15.93604205325734,10.0
subject-01,1,44,1.00850391387939,car,car,0,0_car_00_car-0030-sketch-35.png,True,1.5851305648979823,1.5852302312850952,0.3333333333333333,-2.526467571533416,1.747926950454712,0.0909090909090909,-4.745270138230094,25.994138598442078,10.0,1.692374292374292,9.0,46.53384073098895,6.0
subject-05,1,237,0.808694124221802,car,car,0,0_car_00_car-0030-sketch-35.png,True,-0.05972233757324377,1.5852302312850952,0.3333333333333333,-2.526467571533416,1.747926950454712,0.0909090909090909,-4.745270138230094,25.994138598442078,10.0,1.692374292374292,9.0,46.53384073098895,6.0
subject-02,1,364,0.726774930953979,car,car,0,0_car_00_car-0030-sketch-35.png,True,-0.005484731169262611,1.5852302312850952,0.3333333333333333,-2.526467571533416,1.747926950454712,0.0909090909090909,-4.745270138230094,25.994138598442078,10.0,1.692374292374292,9.0,46.53384073098895,6.0
subject-06,1,786,0.840640783309937,car,car,0,0_car_00_car-0030-sketch-35.png,True,0.18397063214970402,1.5852302312850952,0.3333333333333333,-2.526467571533416,1.747926950454712,0.0909090909090909,-4.745270138230094,25.994138598442078,10.0,1.692374292374292,9.0,46.53384073098895,6.0
subject-07,1,713,0.802978038787842,car,car,0,0_car_00_car-0030-sketch-35.png,True,0.12105586908178,1.5852302312850952,0.3333333333333333,-2.526467571533416,1.747926950454712,0.0909090909090909,-4.745270138230094,25.994138598442078,10.0,1.692374292374292,9.0,46.53384073098895,6.0
subject-03,1,623,0.914077997207642,car,car,0,0_car_00_car-0030-sketch-35.png,True,-0.0754287932531207,1.5852302312850952,0.3333333333333333,-2.526467571533416,1.747926950454712,0.0909090909090909,-4.745270138230094,25.994138598442078,10.0,1.692374292374292,9.0,46.53384073098895,6.0
subject-04,1,704,0.752317905426025,car,car,0,0_car_00_car-0030-sketch-35.png,True,-0.21436283303515738,1.5852302312850952,0.3333333333333333,-2.526467571533416,1.747926950454712,0.0909090909090909,-4.745270138230094,25.994138598442078,10.0,1.692374292374292,9.0,46.53384073098895,6.0
subject-01,1,45,0.696192979812622,bottle,bottle,0,0_bottle_00_bottle-0019-sketch-25.png,True,-0.13454587780989158,1.4314831495285034,0.5,-2.352420012777143,1.648132085800171,0.5,-1.1333397138349082,25.280665040016174,10.0,5.670634920634919,1.0,23.558621410149374,10.0
subject-05,1,569,0.782238006591797,bottle,bottle,0,0_bottle_00_bottle-0019-sketch-25.png,True,-0.16727100459472674,1.4314831495285034,0.5,-2.352420012777143,1.648132085800171,0.5,-1.1333397138349082,25.280665040016174,10.0,5.670634920634919,1.0,23.558621410149374,10.0
subject-02,1,77,1.06601500511169,bottle,bottle,0,0_bottle_00_bottle-0019-sketch-25.png,True,2.114372083174485,1.4314831495285034,0.5,-2.352420012777143,1.648132085800171,0.5,-1.1333397138349082,25.280665040016174,10.0,5.670634920634919,1.0,23.558621410149374,10.0
subject-06,1,296,0.699832916259766,bottle,bottle,0,0_bottle_00_bottle-0019-sketch-25.png,True,-0.46499637865904003,1.4314831495285034,0.5,-2.352420012777143,1.648132085800171,0.5,-1.1333397138349082,25.280665040016174,10.0,5.670634920634919,1.0,23.558621410149374,10.0
subject-07,1,90,0.832322120666504,bottle,bottle,0,0_bottle_00_bottle-0019-sketch-25.png,True,0.25227158505201075,1.4314831495285034,0.5,-2.352420012777143,1.648132085800171,0.5,-1.1333397138349082,25.280665040016174,10.0,5.670634920634919,1.0,23.558621410149374,10.0
subject-03,1,257,0.846522092819214,bottle,bottle,0,0_bottle_00_bottle-0019-sketch-25.png,True,-0.4699166440492705,1.4314831495285034,0.5,-2.352420012777143,1.648132085800171,0.5,-1.1333397138349082,25.280665040016174,10.0,5.670634920634919,1.0,23.558621410149374,10.0
subject-04,1,271,0.703504085540771,bottle,bottle,0,0_bottle_00_bottle-0019-sketch-25.png,True,-0.5038067745418211,1.4314831495285034,0.5,-2.352420012777143,1.648132085800171,0.5,-1.1333397138349082,25.280665040016174,10.0,5.670634920634919,1.0,23.558621410149374,10.0
subject-01,1,46,0.800153017044067,chair,chair,0,0_chair_00_chair-0014-sketch-20.png,True,0.4378888579260312,0.0015632060822099,1.0,-0.0001279793613418833,1.516951322555542,0.0909090909090909,-5.291068050583639,24.802722111111507,10.0,2.1857864357864356,9.0,42.926397188524554,10.0
subject-05,1,274,0.639452934265137,chair,chair,0,0_chair_00_chair-0014-sketch-20.png,True,-0.7477168740174586,0.0015632060822099,1.0,-0.0001279793613418833,1.516951322555542,0.0909090909090909,-5.291068050583639,24.802722111111507,10.0,2.1857864357864356,9.0,42.926397188524554,10.0
subject-02,1,356,0.647968053817749,chair,chair,0,0_chair_00_chair-0014-sketch-20.png,True,-0.49793626694130927,0.0015632060822099,1.0,-0.0001279793613418833,1.516951322555542,0.0909090909090909,-5.291068050583639,24.802722111111507,10.0,2.1857864357864356,9.0,42.926397188524554,10.0
subject-06,1,628,0.61843204498291,chair,chair,0,0_chair_00_chair-0014-sketch-20.png,True,-0.8401634855575916,0.0015632060822099,1.0,-0.0001279793613418833,1.516951322555542,0.0909090909090909,-5.291068050583639,24.802722111111507,10.0,2.1857864357864356,9.0,42.926397188524554,10.0
subject-07,1,648,0.575559139251709,chair,chair,0,0_chair_00_chair-0014-sketch-20.png,True,-0.8958760578119683,0.0015632060822099,1.0,-0.0001279793613418833,1.516951322555542,0.0909090909090909,-5.291068050583639,24.802722111111507,10.0,2.1857864357864356,9.0,42.926397188524554,10.0
subject-03,1,516,0.820268154144287,chair,chair,0,0_chair_00_chair-0014-sketch-20.png,True,-0.6232246329891674,0.0015632060822099,1.0,-0.0001279793613418833,1.516951322555542,0.0909090909090909,-5.291068050583639,24.802722111111507,10.0,2.1857864357864356,9.0,42.926397188524554,10.0
subject-04,1,133,0.686410903930664,chair,chair,0,0_chair_00_chair-0014-sketch-20.png,True,-0.6051616340825965,0.0015632060822099,1.0,-0.0001279793613418833,1.516951322555542,0.0909090909090909,-5.291068050583639,24.802722111111507,10.0,2.1857864357864356,9.0,42.926397188524554,10.0
subject-01,1,47,0.71805214881897,clock,clock,0,0_clock_00_clock-0073-sketch-28.png,True,-0.014182823247894378,1.8746230602264404,0.3333333333333333,-2.1662087645036876,1.7379207611083984,1.0,-0.8370556171850116,26.224151134490967,10.0,7.476190476190475,4.0,19.460634450766737,4.0
subject-05,1,269,0.624469041824341,clock,clock,0,0_clock_00_clock-0073-sketch-28.png,True,-0.8086289731144636,1.8746230602264404,0.3333333333333333,-2.1662087645036876,1.7379207611083984,1.0,-0.8370556171850116,26.224151134490967,10.0,7.476190476190475,4.0,19.460634450766737,4.0
subject-02,1,401,0.781988143920898,clock,clock,0,0_clock_00_clock-0073-sketch-28.png,True,0.3395337812819596,1.8746230602264404,0.3333333333333333,-2.1662087645036876,1.7379207611083984,1.0,-0.8370556171850116,26.224151134490967,10.0,7.476190476190475,4.0,19.460634450766737,4.0
subject-06,1,210,0.608187198638916,clock,clock,0,0_clock_00_clock-0073-sketch-28.png,True,-0.8873807856086445,1.8746230602264404,0.3333333333333333,-2.1662087645036876,1.7379207611083984,1.0,-0.8370556171850116,26.224151134490967,10.0,7.476190476190475,4.0,19.460634450766737,4.0
subject-07,1,527,0.653747081756592,clock,clock,0,0_clock_00_clock-0073-sketch-28.png,True,-0.5462489371393735,1.8746230602264404,0.3333333333333333,-2.1662087645036876,1.7379207611083984,1.0,-0.8370556171850116,26.224151134490967,10.0,7.476190476190475,4.0,19.460634450766737,4.0
subject-03,1,241,0.685209035873413,clock,clock,0,0_clock_00_clock-0073-sketch-28.png,True,-1.4118926521568083,1.8746230602264404,0.3333333333333333,-2.1662087645036876,1.7379207611083984,1.0,-0.8370556171850116,26.224151134490967,10.0,7.476190476190475,4.0,19.460634450766737,4.0
subject-04,1,467,0.532670021057129,clock,clock,0,0_clock_00_clock-0073-sketch-28.png,True,-1.5167757469349497,1.8746230602264404,0.3333333333333333,-2.1662087645036876,1.7379207611083984,1.0,-0.8370556171850116,26.224151134490967,10.0,7.476190476190475,4.0,19.460634450766737,4.0
subject-01,1,48,0.742405891418457,boat,boat,0,0_boat_00_boat-0128-sketch-31.png,True,0.11991609187736224,1.1824610233306885,0.0833333333333333,-4.818029308558091,1.7495383024215698,0.25,-2.971975682474938,25.498674750328064,10.0,1.501190476190476,0.0,36.112752696419314,6.0
subject-05,1,614,0.647573947906494,boat,boat,0,0_boat_00_boat-0128-sketch-31.png,True,-0.7147035572411279,1.1824610233306885,0.0833333333333333,-4.818029308558091,1.7495383024215698,0.25,-2.971975682474938,25.498674750328064,10.0,1.501190476190476,0.0,36.112752696419314,6.0
subject-02,1,13,0.593961954116821,boat,boat,0,0_boat_00_boat-0128-sketch-31.png,True,-0.8354117221963883,1.1824610233306885,0.0833333333333333,-4.818029308558091,1.7495383024215698,0.25,-2.971975682474938,25.498674750328064,10.0,1.501190476190476,0.0,36.112752696419314,6.0
subject-06,1,750,1.26751899719238,boat,boat,0,0_boat_00_boat-0128-sketch-31.png,True,2.151402454293254,1.1824610233306885,0.0833333333333333,-4.818029308558091,1.7495383024215698,0.25,-2.971975682474938,25.498674750328064,10.0,1.501190476190476,0.0,36.112752696419314,6.0
subject-07,1,455,0.512963056564331,boat,boat,0,0_boat_00_boat-0128-sketch-31.png,True,-1.1757822358522054,1.1824610233306885,0.0833333333333333,-4.818029308558091,1.7495383024215698,0.25,-2.971975682474938,25.498674750328064,10.0,1.501190476190476,0.0,36.112752696419314,6.0
subject-03,1,317,0.987029075622559,car,boat,0,0_boat_00_boat-0128-sketch-31.png,False,0.3505637887082505,1.1824610233306885,0.0833333333333333,-4.818029308558091,1.7495383024215698,0.25,-2.971975682474938,25.498674750328064,10.0,1.501190476190476,0.0,36.112752696419314,6.0
subject-04,1,111,0.705214977264404,boat,boat,0,0_boat_00_boat-0128-sketch-31.png,True,-0.49366195807092167,1.1824610233306885,0.0833333333333333,-4.818029308558091,1.7495383024215698,0.25,-2.971975682474938,25.498674750328064,10.0,1.501190476190476,0.0,36.112752696419314,6.0
subject-01,1,49,0.705662965774536,car,truck,0,0_truck_00_truck-0135-sketch-38.png,False,-0.08240133211814105,1.5882993936538696,0.1666666666666666,-3.5521806760282333,1.6116316318511963,0.0909090909090909,-5.230157802174626,25.907992959022522,10.0,0.2615342990342987,10.0,50.962353134676896,6.0
subject-05,1,736,0.768992900848389,truck,truck,0,0_truck_00_truck-0135-sketch-38.png,True,-0.22111463680047938,1.5882993936538696,0.1666666666666666,-3.5521806760282333,1.6116316318511963,0.0909090909090909,-5.230157802174626,25.907992959022522,10.0,0.2615342990342987,10.0,50.962353134676896,6.0
subject-02,1,400,0.989850044250488,truck,truck,0,0_truck_00_truck-0135-sketch-38.png,True,1.6384294584809695,1.5882993936538696,0.1666666666666666,-3.5521806760282333,1.6116316318511963,0.0909090909090909,-5.230157802174626,25.907992959022522,10.0,0.2615342990342987,10.0,50.962353134676896,6.0
subject-06,1,592,0.769223928451538,car,truck,0,0_truck_00_truck-0135-sketch-38.png,False,-0.14518130935583162,1.5882993936538696,0.1666666666666666,-3.5521806760282333,1.6116316318511963,0.0909090909090909,-5.230157802174626,25.907992959022522,10.0,0.2615342990342987,10.0,50.962353134676896,6.0
subject-07,1,625,0.961292028427124,truck,truck,0,0_truck_00_truck-0135-sketch-38.png,True,0.8289765866056665,1.5882993936538696,0.1666666666666666,-3.5521806760282333,1.6116316318511963,0.0909090909090909,-5.230157802174626,25.907992959022522,10.0,0.2615342990342987,10.0,50.962353134676896,6.0
subject-03,1,479,0.970103979110718,car,truck,0,0_truck_00_truck-0135-sketch-38.png,False,0.2517309034420846,1.5882993936538696,0.1666666666666666,-3.5521806760282333,1.6116316318511963,0.0909090909090909,-5.230157802174626,25.907992959022522,10.0,0.2615342990342987,10.0,50.962353134676896,6.0
subject-04,1,457,0.78851580619812,car,truck,0,0_truck_00_truck-0135-sketch-38.png,False,0.0002743967159886287,1.5882993936538696,0.1666666666666666,-3.5521806760282333,1.6116316318511963,0.0909090909090909,-5.230157802174626,25.907992959022522,10.0,0.2615342990342987,10.0,50.962353134676896,6.0
subject-01,1,50,0.585545063018799,car,car,0,0_car_00_car-0112-sketch-17.png,True,-0.7438060579365311,0.0613626651465892,1.0,-0.009958695804002077,1.6090896129608154,0.1,-4.603486398507176,23.35844950005412,10.0,2.871428571428571,9.0,42.688585509044636,6.0
subject-05,1,769,1.12307405471802,car,car,0,0_car_00_car-0112-sketch-17.png,True,1.2182861342679943,0.0613626651465892,1.0,-0.009958695804002077,1.6090896129608154,0.1,-4.603486398507176,23.35844950005412,10.0,2.871428571428571,9.0,42.688585509044636,6.0
subject-02,1,194,0.655440092086792,car,car,0,0_car_00_car-0112-sketch-17.png,True,-0.45124469820198565,0.0613626651465892,1.0,-0.009958695804002077,1.6090896129608154,0.1,-4.603486398507176,23.35844950005412,10.0,2.871428571428571,9.0,42.688585509044636,6.0
subject-06,1,500,0.568573951721191,car,car,0,0_car_00_car-0112-sketch-17.png,True,-1.0699536132437997,0.0613626651465892,1.0,-0.009958695804002077,1.6090896129608154,0.1,-4.603486398507176,23.35844950005412,10.0,2.871428571428571,9.0,42.688585509044636,6.0
subject-07,1,627,0.602832078933716,car,car,0,0_car_00_car-0112-sketch-17.png,True,-0.773921712067393,0.0613626651465892,1.0,-0.009958695804002077,1.6090896129608154,0.1,-4.603486398507176,23.35844950005412,10.0,2.871428571428571,9.0,42.688585509044636,6.0
subject-03,1,231,0.875149965286255,car,car,0,0_car_00_car-0112-sketch-17.png,True,-0.30274623926191685,0.0613626651465892,1.0,-0.009958695804002077,1.6090896129608154,0.1,-4.603486398507176,23.35844950005412,10.0,2.871428571428571,9.0,42.688585509044636,6.0
subject-04,1,161,0.7798011302948,car,car,0,0_car_00_car-0112-sketch-17.png,True,-0.05139970189664774,0.0613626651465892,1.0,-0.009958695804002077,1.6090896129608154,0.1,-4.603486398507176,23.35844950005412,10.0,2.871428571428571,9.0,42.688585509044636,6.0
subject-01,1,51,0.665243864059448,boat,boat,0,0_boat_00_boat-0197-sketch-48.png,True,-0.3049608696589893,1.73238205909729,0.125,-4.045071287141923,1.8853553533554075,0.25,-2.911757270833096,26.325754761695862,10.0,1.3636655011655012,0.0,37.04947037910251,6.0
subject-05,1,15,0.758634090423584,boat,boat,0,0_boat_00_boat-0197-sketch-48.png,True,-0.26322498226751423,1.73238205909729,0.125,-4.045071287141923,1.8853553533554075,0.25,-2.911757270833096,26.325754761695862,10.0,1.3636655011655012,0.0,37.04947037910251,6.0
subject-02,1,273,0.469092130661011,boat,boat,0,0_boat_00_boat-0197-sketch-48.png,True,-1.6157032217072598,1.73238205909729,0.125,-4.045071287141923,1.8853553533554075,0.25,-2.911757270833096,26.325754761695862,10.0,1.3636655011655012,0.0,37.04947037910251,6.0
subject-06,1,204,0.70514702796936,boat,boat,0,0_boat_00_boat-0197-sketch-48.png,True,-0.44050425855576336,1.73238205909729,0.125,-4.045071287141923,1.8853553533554075,0.25,-2.911757270833096,26.325754761695862,10.0,1.3636655011655012,0.0,37.04947037910251,6.0
subject-07,1,532,0.746716976165771,boat,boat,0,0_boat_00_boat-0197-sketch-48.png,True,-0.13052247791599092,1.73238205909729,0.125,-4.045071287141923,1.8853553533554075,0.25,-2.911757270833096,26.325754761695862,10.0,1.3636655011655012,0.0,37.04947037910251,6.0
subject-03,1,243,0.734961032867432,boat,boat,0,0_boat_00_boat-0197-sketch-48.png,True,-1.1213694396461786,1.73238205909729,0.125,-4.045071287141923,1.8853553533554075,0.25,-2.911757270833096,26.325754761695862,10.0,1.3636655011655012,0.0,37.04947037910251,6.0
subject-04,1,208,0.751015901565552,boat,boat,0,0_boat_00_boat-0197-sketch-48.png,True,-0.22208312884724626,1.73238205909729,0.125,-4.045071287141923,1.8853553533554075,0.25,-2.911757270833096,26.325754761695862,10.0,1.3636655011655012,0.0,37.04947037910251,6.0
subject-01,1,52,0.707170009613037,knife,knife,0,0_knife_00_knife-0039-sketch-43.png,True,-0.07410310267912908,7.652239219169132e-06,1.0,-4.172326004692437e-07,1.327375411987305,0.2,-3.862014185911851,21.881804727510826,10.0,4.053210678210679,8.0,33.29126107473007,6.0
subject-05,1,325,1.02636003494263,knife,knife,0,0_knife_00_knife-0039-sketch-43.png,True,0.8251270149066636,7.652239219169132e-06,1.0,-4.172326004692437e-07,1.327375411987305,0.2,-3.862014185911851,21.881804727510826,10.0,4.053210678210679,8.0,33.29126107473007,6.0
