subject_id,Session,trial,rt,object_response,category,condition,item_id,response_correct,rt_zscore,output_entropy,output_rank_correct,output_logprob_correct,midpoint_entropy,midpoint_rank_correct,midpoint_logprob_correct,auc_entropy,layer_biggest_change_entropy,auc_rank_correct,layer_biggest_change_rank_correct,auc_logprob_correct,layer_biggest_change_logprob_correct
subject-02,1,1,1.12876987457275,bottle,bottle,cr,cr_bottle_40_n03983396_2053.png,True,1.8905788900109297,0.1028564572334289,1.0,-0.013976759004669945,1.825692653656006,0.5,-1.3482614392167673,25.88451248407364,10.0,9.25,1.0,18.119501892601882,10.0
subject-01,1,912,0.646662950515747,bottle,bottle,cr,cr_bottle_40_n03983396_2053.png,True,-0.8036250271384756,0.1028564572334289,1.0,-0.013976759004669945,1.825692653656006,0.5,-1.3482614392167673,25.88451248407364,10.0,9.25,1.0,18.119501892601882,10.0
subject-04,1,499,0.891036033630371,bottle,bottle,cr,cr_bottle_40_n03983396_2053.png,True,0.32245425296972297,0.1028564572334289,1.0,-0.013976759004669945,1.825692653656006,0.5,-1.3482614392167673,25.88451248407364,10.0,9.25,1.0,18.119501892601882,10.0
subject-03,1,213,1.12436413764954,bottle,bottle,cr,cr_bottle_40_n03983396_2053.png,True,1.4066753730139858,0.1028564572334289,1.0,-0.013976759004669945,1.825692653656006,0.5,-1.3482614392167673,25.88451248407364,10.0,9.25,1.0,18.119501892601882,10.0
subject-02,1,2,1.07644009590149,cat,clock,bw,bw_clock_40_n04548280_7384.png,False,1.6230943386726888,0.6257498264312744,1.0,-0.15116295462236504,1.7572585344314575,1.0,-1.025191442844227,25.999558806419373,10.0,8.416666666666666,2.0,18.795929705416555,10.0
subject-01,1,257,,na,clock,bw,bw_clock_40_n04548280_7384.png,False,,0.6257498264312744,1.0,-0.15116295462236504,1.7572585344314575,1.0,-1.025191442844227,25.999558806419373,10.0,8.416666666666666,2.0,18.795929705416555,10.0
subject-04,1,941,1.30066299438477,chair,clock,bw,bw_clock_40_n04548280_7384.png,False,2.301188241069393,0.6257498264312744,1.0,-0.15116295462236504,1.7572585344314575,1.0,-1.025191442844227,25.999558806419373,10.0,8.416666666666666,2.0,18.795929705416555,10.0
subject-03,1,61,0.901612043380737,oven,clock,bw,bw_clock_40_n04548280_7384.png,False,0.3646153962525617,0.6257498264312744,1.0,-0.15116295462236504,1.7572585344314575,1.0,-1.025191442844227,25.999558806419373,10.0,8.416666666666666,2.0,18.795929705416555,10.0
subject-02,1,3,0.580382108688354,airplane,airplane,cr,cr_airplane_40_n02690373_1732.png,True,-0.9125144775046652,0.0015500269364565,1.0,-0.00013394060645297132,1.988563060760498,1.0,-1.2896554257611308,25.68063730816357,10.0,9.083333333333332,0.0,18.57301967097092,10.0
subject-01,1,720,0.677892923355103,airplane,airplane,cr,cr_airplane_40_n02690373_1732.png,True,-0.6222136140432656,0.0015500269364565,1.0,-0.00013394060645297132,1.988563060760498,1.0,-1.2896554257611308,25.68063730816357,10.0,9.083333333333332,0.0,18.57301967097092,10.0
subject-04,1,615,0.690331935882568,airplane,airplane,cr,cr_airplane_40_n02690373_1732.png,True,-0.6470620577561481,0.0015500269364565,1.0,-0.00013394060645297132,1.988563060760498,1.0,-1.2896554257611308,25.68063730816357,10.0,9.083333333333332,0.0,18.57301967097092,10.0
subject-03,1,855,0.853708982467651,airplane,airplane,cr,cr_airplane_40_n02690373_1732.png,True,0.14051935484047176,0.0015500269364565,1.0,-0.00013394060645297132,1.988563060760498,1.0,-1.2896554257611308,25.68063730816357,10.0,9.083333333333332,0.0,18.57301967097092,10.0
subject-02,1,4,0.682165861129761,elephant,elephant,cr,cr_elephant_40_n02504013_3485.png,True,-0.3922451003619551,0.0001059054193319,1.0,-7.0333728177157245e-06,2.0507326126098633,0.1428571428571428,-3.3938929243403138,26.076688337212545,10.0,5.484126984126984,6.0,27.74252792652985,5.0
subject-01,1,48,0.749383926391602,elephant,elephant,cr,cr_elephant_40_n02504013_3485.png,True,-0.20693038753653809,0.0001059054193319,1.0,-7.0333728177157245e-06,2.0507326126098633,0.1428571428571428,-3.3938929243403138,26.076688337212545,10.0,5.484126984126984,6.0,27.74252792652985,5.0
subject-04,1,380,1.19957900047302,elephant,elephant,cr,cr_elephant_40_n02504013_3485.png,True,1.812894369890427,0.0001059054193319,1.0,-7.0333728177157245e-06,2.0507326126098633,0.1428571428571428,-3.3938929243403138,26.076688337212545,10.0,5.484126984126984,6.0,27.74252792652985,5.0
subject-03,1,1022,1.13903498649597,elephant,elephant,cr,cr_elephant_40_n02504013_3485.png,True,1.47530729523301,0.0001059054193319,1.0,-7.0333728177157245e-06,2.0507326126098633,0.1428571428571428,-3.3938929243403138,26.076688337212545,10.0,5.484126984126984,6.0,27.74252792652985,5.0
subject-02,1,5,0.763950109481812,boat,boat,bw,bw_boat_40_n04273569_517.png,True,0.02579647238022333,0.0136164035648107,1.0,-0.0014179263982773151,2.1179654598236084,0.25,-2.3696522970928093,25.835764011368155,10.0,2.903113553113553,10.0,28.513871264210714,10.0
subject-01,1,730,1.07922101020813,boat,boat,bw,bw_boat_40_n04273569_517.png,True,1.7090562761135166,0.0136164035648107,1.0,-0.0014179263982773151,2.1179654598236084,0.25,-2.3696522970928093,25.835764011368155,10.0,2.903113553113553,10.0,28.513871264210714,10.0
subject-04,1,476,0.799542903900146,boat,boat,bw,bw_boat_40_n04273569_517.png,True,-0.11951022403001088,0.0136164035648107,1.0,-0.0014179263982773151,2.1179654598236084,0.25,-2.3696522970928093,25.835764011368155,10.0,2.903113553113553,10.0,28.513871264210714,10.0
subject-03,1,2,0.760459899902344,boat,boat,bw,bw_boat_40_n04273569_517.png,True,-0.2957106035354441,0.0136164035648107,1.0,-0.0014179263982773151,2.1179654598236084,0.25,-2.3696522970928093,25.835764011368155,10.0,2.903113553113553,10.0,28.513871264210714,10.0
subject-02,1,6,0.690128087997437,car,car,bw,bw_car_40_n02814533_51154.png,True,-0.3515460426660873,0.2419861555099487,1.0,-0.06684735968711081,1.8895747661590576,0.0909090909090909,-4.052225387134269,24.939536690711975,10.0,3.579279054279054,8.0,39.83903554939951,6.0
subject-01,1,402,0.536123037338257,car,car,bw,bw_car_40_n02814533_51154.png,True,-1.4457389974612174,0.2419861555099487,1.0,-0.06684735968711081,1.8895747661590576,0.0909090909090909,-4.052225387134269,24.939536690711975,10.0,3.579279054279054,8.0,39.83903554939951,6.0
subject-04,1,289,0.709378004074097,car,car,bw,bw_car_40_n02814533_51154.png,True,-0.5550585861076143,0.2419861555099487,1.0,-0.06684735968711081,1.8895747661590576,0.0909090909090909,-4.052225387134269,24.939536690711975,10.0,3.579279054279054,8.0,39.83903554939951,6.0
subject-03,1,935,0.777241945266724,car,car,bw,bw_car_40_n02814533_51154.png,True,-0.21720226061808548,0.2419861555099487,1.0,-0.06684735968711081,1.8895747661590576,0.0909090909090909,-4.052225387134269,24.939536690711975,10.0,3.579279054279054,8.0,39.83903554939951,6.0
subject-02,1,7,0.785551071166992,truck,truck,bw,bw_truck_40_n03417042_2794.png,True,0.1362101544470308,0.0014535847585648,1.0,-0.00011838183137653943,1.9341228008270264,0.0833333333333333,-4.189269325131621,25.579432434169576,10.0,2.566183816183816,9.0,40.89800118442589,10.0
subject-01,1,605,0.79044508934021,truck,truck,bw,bw_truck_40_n03417042_2794.png,True,0.031589307378228564,0.0014535847585648,1.0,-0.00011838183137653943,1.9341228008270264,0.0833333333333333,-4.189269325131621,25.579432434169576,10.0,2.566183816183816,9.0,40.89800118442589,10.0
subject-04,1,143,0.932835102081299,truck,truck,bw,bw_truck_40_n03417042_2794.png,True,0.5243678117414224,0.0014535847585648,1.0,-0.00011838183137653943,1.9341228008270264,0.0833333333333333,-4.189269325131621,25.579432434169576,10.0,2.566183816183816,9.0,40.89800118442589,10.0
subject-03,1,1010,0.920892953872681,truck,truck,bw,bw_truck_40_n03417042_2794.png,True,0.45481371831605133,0.0014535847585648,1.0,-0.00011838183137653943,1.9341228008270264,0.0833333333333333,-4.189269325131621,25.579432434169576,10.0,2.566183816183816,9.0,40.89800118442589,10.0
subject-02,1,8,0.679475069046021,elephant,elephant,bw,bw_elephant_40_n02504458_7133.png,True,-0.4059991297413872,0.0002627961803227,1.0,-1.8537216338279622e-05,2.1272661685943604,0.1428571428571428,-3.3224323841703503,25.356513320701197,10.0,5.1258658008658005,6.0,30.486323768337638,9.0
subject-01,1,942,0.768941879272461,elephant,elephant,bw,bw_elephant_40_n02504458_7133.png,True,-0.09332043060135513,0.0002627961803227,1.0,-1.8537216338279622e-05,2.1272661685943604,0.1428571428571428,-3.3224323841703503,25.356513320701197,10.0,5.1258658008658005,6.0,30.486323768337638,9.0
subject-04,1,356,1.16617393493652,elephant,elephant,bw,bw_elephant_40_n02504458_7133.png,True,1.6515286765043393,0.0002627961803227,1.0,-1.8537216338279622e-05,2.1272661685943604,0.1428571428571428,-3.3224323841703503,25.356513320701197,10.0,5.1258658008658005,6.0,30.486323768337638,9.0
subject-03,1,621,1.05019092559814,elephant,elephant,bw,bw_elephant_40_n02504458_7133.png,True,1.0596845360464566,0.0002627961803227,1.0,-1.8537216338279622e-05,2.1272661685943604,0.1428571428571428,-3.3224323841703503,25.356513320701197,10.0,5.1258658008658005,6.0,30.486323768337638,9.0
subject-02,1,9,0.651214122772217,boat,boat,cr,cr_boat_40_n03662601_8216.png,True,-0.5504554360049994,0.0002632803516462,1.0,-1.907366822926733e-05,1.9461106061935425,0.25,-2.2234670652520063,25.849878019769676,10.0,3.694444444444444,9.0,24.12389039421929,9.0
subject-01,1,822,0.687088012695312,boat,boat,cr,cr_boat_40_n03662601_8216.png,True,-0.5688003703198552,0.0002632803516462,1.0,-1.907366822926733e-05,1.9461106061935425,0.25,-2.2234670652520063,25.849878019769676,10.0,3.694444444444444,9.0,24.12389039421929,9.0
subject-04,1,319,0.779678821563721,boat,boat,cr,cr_boat_40_n03662601_8216.png,True,-0.2154651748201301,0.0002632803516462,1.0,-1.907366822926733e-05,1.9461106061935425,0.25,-2.2234670652520063,25.849878019769676,10.0,3.694444444444444,9.0,24.12389039421929,9.0
subject-03,1,1115,0.59033203125,boat,boat,cr,cr_boat_40_n03662601_8216.png,True,-1.0915883861272337,0.0002632803516462,1.0,-1.907366822926733e-05,1.9461106061935425,0.25,-2.2234670652520063,25.849878019769676,10.0,3.694444444444444,9.0,24.12389039421929,9.0
subject-02,1,10,0.986922979354858,bottle,knife,cr,cr_knife_40_n03041632_94620.png,False,1.1655260789827355,1.3092468976974487,0.5,-1.4258298077107292,1.992958664894104,0.0833333333333333,-4.410619150110293,27.308159947395325,10.0,3.7080086580086578,7.0,38.42417374392944,5.0
subject-01,1,412,1.23845481872559,knife,knife,cr,cr_knife_40_n03041632_94620.png,True,2.634027628611181,1.3092468976974487,0.5,-1.4258298077107292,1.992958664894104,0.0833333333333333,-4.410619150110293,27.308159947395325,10.0,3.7080086580086578,7.0,38.42417374392944,5.0
subject-04,1,700,,na,knife,cr,cr_knife_40_n03041632_94620.png,False,,1.3092468976974487,0.5,-1.4258298077107292,1.992958664894104,0.0833333333333333,-4.410619150110293,27.308159947395325,10.0,3.7080086580086578,7.0,38.42417374392944,5.0
subject-03,1,745,,na,knife,cr,cr_knife_40_n03041632_94620.png,False,,1.3092468976974487,0.5,-1.4258298077107292,1.992958664894104,0.0833333333333333,-4.410619150110293,27.308159947395325,10.0,3.7080086580086578,7.0,38.42417374392944,5.0
subject-02,1,11,0.886938095092773,elephant,elephant,bw,bw_elephant_40_n02504013_1560.png,True,0.6544516470524887,0.0038178167305886,1.0,-0.00034695921598095554,2.2236759662628174,0.1666666666666666,-2.9471502818237605,26.739971896167845,10.0,5.331818181818182,6.0,29.45240316247962,10.0
subject-01,1,840,0.767937898635864,elephant,elephant,bw,bw_elephant_40_n02504013_1560.png,True,-0.09915244162942005,0.0038178167305886,1.0,-0.00034695921598095554,2.2236759662628174,0.1666666666666666,-2.9471502818237605,26.739971896167845,10.0,5.331818181818182,6.0,29.45240316247962,10.0
subject-04,1,540,0.675105094909668,elephant,elephant,bw,bw_elephant_40_n02504013_1560.png,True,-0.7206164637185306,0.0038178167305886,1.0,-0.00034695921598095554,2.2236759662628174,0.1666666666666666,-2.9471502818237605,26.739971896167845,10.0,5.331818181818182,6.0,29.45240316247962,10.0
subject-03,1,876,0.793887138366699,elephant,elephant,bw,bw_elephant_40_n02504013_1560.png,True,-0.1393341283705017,0.0038178167305886,1.0,-0.00034695921598095554,2.2236759662628174,0.1666666666666666,-2.9471502818237605,26.739971896167845,10.0,5.331818181818182,6.0,29.45240316247962,10.0
subject-02,1,12,0.970747947692871,chair,chair,bw,bw_chair_40_n03376595_2924.png,True,1.0828471302684994,0.0036080155987292,1.0,-0.0003238248560296663,1.7239010334014893,0.0666666666666666,-5.343379697011684,24.959981468738988,10.0,1.203546453546453,10.0,45.75650584806479,10.0
subject-01,1,638,0.794033050537109,oven,chair,bw,bw_chair_40_n03376595_2924.png,False,0.052431371961774484,0.0036080155987292,1.0,-0.0003238248560296663,1.7239010334014893,0.0666666666666666,-5.343379697011684,24.959981468738988,10.0,1.203546453546453,10.0,45.75650584806479,10.0
subject-04,1,550,0.801062107086182,chair,chair,bw,bw_chair_40_n03376595_2924.png,True,-0.11217159823862656,0.0036080155987292,1.0,-0.0003238248560296663,1.7239010334014893,0.0666666666666666,-5.343379697011684,24.959981468738988,10.0,1.203546453546453,10.0,45.75650584806479,10.0
subject-03,1,1147,0.699851989746094,chair,chair,bw,bw_chair_40_n03376595_2924.png,True,-0.5792413943740095,0.0036080155987292,1.0,-0.0003238248560296663,1.7239010334014893,0.0666666666666666,-5.343379697011684,24.959981468738988,10.0,1.203546453546453,10.0,45.75650584806479,10.0
subject-02,1,13,0.566282987594604,bear,bear,cr,cr_bear_40_n02134418_3846.png,True,-0.9845823741360813,0.0002591073862276,1.0,-1.8716033603447934e-05,2.2065649032592773,0.2,-2.8030136127854743,26.232365316187497,10.0,4.1,8.0,26.240008254748744,10.0
subject-01,1,330,0.719483137130737,bear,bear,cr,cr_bear_40_n02134418_3846.png,True,-0.38062072215123377,0.0002591073862276,1.0,-1.8716033603447934e-05,2.2065649032592773,0.2,-2.8030136127854743,26.232365316187497,10.0,4.1,8.0,26.240008254748744,10.0
subject-04,1,848,0.738311052322388,bear,bear,cr,cr_bear_40_n02134418_3846.png,True,-0.4152953101680038,0.0002591073862276,1.0,-1.8716033603447934e-05,2.2065649032592773,0.2,-2.8030136127854743,26.232365316187497,10.0,4.1,8.0,26.240008254748744,10.0
subject-03,1,1192,0.729550123214722,bear,bear,cr,cr_bear_40_n02134418_3846.png,True,-0.4403101022855451,0.0002591073862276,1.0,-1.8716033603447934e-05,2.2065649032592773,0.2,-2.8030136127854743,26.232365316187497,10.0,4.1,8.0,26.240008254748744,10.0
subject-02,1,14,0.928205966949463,chair,chair,bw,bw_chair_40_n03376595_10266.png,True,0.8653930740670311,0.001877722563222,1.0,-0.00016064742077550814,1.9451488256454468,0.0666666666666666,-4.866073754856101,25.686523494543508,10.0,2.409523809523809,9.0,43.75269968531938,10.0
subject-01,1,1056,0.586955070495605,chair,chair,bw,bw_chair_40_n03376595_10266.png,True,-1.1504614122704888,0.001877722563222,1.0,-0.00016064742077550814,1.9451488256454468,0.0666666666666666,-4.866073754856101,25.686523494543508,10.0,2.409523809523809,9.0,43.75269968531938,10.0
subject-04,1,243,0.82211709022522,chair,chair,bw,bw_chair_40_n03376595_10266.png,True,-0.010463911128989683,0.001877722563222,1.0,-0.00016064742077550814,1.9451488256454468,0.0666666666666666,-4.866073754856101,25.686523494543508,10.0,2.409523809523809,9.0,43.75269968531938,10.0
subject-03,1,247,0.511292934417725,chair,chair,bw,bw_chair_40_n03376595_10266.png,True,-1.4613423930587843,0.001877722563222,1.0,-0.00016064742077550814,1.9451488256454468,0.0666666666666666,-4.866073754856101,25.686523494543508,10.0,2.409523809523809,9.0,43.75269968531938,10.0
subject-02,1,15,0.564054012298584,boat,boat,bw,bw_boat_40_n04273569_12917.png,True,-0.9959758191713723,0.0404428951442241,1.0,-0.0056513793539578975,1.987049579620361,0.25,-2.4729969318375526,25.512849520891905,10.0,3.4004329004329,10.0,27.034685305990052,10.0
subject-01,1,550,0.990653991699219,boat,boat,bw,bw_boat_40_n04273569_12917.png,True,1.1945803889912756,0.0404428951442241,1.0,-0.0056513793539578975,1.987049579620361,0.25,-2.4729969318375526,25.512849520891905,10.0,3.4004329004329,10.0,27.034685305990052,10.0
subject-04,1,807,0.759935855865479,boat,boat,bw,bw_boat_40_n04273569_12917.png,True,-0.31083506253711674,0.0404428951442241,1.0,-0.0056513793539578975,1.987049579620361,0.25,-2.4729969318375526,25.512849520891905,10.0,3.4004329004329,10.0,27.034685305990052,10.0
subject-03,1,508,0.832657814025879,boat,boat,bw,bw_boat_40_n04273569_12917.png,True,0.04203956200511411,0.0404428951442241,1.0,-0.0056513793539578975,1.987049579620361,0.25,-2.4729969318375526,25.512849520891905,10.0,3.4004329004329,10.0,27.034685305990052,10.0
subject-02,1,16,0.667882919311523,boat,boat,bw,bw_boat_40_n02951358_5952.png,True,-0.46525259974470745,0.6979126930236816,1.0,-0.21041539891663144,2.0121357440948486,0.25,-2.6551812928676455,26.595377445220947,10.0,2.2416666666666663,10.0,30.662079649242074,10.0
subject-01,1,176,0.707885980606079,boat,boat,bw,bw_boat_40_n02951358_5952.png,True,-0.44798730501208267,0.6979126930236816,1.0,-0.21041539891663144,2.0121357440948486,0.25,-2.6551812928676455,26.595377445220947,10.0,2.2416666666666663,10.0,30.662079649242074,10.0
subject-04,1,1058,0.744626998901367,boat,boat,bw,bw_boat_40_n02951358_5952.png,True,-0.38478565294272987,0.6979126930236816,1.0,-0.21041539891663144,2.0121357440948486,0.25,-2.6551812928676455,26.595377445220947,10.0,2.2416666666666663,10.0,30.662079649242074,10.0
subject-03,1,1127,0.603756189346313,boat,boat,bw,bw_boat_40_n02951358_5952.png,True,-1.0287886269608626,0.6979126930236816,1.0,-0.21041539891663144,2.0121357440948486,0.25,-2.6551812928676455,26.595377445220947,10.0,2.2416666666666663,10.0,30.662079649242074,10.0
subject-02,1,17,0.609638929367065,elephant,elephant,bw,bw_elephant_40_n02504013_22388.png,True,-0.7629677423275425,0.0030025385785847,1.0,-0.00029914084564445055,2.133392095565796,0.1111111111111111,-3.7206315672036765,26.301584138767794,10.0,4.403968253968253,7.0,32.4413907344751,10.0
subject-01,1,189,1.01968002319336,elephant,elephant,bw,bw_elephant_40_n02504013_22388.png,True,1.3631893537503619,0.0030025385785847,1.0,-0.00029914084564445055,2.133392095565796,0.1111111111111111,-3.7206315672036765,26.301584138767794,10.0,4.403968253968253,7.0,32.4413907344751,10.0
subject-04,1,519,1.00703001022339,elephant,elephant,bw,bw_elephant_40_n02504013_22388.png,True,0.8827719221893984,0.0030025385785847,1.0,-0.00029914084564445055,2.133392095565796,0.1111111111111111,-3.7206315672036765,26.301584138767794,10.0,4.403968253968253,7.0,32.4413907344751,10.0
subject-03,1,697,1.15607786178589,elephant,elephant,bw,bw_elephant_40_n02504013_22388.png,True,1.5550358306115852,0.0030025385785847,1.0,-0.00029914084564445055,2.133392095565796,0.1111111111111111,-3.7206315672036765,26.301584138767794,10.0,4.403968253968253,7.0,32.4413907344751,10.0
subject-02,1,18,0.82570481300354,oven,oven,cr,cr_oven_40_n04111531_2342.png,True,0.34145668696484177,0.0004206963349133,1.0,-3.171017378264321e-05,1.7864881753921509,0.0625,-6.332774341027323,25.489463574485853,10.0,3.1208333333333336,8.0,52.04052728610439,6.0
subject-01,1,613,0.604903221130371,oven,oven,cr,cr_oven_40_n04111531_2342.png,True,-1.046202616214305,0.0004206963349133,1.0,-3.171017378264321e-05,1.7864881753921509,0.0625,-6.332774341027323,25.489463574485853,10.0,3.1208333333333336,8.0,52.04052728610439,6.0
subject-04,1,1154,0.560951948165894,oven,oven,cr,cr_oven_40_n04111531_2342.png,True,-1.2720418652459102,0.0004206963349133,1.0,-3.171017378264321e-05,1.7864881753921509,0.0625,-6.332774341027323,25.489463574485853,10.0,3.1208333333333336,8.0,52.04052728610439,6.0
subject-03,1,518,0.486863136291504,oven,oven,cr,cr_oven_40_n04111531_2342.png,True,-1.5756278050602353,0.0004206963349133,1.0,-3.171017378264321e-05,1.7864881753921509,0.0625,-6.332774341027323,25.489463574485853,10.0,3.1208333333333336,8.0,52.04052728610439,6.0
subject-02,1,19,0.775241136550903,keyboard,keyboard,bw,bw_keyboard_40_n03085013_6561.png,True,0.0835107487714295,0.1229068487882614,1.0,-0.025274991369446217,1.616246223449707,0.0833333333333333,-4.619890284273353,24.004272863268852,10.0,3.4016233766233763,8.0,38.084170970015386,6.0
subject-01,1,787,0.644279003143311,keyboard,keyboard,bw,bw_keyboard_40_n03085013_6561.png,True,-0.8174731103181451,0.1229068487882614,1.0,-0.025274991369446217,1.616246223449707,0.0833333333333333,-4.619890284273353,24.004272863268852,10.0,3.4016233766233763,8.0,38.084170970015386,6.0
subject-04,1,27,0.734735012054443,keyboard,keyboard,bw,bw_keyboard_40_n03085013_6561.png,True,-0.4325696429120305,0.1229068487882614,1.0,-0.025274991369446217,1.616246223449707,0.0833333333333333,-4.619890284273353,24.004272863268852,10.0,3.4016233766233763,8.0,38.084170970015386,6.0
subject-03,1,1176,0.678544044494629,keyboard,keyboard,bw,bw_keyboard_40_n03085013_6561.png,True,-0.6789224187273909,0.1229068487882614,1.0,-0.025274991369446217,1.616246223449707,0.0833333333333333,-4.619890284273353,24.004272863268852,10.0,3.4016233766233763,8.0,38.084170970015386,6.0
subject-02,1,20,0.47902512550354,boat,boat,cr,cr_boat_40_n02951358_30622.png,True,-1.430602416353095,0.0032409755513072,1.0,-0.0002966963270498296,1.9516916275024416,0.5,-1.895887782545486,25.754749688319862,10.0,4.625,9.0,23.36414278511907,10.0
subject-01,1,792,0.561312198638916,boat,boat,cr,cr_boat_40_n02951358_30622.png,True,-1.2994179817580873,0.0032409755513072,1.0,-0.0002966963270498296,1.9516916275024416,0.5,-1.895887782545486,25.754749688319862,10.0,4.625,9.0,23.36414278511907,10.0
subject-04,1,887,0.6092209815979,boat,boat,cr,cr_boat_40_n02951358_30622.png,True,-1.038874651718929,0.0032409755513072,1.0,-0.0002966963270498296,1.9516916275024416,0.5,-1.895887782545486,25.754749688319862,10.0,4.625,9.0,23.36414278511907,10.0
subject-03,1,503,1.30952191352844,boat,boat,cr,cr_boat_40_n02951358_30622.png,True,2.272864794320747,0.0032409755513072,1.0,-0.0002966963270498296,1.9516916275024416,0.5,-1.895887782545486,25.754749688319862,10.0,4.625,9.0,23.36414278511907,10.0
subject-02,1,21,0.912889003753662,clock,clock,bw,bw_clock_40_n03196217_5888.png,True,0.7871001568729571,0.000438503047917,1.0,-3.2842698586761255e-05,2.013071298599243,1.0,-1.219622892254983,25.088007739803288,10.0,8.833333333333332,4.0,17.1055563305032,10.0
subject-01,1,291,0.580349922180176,clock,clock,bw,bw_clock_40_n03196217_5888.png,True,-1.1888299787681003,0.000438503047917,1.0,-3.2842698586761255e-05,2.013071298599243,1.0,-1.219622892254983,25.088007739803288,10.0,8.833333333333332,4.0,17.1055563305032,10.0
subject-04,1,652,0.659353971481323,clock,clock,bw,bw_clock_40_n03196217_5888.png,True,-0.7967034557002576,0.000438503047917,1.0,-3.2842698586761255e-05,2.013071298599243,1.0,-1.219622892254983,25.088007739803288,10.0,8.833333333333332,4.0,17.1055563305032,10.0
subject-03,1,17,0.822034120559692,oven,clock,bw,bw_clock_40_n03196217_5888.png,False,-0.007659300772517438,0.000438503047917,1.0,-3.2842698586761255e-05,2.013071298599243,1.0,-1.219622892254983,25.088007739803288,10.0,8.833333333333332,4.0,17.1055563305032,10.0
subject-02,1,22,0.644771099090576,truck,truck,cr,cr_truck_40_n03417042_7005.png,True,-0.5833890608454946,0.0415402576327323,1.0,-0.005597312728517572,1.8753509521484375,0.0769230769230769,-4.603621501142843,25.48266803473234,10.0,2.0959207459207456,10.0,41.919917540233314,10.0
subject-01,1,1180,0.728787899017334,truck,truck,cr,cr_truck_40_n03417042_7005.png,True,-0.3265704028939973,0.0415402576327323,1.0,-0.005597312728517572,1.8753509521484375,0.0769230769230769,-4.603621501142843,25.48266803473234,10.0,2.0959207459207456,10.0,41.919917540233314,10.0
subject-04,1,160,0.771272897720337,truck,truck,cr,cr_truck_40_n03417042_7005.png,True,-0.256070625153889,0.0415402576327323,1.0,-0.005597312728517572,1.8753509521484375,0.0769230769230769,-4.603621501142843,25.48266803473234,10.0,2.0959207459207456,10.0,41.919917540233314,10.0
subject-03,1,373,0.740731954574585,truck,truck,cr,cr_truck_40_n03417042_7005.png,True,-0.38800020609687946,0.0415402576327323,1.0,-0.005597312728517572,1.8753509521484375,0.0769230769230769,-4.603621501142843,25.48266803473234,10.0,2.0959207459207456,10.0,41.919917540233314,10.0
subject-02,1,23,0.621150016784668,clock,clock,bw,bw_clock_40_n04548280_17198.png,True,-0.7041286237320755,0.0005135088576935,1.0,-3.910141142299118e-05,1.5915195941925049,1.0,-0.7148601614169585,24.128450348915067,10.0,8.916666666666666,4.0,16.065791730448765,10.0
subject-01,1,236,0.666520833969116,clock,clock,bw,bw_clock_40_n04548280_17198.png,True,-0.6882728071129794,0.0005135088576935,1.0,-3.910141142299118e-05,1.5915195941925049,1.0,-0.7148601614169585,24.128450348915067,10.0,8.916666666666666,4.0,16.065791730448765,10.0
subject-04,1,985,0.697522878646851,clock,clock,bw,bw_clock_40_n04548280_17198.png,True,-0.6123256653371504,0.0005135088576935,1.0,-3.910141142299118e-05,1.5915195941925049,1.0,-0.7148601614169585,24.128450348915067,10.0,8.916666666666666,4.0,16.065791730448765,10.0
subject-03,1,882,0.614974021911621,clock,clock,bw,bw_clock_40_n04548280_17198.png,True,-0.976310312982759,0.0005135088576935,1.0,-3.910141142299118e-05,1.5915195941925049,1.0,-0.7148601614169585,24.128450348915067,10.0,8.916666666666666,4.0,16.065791730448765,10.0
subject-02,1,24,0.680738925933838,keyboard,keyboard,bw,bw_keyboard_40_n04505470_361.png,True,-0.399538903820746,0.0005235287826508,1.0,-4.029355164241292e-05,1.5959553718566897,0.125,-4.2156300012850405,23.083152613369748,10.0,3.828246753246753,8.0,35.000287538946,6.0
subject-01,1,1183,0.772230863571167,keyboard,keyboard,bw,bw_keyboard_40_n04505470_361.png,True,-0.07421508932086918,0.0005235287826508,1.0,-4.029355164241292e-05,1.5959553718566897,0.125,-4.2156300012850405,23.083152613369748,10.0,3.828246753246753,8.0,35.000287538946,6.0
subject-04,1,800,0.82270884513855,keyboard,keyboard,bw,bw_keyboard_40_n04505470_361.png,True,-0.007605394303156887,0.0005235287826508,1.0,-4.029355164241292e-05,1.5959553718566897,0.125,-4.2156300012850405,23.083152613369748,10.0,3.828246753246753,8.0,35.000287538946,6.0
subject-03,1,1075,0.64965295791626,keyboard,keyboard,bw,bw_keyboard_40_n04505470_361.png,True,-0.8140782524235592,0.0005235287826508,1.0,-4.029355164241292e-05,1.5959553718566897,0.125,-4.2156300012850405,23.083152613369748,10.0,3.828246753246753,8.0,35.000287538946,6.0
subject-02,1,25,0.766654014587402,airplane,airplane,bw,bw_airplane_40_n02690373_7748.png,True,0.03961752919327553,0.0026461000088602,1.0,-0.0002508478048948685,1.880377173423767,0.3333333333333333,-2.038111367893895,24.591442119563,10.0,6.25,0.0,21.757197922206124,10.0
subject-01,1,823,0.667107105255127,airplane,airplane,bw,bw_airplane_40_n02690373_7748.png,True,-0.6848672229006754,0.0026461000088602,1.0,-0.0002508478048948685,1.880377173423767,0.3333333333333333,-2.038111367893895,24.591442119563,10.0,6.25,0.0,21.757197922206124,10.0
subject-04,1,416,1.12307691574097,airplane,airplane,bw,bw_airplane_40_n02690373_7748.png,True,1.4433452685788315,0.0026461000088602,1.0,-0.0002508478048948685,1.880377173423767,0.3333333333333333,-2.038111367893895,24.591442119563,10.0,6.25,0.0,21.757197922206124,10.0
subject-03,1,699,0.693591117858887,airplane,airplane,bw,bw_airplane_40_n02690373_7748.png,True,-0.608530474841267,0.0026461000088602,1.0,-0.0002508478048948685,1.880377173423767,0.3333333333333333,-2.038111367893895,24.591442119563,10.0,6.25,0.0,21.757197922206124,10.0
subject-02,1,26,0.618085145950317,car,car,bw,bw_car_40_n02814533_93487.png,True,-0.719794762990682,0.2384467869997024,1.0,-0.061993481149333375,1.9091167449951172,0.0833333333333333,-4.253687657514088,25.472138479351997,10.0,3.448351648351648,8.0,41.56459227600825,6.0
subject-01,1,1269,0.635525941848755,car,car,bw,bw_car_40_n02814533_93487.png,True,-0.8683186626509128,0.2384467869997024,1.0,-0.061993481149333375,1.9091167449951172,0.0833333333333333,-4.253687657514088,25.472138479351997,10.0,3.448351648351648,8.0,41.56459227600825,6.0
subject-04,1,867,0.666635036468506,car,car,bw,bw_car_40_n02814533_93487.png,True,-0.7615317210732987,0.2384467869997024,1.0,-0.061993481149333375,1.9091167449951172,0.0833333333333333,-4.253687657514088,25.472138479351997,10.0,3.448351648351648,8.0,41.56459227600825,6.0
subject-03,1,1265,1.00335288047791,car,car,bw,bw_car_40_n02814533_93487.png,True,0.8405707612927201,0.2384467869997024,1.0,-0.061993481149333375,1.9091167449951172,0.0833333333333333,-4.253687657514088,25.472138479351997,10.0,3.448351648351648,8.0,41.56459227600825,6.0
subject-02,1,27,0.699754953384399,elephant,dog,bw,bw_dog_40_n02093256_3792.png,False,-0.3023381569419421,1.428779125213623,0.3333333333333333,-2.8313799737830454,2.015881061553955,0.0714285714285714,-5.044557299623285,27.53606605529785,10.0,0.748099123099123,9.0,42.59016397029391,6.0
subject-01,1,866,1.50015497207642,car,dog,bw,bw_dog_40_n02093256_3792.png,False,4.154214497514849,1.428779125213623,0.3333333333333333,-2.8313799737830454,2.015881061553955,0.0714285714285714,-5.044557299623285,27.53606605529785,10.0,0.748099123099123,9.0,42.59016397029391,6.0
subject-04,1,1194,0.943777084350586,bear,dog,bw,bw_dog_40_n02093256_3792.png,False,0.5772238839431827,1.428779125213623,0.3333333333333333,-2.8313799737830454,2.015881061553955,0.0714285714285714,-5.044557299623285,27.53606605529785,10.0,0.748099123099123,9.0,42.59016397029391,6.0
subject-03,1,6,0.841928958892822,bear,dog,bw,bw_dog_40_n02093256_3792.png,False,0.08541104650815122,1.428779125213623,0.3333333333333333,-2.8313799737830454,2.015881061553955,0.0714285714285714,-5.044557299623285,27.53606605529785,10.0,0.748099123099123,9.0,42.59016397029391,6.0
subject-02,1,28,0.699753999710083,bird,bird,bw,bw_bird_40_n01843383_5962.png,True,-0.30234303166438514,2.098766565322876,1.0,-1.2524185576682685,1.9726431369781496,0.1666666666666666,-3.4702997983831794,28.111685752868652,10.0,1.9591269841269836,10.0,34.709706056462636,10.0
subject-01,1,206,0.722102165222168,bird,bird,bw,bw_bird_40_n01843383_5962.png,True,-0.3654070814142876,2.098766565322876,1.0,-1.2524185576682685,1.9726431369781496,0.1666666666666666,-3.4702997983831794,28.111685752868652,10.0,1.9591269841269836,10.0,34.709706056462636,10.0
subject-04,1,723,0.779026031494141,bird,bird,bw,bw_bird_40_n01843383_5962.png,True,-0.21861852658045652,2.098766565322876,1.0,-1.2524185576682685,1.9726431369781496,0.1666666666666666,-3.4702997983831794,28.111685752868652,10.0,1.9591269841269836,10.0,34.709706056462636,10.0
subject-03,1,1133,0.700559139251709,bird,bird,bw,bw_bird_40_n01843383_5962.png,True,-0.5759332674636568,2.098766565322876,1.0,-1.2524185576682685,1.9726431369781496,0.1666666666666666,-3.4702997983831794,28.111685752868652,10.0,1.9591269841269836,10.0,34.709706056462636,10.0
subject-02,1,29,0.825814962387085,bear,bear,cr,cr_bear_40_n02133161_6946.png,True,0.3420197174072747,0.065449520945549,1.0,-0.009151362555756885,2.296886682510376,0.1666666666666666,-2.950085046135158,26.995899960398674,10.0,5.511904761904761,6.0,27.13466852793,10.0
subject-01,1,571,0.970879077911377,bird,bear,cr,cr_bear_40_n02133161_6946.png,False,1.0797101304565793,0.065449520945549,1.0,-0.009151362555756885,2.296886682510376,0.1666666666666666,-2.950085046135158,26.995899960398674,10.0,5.511904761904761,6.0,27.13466852793,10.0
subject-04,1,214,0.846297979354858,bird,bear,cr,cr_bear_40_n02133161_6946.png,False,0.10634370108277738,0.065449520945549,1.0,-0.009151362555756885,2.296886682510376,0.1666666666666666,-2.950085046135158,26.995899960398674,10.0,5.511904761904761,6.0,27.13466852793,10.0
subject-03,1,171,0.793948888778687,bear,bear,cr,cr_bear_40_n02133161_6946.png,True,-0.13904525282438204,0.065449520945549,1.0,-0.009151362555756885,2.296886682510376,0.1666666666666666,-2.950085046135158,26.995899960398674,10.0,5.511904761904761,6.0,27.13466852793,10.0
subject-02,1,30,1.02158498764038,airplane,airplane,cr,cr_airplane_40_n02690373_2075.png,True,1.3427015222992436,0.0216221697628498,1.0,-0.0026749354214450276,1.9572428464889529,1.0,-1.0088982555029735,26.137847293168306,10.0,10.083333333333332,1.0,18.042794058517423,10.0
subject-01,1,1224,0.835945844650269,airplane,airplane,cr,cr_airplane_40_n02690373_2075.png,True,0.2958980968913288,0.0216221697628498,1.0,-0.0026749354214450276,1.9572428464889529,1.0,-1.0088982555029735,26.137847293168306,10.0,10.083333333333332,1.0,18.042794058517423,10.0
subject-04,1,1189,0.662361860275269,airplane,airplane,cr,cr_airplane_40_n02690373_2075.png,True,-0.78217362158474,0.0216221697628498,1.0,-0.0026749354214450276,1.9572428464889529,1.0,-1.0088982555029735,26.137847293168306,10.0,10.083333333333332,1.0,18.042794058517423,10.0
subject-03,1,344,0.940268993377686,airplane,airplane,cr,cr_airplane_40_n02690373_2075.png,True,0.5454570648695016,0.0216221697628498,1.0,-0.0026749354214450276,1.9572428464889529,1.0,-1.0088982555029735,26.137847293168306,10.0,10.083333333333332,1.0,18.042794058517423,10.0
subject-02,1,31,0.592957019805908,bottle,bottle,cr,cr_bottle_40_n04560804_1703.png,True,-0.8482376060214596,0.012960665859282,1.0,-0.0014362511566290306,1.8175253868103027,0.5,-1.363968985981038,24.840784304775298,10.0,6.833333333333333,9.0,18.664714297151722,10.0
subject-01,1,503,0.769598007202148,bottle,bottle,cr,cr_bottle_40_n04560804_1703.png,True,-0.08950905697294957,0.012960665859282,1.0,-0.0014362511566290306,1.8175253868103027,0.5,-1.363968985981038,24.840784304775298,10.0,6.833333333333333,9.0,18.664714297151722,10.0
subject-04,1,280,0.839290857315063,bottle,bottle,cr,cr_bottle_40_n04560804_1703.png,True,0.07249526856415293,0.012960665859282,1.0,-0.0014362511566290306,1.8175253868103027,0.5,-1.363968985981038,24.840784304775298,10.0,6.833333333333333,9.0,18.664714297151722,10.0
subject-03,1,1089,0.74687385559082,bottle,bottle,cr,cr_bottle_40_n04560804_1703.png,True,-0.3592676850794768,0.012960665859282,1.0,-0.0014362511566290306,1.8175253868103027,0.5,-1.363968985981038,24.840784304775298,10.0,6.833333333333333,9.0,18.664714297151722,10.0
subject-02,1,32,0.742815017700195,bottle,bottle,bw,bw_bottle_40_n03983396_16300.png,True,-0.08223590777205915,0.0264237187802791,1.0,-0.0032096102049819636,1.7936447858810425,0.5,-1.4277000529471033,25.295362260192633,10.0,7.0,9.0,19.646825050129223,10.0
subject-01,1,750,0.58322811126709,bottle,bottle,bw,bw_bottle_40_n03983396_16300.png,True,-1.1721109008458077,0.0264237187802791,1.0,-0.0032096102049819636,1.7936447858810425,0.5,-1.4277000529471033,25.295362260192633,10.0,7.0,9.0,19.646825050129223,10.0
subject-04,1,755,0.733217000961304,bottle,bottle,bw,bw_bottle_40_n03983396_16300.png,True,-0.4399025102085935,0.0264237187802791,1.0,-0.0032096102049819636,1.7936447858810425,0.5,-1.4277000529471033,25.295362260192633,10.0,7.0,9.0,19.646825050129223,10.0
subject-03,1,633,0.681411027908325,bottle,bottle,bw,bw_bottle_40_n03983396_16300.png,True,-0.6655103398005541,0.0264237187802791,1.0,-0.0032096102049819636,1.7936447858810425,0.5,-1.4277000529471033,25.295362260192633,10.0,7.0,9.0,19.646825050129223,10.0
subject-02,1,33,0.674723148345947,keyboard,keyboard,bw,bw_keyboard_40_n04505470_3666.png,True,-0.43028865300574315,0.0001964955590665,1.0,-1.4245611569450004e-05,1.610837459564209,0.2,-4.090468639551516,21.638985434081405,9.0,3.9428571428571426,8.0,34.685564428823696,9.0
subject-01,1,1108,0.713180065155029,keyboard,keyboard,bw,bw_keyboard_40_n04505470_3666.png,True,-0.4172345610372232,0.0001964955590665,1.0,-1.4245611569450004e-05,1.610837459564209,0.2,-4.090468639551516,21.638985434081405,9.0,3.9428571428571426,8.0,34.685564428823696,9.0
subject-04,1,1077,0.615003108978271,keyboard,keyboard,bw,bw_keyboard_40_n04505470_3666.png,True,-1.0109436484715086,0.0001964955590665,1.0,-1.4245611569450004e-05,1.610837459564209,0.2,-4.090468639551516,21.638985434081405,9.0,3.9428571428571426,8.0,34.685564428823696,9.0
subject-03,1,14,0.804141998291016,keyboard,keyboard,bw,bw_keyboard_40_n04505470_3666.png,True,-0.0913607114223764,0.0001964955590665,1.0,-1.4245611569450004e-05,1.610837459564209,0.2,-4.090468639551516,21.638985434081405,9.0,3.9428571428571426,8.0,34.685564428823696,9.0
subject-02,1,34,0.79666805267334,knife,knife,cr,cr_knife_40_n03041632_11475.png,True,0.19303479399197415,0.1221250370144844,1.0,-0.021532755555408706,1.8047510385513303,0.1111111111111111,-4.358573339347913,25.96182120591402,10.0,1.5711399711399707,10.0,39.00966270842523,10.0
subject-01,1,317,0.943567037582397,knife,knife,cr,cr_knife_40_n03041632_11475.png,True,0.9210575483336233,0.1221250370144844,1.0,-0.021532755555408706,1.8047510385513303,0.1111111111111111,-4.358573339347913,25.96182120591402,10.0,1.5711399711399707,10.0,39.00966270842523,10.0
subject-04,1,47,0.853087902069092,knife,knife,cr,cr_knife_40_n03041632_11475.png,True,0.13914293584623433,0.1221250370144844,1.0,-0.021532755555408706,1.8047510385513303,0.1111111111111111,-4.358573339347913,25.96182120591402,10.0,1.5711399711399707,10.0,39.00966270842523,10.0
subject-03,1,112,0.747090101242065,knife,knife,cr,cr_knife_40_n03041632_11475.png,True,-0.35825606299327006,0.1221250370144844,1.0,-0.021532755555408706,1.8047510385513303,0.1111111111111111,-4.358573339347913,25.96182120591402,10.0,1.5711399711399707,10.0,39.00966270842523,10.0
subject-02,1,35,0.706260919570923,cat,cat,cr,cr_cat_40_n02125311_4261.png,True,-0.2690828004200561,0.0036236625164747,1.0,-0.00033229149268144937,2.25718092918396,0.125,-3.1995188347069763,26.502797542139888,10.0,5.308333333333334,6.0,27.930407967144742,10.0
subject-01,1,1026,0.861020803451538,cat,cat,cr,cr_cat_40_n02125311_4261.png,True,0.44155572307119767,0.0036236625164747,1.0,-0.00033229149268144937,2.25718092918396,0.125,-3.1995188347069763,26.502797542139888,10.0,5.308333333333334,6.0,27.930407967144742,10.0
subject-04,1,114,1.3420078754425,cat,cat,cr,cr_cat_40_n02125311_4261.png,True,2.5009078133167866,0.0036236625164747,1.0,-0.00033229149268144937,2.25718092918396,0.125,-3.1995188347069763,26.502797542139888,10.0,5.308333333333334,6.0,27.930407967144742,10.0
subject-03,1,362,0.69055700302124,cat,cat,cr,cr_cat_40_n02125311_4261.png,True,-0.6227244138369408,0.0036236625164747,1.0,-0.00033229149268144937,2.25718092918396,0.125,-3.1995188347069763,26.502797542139888,10.0,5.308333333333334,6.0,27.930407967144742,10.0
subject-02,1,36,0.794286966323853,knife,knife,cr,cr_knife_40_n03041632_51256.png,True,0.18086383072665604,7.49448299757205e-05,1.0,-5.0664076402407395e-06,2.0481467247009277,0.1111111111111111,-3.832379966003659,26.268266520834004,10.0,5.001670551670552,6.0,34.804203557671286,10.0
subject-01,1,865,1.05521512031555,knife,knife,cr,cr_knife_40_n03041632_51256.png,True,1.569608751441549,7.49448299757205e-05,1.0,-5.0664076402407395e-06,2.0481467247009277,0.1111111111111111,-3.832379966003659,26.268266520834004,10.0,5.001670551670552,6.0,34.804203557671286,10.0
subject-04,1,785,0.855869054794312,knife,knife,cr,cr_knife_40_n03041632_51256.png,True,0.1525775042480644,7.49448299757205e-05,1.0,-5.0664076402407395e-06,2.0481467247009277,0.1111111111111111,-3.832379966003659,26.268266520834004,10.0,5.001670551670552,6.0,34.804203557671286,10.0
subject-03,1,65,0.688801050186157,knife,knife,cr,cr_knife_40_n03041632_51256.png,True,-0.6309389636328796,7.49448299757205e-05,1.0,-5.0664076402407395e-06,2.0481467247009277,0.1111111111111111,-3.832379966003659,26.268266520834004,10.0,5.001670551670552,6.0,34.804203557671286,10.0
subject-02,1,37,0.665918111801147,clock,clock,bw,bw_clock_40_n02708093_3079.png,True,-0.47529574666265084,0.0001906589604914,1.0,-1.3291924122033129e-05,1.6085437536239624,1.0,-0.6951926972403,23.376896961126477,10.0,10.5,2.0,13.97507863380962,10.0
subject-01,1,251,0.810053110122681,clock,clock,bw,bw_clock_40_n02708093_3079.png,True,0.1454901031440716,0.0001906589604914,1.0,-1.3291924122033129e-05,1.6085437536239624,1.0,-0.6951926972403,23.376896961126477,10.0,10.5,2.0,13.97507863380962,10.0
subject-04,1,1177,0.656784057617188,clock,clock,bw,bw_clock_40_n02708093_3079.png,True,-0.8091176188209838,0.0001906589604914,1.0,-1.3291924122033129e-05,1.6085437536239624,1.0,-0.6951926972403,23.376896961126477,10.0,10.5,2.0,13.97507863380962,10.0
subject-03,1,130,0.927572011947632,clock,clock,bw,bw_clock_40_n02708093_3079.png,True,0.4860591219797885,0.0001906589604914,1.0,-1.3291924122033129e-05,1.6085437536239624,1.0,-0.6951926972403,23.376896961126477,10.0,10.5,2.0,13.97507863380962,10.0
subject-02,1,38,1.265780210495,keyboard,keyboard,cr,cr_keyboard_40_n04505470_4356.png,True,2.590909546157814,0.014145279303193,1.0,-0.0018375699617413283,1.6939709186553955,0.1428571428571428,-4.036709025217489,25.226486349478364,10.0,2.99041514041514,9.0,37.03389329817634,10.0
subject-01,1,81,0.780138969421387,keyboard,keyboard,cr,cr_keyboard_40_n04505470_4356.png,True,-0.028277788492127875,0.014145279303193,1.0,-0.0018375699617413283,1.6939709186553955,0.1428571428571428,-4.036709025217489,25.226486349478364,10.0,2.99041514041514,9.0,37.03389329817634,10.0
subject-04,1,944,0.728050947189331,keyboard,keyboard,cr,cr_keyboard_40_n04505470_4356.png,True,-0.4648575233359702,0.014145279303193,1.0,-0.0018375699617413283,1.6939709186553955,0.1428571428571428,-4.036709025217489,25.226486349478364,10.0,2.99041514041514,9.0,37.03389329817634,10.0
subject-03,1,721,0.578859090805054,keyboard,keyboard,cr,cr_keyboard_40_n04505470_4356.png,True,-1.145260124176163,0.014145279303193,1.0,-0.0018375699617413283,1.6939709186553955,0.1428571428571428,-4.036709025217489,25.226486349478364,10.0,2.99041514041514,9.0,37.03389329817634,10.0
subject-02,1,39,0.919620037078857,bicycle,bicycle,bw,bw_bicycle_40_n02835271_5602.png,True,0.821505947891931,0.1970860958099365,1.0,-0.0395308579839402,1.8253711462020872,0.2,-3.687376074115075,25.33608567714691,10.0,2.8106532356532354,9.0,34.00188851016519,10.0
subject-01,1,837,0.708397150039673,bicycle,bicycle,bw,bw_bicycle_40_n02835271_5602.png,True,-0.4450179790457629,0.1970860958099365,1.0,-0.0395308579839402,1.8253711462020872,0.2,-3.687376074115075,25.33608567714691,10.0,2.8106532356532354,9.0,34.00188851016519,10.0
subject-04,1,1195,1.0372519493103,bicycle,bicycle,bw,bw_bicycle_40_n02835271_5602.png,True,1.0287612827222417,0.1970860958099365,1.0,-0.0395308579839402,1.8253711462020872,0.2,-3.687376074115075,25.33608567714691,10.0,2.8106532356532354,9.0,34.00188851016519,10.0
subject-03,1,219,0.830981016159058,bicycle,bicycle,bw,bw_bicycle_40_n02835271_5602.png,True,0.03419530827601288,0.1970860958099365,1.0,-0.0395308579839402,1.8253711462020872,0.2,-3.687376074115075,25.33608567714691,10.0,2.8106532356532354,9.0,34.00188851016519,10.0
subject-02,1,40,0.837382793426514,chair,chair,bw,bw_chair_40_n04429376_15334.png,True,0.4011488819882369,0.023161944001913,1.0,-0.0030874539076116516,1.7511452436447144,0.0714285714285714,-4.780836637465598,25.071898754686117,10.0,2.461446886446886,9.0,43.07498459383312,10.0
subject-01,1,1178,0.659518003463745,chair,chair,bw,bw_chair_40_n04429376_15334.png,True,-0.7289514648940917,0.023161944001913,1.0,-0.0030874539076116516,1.7511452436447144,0.0714285714285714,-4.780836637465598,25.071898754686117,10.0,2.461446886446886,9.0,43.07498459383312,10.0
subject-04,1,1254,0.776970863342285,chair,chair,bw,bw_chair_40_n04429376_15334.png,True,-0.22854617164036145,0.023161944001913,1.0,-0.0030874539076116516,1.7511452436447144,0.0714285714285714,-4.780836637465598,25.071898754686117,10.0,2.461446886446886,9.0,43.07498459383312,10.0
subject-03,1,625,1.06290483474731,chair,chair,bw,bw_chair_40_n04429376_15334.png,True,1.1191616687576906,0.023161944001913,1.0,-0.0030874539076116516,1.7511452436447144,0.0714285714285714,-4.780836637465598,25.071898754686117,10.0,2.461446886446886,9.0,43.07498459383312,10.0
subject-02,1,41,0.479510068893433,boat,boat,cr,cr_boat_40_n04273569_13641.png,True,-1.4281236199896543,0.0057455361820757,1.0,-0.0005829244794351184,2.0428972244262695,0.3333333333333333,-2.0044917103583293,25.639415866229683,10.0,5.5,0.0,21.591181771542914,10.0
subject-01,1,627,0.69016695022583,boat,boat,cr,cr_boat_40_n04273569_13641.png,True,-0.5509151671813094,0.0057455361820757,1.0,-0.0005829244794351184,2.0428972244262695,0.3333333333333333,-2.0044917103583293,25.639415866229683,10.0,5.5,0.0,21.591181771542914,10.0
subject-04,1,1007,0.757539033889771,boat,boat,cr,cr_boat_40_n04273569_13641.png,True,-0.32241309221080616,0.0057455361820757,1.0,-0.0005829244794351184,2.0428972244262695,0.3333333333333333,-2.0044917103583293,25.639415866229683,10.0,5.5,0.0,21.591181771542914,10.0
subject-03,1,54,1.50013422966003,boat,boat,cr,cr_boat_40_n04273569_13641.png,True,3.164571183751289,0.0057455361820757,1.0,-0.0005829244794351184,2.0428972244262695,0.3333333333333333,-2.0044917103583293,25.639415866229683,10.0,5.5,0.0,21.591181771542914,10.0
subject-02,1,42,0.792934894561768,truck,truck,bw,bw_truck_40_n04467665_9459.png,True,0.1739526929798223,0.0036445641890168,1.0,-0.0003455878343600709,2.0392794609069824,0.0833333333333333,-4.233323576330932,25.861093261279166,10.0,2.8145604395604393,9.0,40.112345286620716,10.0
subject-01,1,1073,0.8678879737854,truck,truck,bw,bw_truck_40_n04467665_9459.png,True,0.4814463461159116,0.0036445641890168,1.0,-0.0003455878343600709,2.0392794609069824,0.0833333333333333,-4.233323576330932,25.861093261279166,10.0,2.8145604395604393,9.0,40.112345286620716,10.0
subject-04,1,1242,0.957361221313477,truck,truck,bw,bw_truck_40_n04467665_9459.png,True,0.6428430840514234,0.0036445641890168,1.0,-0.0003455878343600709,2.0392794609069824,0.0833333333333333,-4.233323576330932,25.861093261279166,10.0,2.8145604395604393,9.0,40.112345286620716,10.0
subject-03,1,1254,0.641400098800659,truck,truck,bw,bw_truck_40_n04467665_9459.png,True,-0.8526860787896746,0.0036445641890168,1.0,-0.0003455878343600709,2.0392794609069824,0.0833333333333333,-4.233323576330932,25.861093261279166,10.0,2.8145604395604393,9.0,40.112345286620716,10.0
subject-02,1,43,0.574784994125366,keyboard,keyboard,bw,bw_keyboard_40_n04505470_5060.png,True,-0.9411242235361699,0.035630714148283,1.0,-0.004578685384897116,1.7093851566314695,0.1666666666666666,-3.600332708268871,25.151501189917326,10.0,3.741341991341991,8.0,33.47073634707936,10.0
subject-01,1,215,0.842443943023682,keyboard,keyboard,bw,bw_keyboard_40_n04505470_5060.png,True,0.3336448222700641,0.035630714148283,1.0,-0.004578685384897116,1.7093851566314695,0.1666666666666666,-3.600332708268871,25.151501189917326,10.0,3.741341991341991,8.0,33.47073634707936,10.0
subject-04,1,530,0.640789985656738,keyboard,keyboard,bw,bw_keyboard_40_n04505470_5060.png,True,-0.8863781920458741,0.035630714148283,1.0,-0.004578685384897116,1.7093851566314695,0.1666666666666666,-3.600332708268871,25.151501189917326,10.0,3.741341991341991,8.0,33.47073634707936,10.0
subject-03,1,796,0.809091806411743,keyboard,keyboard,bw,bw_keyboard_40_n04505470_5060.png,True,-0.0682049383995017,0.035630714148283,1.0,-0.004578685384897116,1.7093851566314695,0.1666666666666666,-3.600332708268871,25.151501189917326,10.0,3.741341991341991,8.0,33.47073634707936,10.0
subject-02,1,44,0.682523012161255,boat,boat,bw,bw_boat_40_n02951358_863.png,True,-0.39041951680618825,0.027048647403717,1.0,-0.0036630882523523973,1.886676788330078,0.25,-2.8550149572442374,25.415614783763885,10.0,2.330332167832168,10.0,31.1181587292067,10.0
subject-01,1,983,0.699143886566162,boat,boat,bw,bw_boat_40_n02951358_863.png,True,-0.49876914979146664,0.027048647403717,1.0,-0.0036630882523523973,1.886676788330078,0.25,-2.8550149572442374,25.415614783763885,10.0,2.330332167832168,10.0,31.1181587292067,10.0
subject-04,1,823,0.817323923110962,boat,boat,bw,bw_boat_40_n02951358_863.png,True,-0.0336176670784433,0.027048647403717,1.0,-0.0036630882523523973,1.886676788330078,0.25,-2.8550149572442374,25.415614783763885,10.0,2.330332167832168,10.0,31.1181587292067,10.0
subject-03,1,733,0.53663182258606,boat,boat,bw,bw_boat_40_n02951358_863.png,True,-1.3428041530367085,0.027048647403717,1.0,-0.0036630882523523973,1.886676788330078,0.25,-2.8550149572442374,25.415614783763885,10.0,2.330332167832168,10.0,31.1181587292067,10.0
subject-02,1,45,0.554410934448242,boat,boat,cr,cr_boat_40_n04273569_15892.png,True,-1.0452665751770935,0.0004201667907182,1.0,-3.123332161752726e-05,1.994485020637512,0.3333333333333333,-1.789608744716404,25.768120958149666,10.0,5.75,9.0,21.41698703081211,10.0
subject-01,1,1036,0.769084215164185,boat,boat,cr,cr_boat_40_n04273569_15892.png,True,-0.09249361735420202,0.0004201667907182,1.0,-3.123332161752726e-05,1.994485020637512,0.3333333333333333,-1.789608744716404,25.768120958149666,10.0,5.75,9.0,21.41698703081211,10.0
subject-04,1,398,0.83031702041626,boat,boat,cr,cr_boat_40_n04273569_15892.png,True,0.029146471300852118,0.0004201667907182,1.0,-3.123332161752726e-05,1.994485020637512,0.3333333333333333,-1.789608744716404,25.768120958149666,10.0,5.75,9.0,21.41698703081211,10.0
subject-03,1,1118,0.477825880050659,boat,boat,cr,cr_boat_40_n04273569_15892.png,True,-1.617905131606749,0.0004201667907182,1.0,-3.123332161752726e-05,1.994485020637512,0.3333333333333333,-1.789608744716404,25.768120958149666,10.0,5.75,9.0,21.41698703081211,10.0
subject-02,1,46,0.670228958129883,oven,oven,bw,bw_oven_40_n04111531_13006.png,True,-0.4532607825292493,1.3874648809432983,1.0,-0.5752995090666129,1.9264417886734009,0.0625,-6.831780628213981,27.261741638183594,10.0,1.0102564102564102,10.0,57.425945346162614,10.0
subject-01,1,141,0.650889873504639,oven,oven,bw,bw_oven_40_n04111531_13006.png,True,-0.779071305097027,1.3874648809432983,1.0,-0.5752995090666129,1.9264417886734009,0.0625,-6.831780628213981,27.261741638183594,10.0,1.0102564102564102,10.0,57.425945346162614,10.0
subject-04,1,1120,0.590914964675903,oven,oven,bw,bw_oven_40_n04111531_13006.png,True,-1.1273032497867237,1.3874648809432983,1.0,-0.5752995090666129,1.9264417886734009,0.0625,-6.831780628213981,27.261741638183594,10.0,1.0102564102564102,10.0,57.425945346162614,10.0
subject-03,1,1139,0.765277147293091,oven,oven,bw,bw_oven_40_n04111531_13006.png,True,-0.27317496488955884,1.3874648809432983,1.0,-0.5752995090666129,1.9264417886734009,0.0625,-6.831780628213981,27.261741638183594,10.0,1.0102564102564102,10.0,57.425945346162614,10.0
subject-02,1,47,0.888046979904175,car,car,cr,cr_car_40_n04285008_3453.png,True,0.6601197305757727,0.0340998172760009,1.0,-0.0046156309053183445,1.9249238967895508,0.0769230769230769,-4.743882695895016,25.589277386665344,10.0,2.4513791763791764,10.0,41.6571440509699,10.0
subject-01,1,623,0.849126815795898,car,car,cr,cr_car_40_n04285008_3453.png,True,0.37246488142859807,0.0340998172760009,1.0,-0.0046156309053183445,1.9249238967895508,0.0769230769230769,-4.743882695895016,25.589277386665344,10.0,2.4513791763791764,10.0,41.6571440509699,10.0
subject-04,1,897,1.02293491363525,car,car,cr,cr_car_40_n04285008_3453.png,True,0.9596017600021469,0.0340998172760009,1.0,-0.0046156309053183445,1.9249238967895508,0.0769230769230769,-4.743882695895016,25.589277386665344,10.0,2.4513791763791764,10.0,41.6571440509699,10.0
subject-03,1,786,0.970553874969482,car,car,cr,cr_car_40_n04285008_3453.png,True,0.6871332323208678,0.0340998172760009,1.0,-0.0046156309053183445,1.9249238967895508,0.0769230769230769,-4.743882695895016,25.589277386665344,10.0,2.4513791763791764,10.0,41.6571440509699,10.0
subject-02,1,48,0.903836011886597,dog,dog,bw,bw_dog_40_n02111129_797.png,True,0.740825635380273,0.0016637870576232,1.0,-0.00013829233782335925,2.196645975112915,0.0769230769230769,-4.20945386662454,26.69900212972425,10.0,2.990811965811966,9.0,34.1122038788667,10.0
subject-01,1,285,0.823554992675781,dog,dog,bw,bw_dog_40_n02111129_797.png,True,0.22392102609116776,0.0016637870576232,1.0,-0.00013829233782335925,2.196645975112915,0.0769230769230769,-4.20945386662454,26.69900212972425,10.0,2.990811965811966,9.0,34.1122038788667,10.0
subject-04,1,194,0.734411001205444,dog,dog,bw,bw_dog_40_n02111129_797.png,True,-0.43413480180256503,0.0016637870576232,1.0,-0.00013829233782335925,2.196645975112915,0.0769230769230769,-4.20945386662454,26.69900212972425,10.0,2.990811965811966,9.0,34.1122038788667,10.0
subject-03,1,452,0.907833099365234,dog,dog,bw,bw_dog_40_n02111129_797.png,True,0.39371821333680246,0.0016637870576232,1.0,-0.00013829233782335925,2.196645975112915,0.0769230769230769,-4.20945386662454,26.69900212972425,10.0,2.990811965811966,9.0,34.1122038788667,10.0
subject-02,1,49,0.696227073669434,clock,clock,cr,cr_clock_40_n03196217_3267.png,True,-0.32037097394773884,0.0792548805475235,1.0,-0.010864893454070124,1.8042571544647217,1.0,-0.8474463962587828,24.928368225693703,10.0,8.833333333333332,3.0,16.76501203826072,10.0
subject-01,1,1118,0.663102865219116,clock,clock,cr,cr_clock_40_n03196217_3267.png,True,-0.7081274046191088,0.0792548805475235,1.0,-0.010864893454070124,1.8042571544647217,1.0,-0.8474463962587828,24.928368225693703,10.0,8.833333333333332,3.0,16.76501203826072,10.0
subject-04,1,202,0.746602058410645,clock,clock,cr,cr_clock_40_n03196217_3267.png,True,-0.37524497873434676,0.0792548805475235,1.0,-0.010864893454070124,1.8042571544647217,1.0,-0.8474463962587828,24.928368225693703,10.0,8.833333333333332,3.0,16.76501203826072,10.0
subject-03,1,490,0.8281409740448,clock,clock,cr,cr_clock_40_n03196217_3267.png,True,0.020909263853850234,0.0792548805475235,1.0,-0.010864893454070124,1.8042571544647217,1.0,-0.8474463962587828,24.928368225693703,10.0,8.833333333333332,3.0,16.76501203826072,10.0
subject-02,1,50,0.861385107040405,bicycle,bicycle,cr,cr_bicycle_40_n02835271_24104.png,True,0.5238371151723274,0.0004511697334237,1.0,-3.337915815211994e-05,1.948031663894653,0.2,-3.0268769093805536,23.863670550112147,9.0,3.9527777777777775,9.0,27.323566367978056,9.0
subject-01,1,78,0.931842088699341,bicycle,bicycle,cr,cr_bicycle_40_n02835271_24104.png,True,0.8529486339811974,0.0004511697334237,1.0,-3.337915815211994e-05,1.948031663894653,0.2,-3.0268769093805536,23.863670550112147,9.0,3.9527777777777775,9.0,27.323566367978056,9.0
subject-04,1,1152,0.717355966567993,bicycle,bicycle,cr,cr_bicycle_40_n02835271_24104.png,True,-0.5165204354122026,0.0004511697334237,1.0,-3.337915815211994e-05,1.948031663894653,0.2,-3.0268769093805536,23.863670550112147,9.0,3.9527777777777775,9.0,27.323566367978056,9.0
subject-03,1,505,0.689175128936768,bicycle,bicycle,cr,cr_bicycle_40_n02835271_24104.png,True,-0.6291889801121938,0.0004511697334237,1.0,-3.337915815211994e-05,1.948031663894653,0.2,-3.0268769093805536,23.863670550112147,9.0,3.9527777777777775,9.0,27.323566367978056,9.0
subject-02,1,51,0.80341100692749,dog,dog,bw,bw_dog_40_n02088466_3052.png,True,0.22750151904151436,0.1546245515346527,1.0,-0.023310176083409562,1.9691345691680908,0.0714285714285714,-4.685683266911497,26.134838789701462,10.0,2.646067821067821,9.0,37.396061816009706,10.0
subject-01,1,421,0.910505056381226,dog,dog,bw,bw_dog_40_n02088466_3052.png,True,0.7290042039300303,0.1546245515346527,1.0,-0.023310176083409562,1.9691345691680908,0.0714285714285714,-4.685683266911497,26.134838789701462,10.0,2.646067821067821,9.0,37.396061816009706,10.0
subject-04,1,363,0.963242053985596,cat,dog,bw,bw_dog_40_n02088466_3052.png,False,0.6712508906694695,0.1546245515346527,1.0,-0.023310176083409562,1.9691345691680908,0.0714285714285714,-4.685683266911497,26.134838789701462,10.0,2.646067821067821,9.0,37.396061816009706,10.0
subject-03,1,823,0.757745981216431,dog,dog,bw,bw_dog_40_n02088466_3052.png,True,-0.30840662801978475,0.1546245515346527,1.0,-0.023310176083409562,1.9691345691680908,0.0714285714285714,-4.685683266911497,26.134838789701462,10.0,2.646067821067821,9.0,37.396061816009706,10.0
subject-02,1,52,0.887040853500366,truck,chair,bw,bw_chair_40_n02791124_2491.png,False,0.6549768983959717,0.0027544188778847,1.0,-0.00025335183116043596,2.070054769515991,0.0666666666666666,-5.211061104059943,25.818471162347123,10.0,2.079761904761904,9.0,45.27589552658405,10.0
subject-01,1,1199,0.639337062835693,chair,chair,bw,bw_chair_40_n02791124_2491.png,True,-0.8461802878507285,0.0027544188778847,1.0,-0.00025335183116043596,2.070054769515991,0.0666666666666666,-5.211061104059943,25.818471162347123,10.0,2.079761904761904,9.0,45.27589552658405,10.0
subject-04,1,813,0.621119022369385,truck,chair,bw,bw_chair_40_n02791124_2491.png,False,-0.9814002666760732,0.0027544188778847,1.0,-0.00025335183116043596,2.070054769515991,0.0666666666666666,-5.211061104059943,25.818471162347123,10.0,2.079761904761904,9.0,45.27589552658405,10.0
subject-03,1,370,0.87705397605896,boat,chair,bw,bw_chair_40_n02791124_2491.png,False,0.24972992616690273,0.0027544188778847,1.0,-0.00025335183116043596,2.070054769515991,0.0666666666666666,-5.211061104059943,25.818471162347123,10.0,2.079761904761904,9.0,45.27589552658405,10.0
subject-02,1,53,0.489345073699951,elephant,elephant,cr,cr_elephant_40_n02504013_5035.png,True,-1.377851826091819,0.000259822118096,1.0,-1.8596822089856895e-05,2.110468626022339,0.1428571428571428,-3.4332019050688736,24.889703934895806,9.0,5.239682539682539,6.0,27.644956892088366,9.0
subject-01,1,170,0.812933921813965,elephant,elephant,cr,cr_elephant_40_n02504013_5035.png,True,0.1622244154813026,0.000259822118096,1.0,-1.8596822089856895e-05,2.110468626022339,0.1428571428571428,-3.4332019050688736,24.889703934895806,9.0,5.239682539682539,6.0,27.644956892088366,9.0
subject-04,1,454,0.695719957351685,elephant,elephant,cr,cr_elephant_40_n02504013_5035.png,True,-0.6210348128943411,0.000259822118096,1.0,-1.8596822089856895e-05,2.110468626022339,0.1428571428571428,-3.4332019050688736,24.889703934895806,9.0,5.239682539682539,6.0,27.644956892088366,9.0
subject-03,1,596,0.804404973983765,elephant,elephant,cr,cr_elephant_40_n02504013_5035.png,True,-0.09013048081478364,0.000259822118096,1.0,-1.8596822089856895e-05,2.110468626022339,0.1428571428571428,-3.4332019050688736,24.889703934895806,9.0,5.239682539682539,6.0,27.644956892088366,9.0
subject-02,1,54,0.815145015716553,bear,bear,bw,bw_bear_40_n02134084_21413.png,True,0.28748010400857177,0.0002201067545684,1.0,-1.6152989192847334e-05,2.381742238998413,0.2,-2.4653131760244795,26.18487195840862,10.0,3.5023809523809524,9.0,26.887734270760568,9.0
subject-01,1,877,0.660864114761353,bear,bear,bw,bw_bear_40_n02134084_21413.png,True,-0.7211320551898748,0.0002201067545684,1.0,-1.6152989192847334e-05,2.381742238998413,0.2,-2.4653131760244795,26.18487195840862,10.0,3.5023809523809524,9.0,26.887734270760568,9.0
subject-04,1,653,0.64149284362793,bear,bear,bw,bw_bear_40_n02134084_21413.png,True,-0.8829829835033427,0.0002201067545684,1.0,-1.6152989192847334e-05,2.381742238998413,0.2,-2.4653131760244795,26.18487195840862,10.0,3.5023809523809524,9.0,26.887734270760568,9.0
subject-03,1,222,0.746439933776855,bear,bear,bw,bw_bear_40_n02134084_21413.png,True,-0.36129762134948534,0.0002201067545684,1.0,-1.6152989192847334e-05,2.381742238998413,0.2,-2.4653131760244795,26.18487195840862,10.0,3.5023809523809524,9.0,26.887734270760568,9.0
subject-02,1,55,0.827000141143799,truck,truck,bw,bw_truck_40_n03796401_27288.png,True,0.3480777787261809,0.0079322922974824,1.0,-0.0008117870439315735,1.822864055633545,0.0769230769230769,-4.239601304997335,25.198135005310178,10.0,3.3838827838827834,8.0,39.39995916047715,10.0
subject-01,1,308,0.801162004470825,truck,truck,bw,bw_truck_40_n03796401_27288.png,True,0.09384266660677908,0.0079322922974824,1.0,-0.0008117870439315735,1.822864055633545,0.0769230769230769,-4.239601304997335,25.198135005310178,10.0,3.3838827838827834,8.0,39.39995916047715,10.0
subject-04,1,795,0.637609004974365,truck,truck,bw,bw_truck_40_n03796401_27288.png,True,-0.9017441596084285,0.0079322922974824,1.0,-0.0008117870439315735,1.822864055633545,0.0769230769230769,-4.239601304997335,25.198135005310178,10.0,3.3838827838827834,8.0,39.39995916047715,10.0
subject-03,1,322,0.660254001617432,truck,truck,bw,bw_truck_40_n03796401_27288.png,True,-0.7644853478578252,0.0079322922974824,1.0,-0.0008117870439315735,1.822864055633545,0.0769230769230769,-4.239601304997335,25.198135005310178,10.0,3.3838827838827834,8.0,39.39995916047715,10.0
subject-02,1,56,1.38036394119263,oven,clock,bw,bw_clock_40_n03196217_4004.png,False,3.176606229280808,0.1853765547275543,1.0,-0.03288889661071768,2.034745693206787,1.0,-0.9290013048621913,25.28494969010353,10.0,9.5,4.0,16.371371286976817,10.0
subject-01,1,699,0.829716920852661,clock,clock,bw,bw_clock_40_n03196217_4004.png,True,0.2597149764640699,0.1853765547275543,1.0,-0.03288889661071768,2.034745693206787,1.0,-0.9290013048621913,25.28494969010353,10.0,9.5,4.0,16.371371286976817,10.0
subject-04,1,419,1.14612197875977,boat,clock,bw,bw_clock_40_n03196217_4004.png,False,1.5546661869315157,0.1853765547275543,1.0,-0.03288889661071768,2.034745693206787,1.0,-0.9290013048621913,25.28494969010353,10.0,9.5,4.0,16.371371286976817,10.0
subject-03,1,1197,0.974434852600098,clock,clock,bw,bw_clock_40_n03196217_4004.png,True,0.7052888930918548,0.1853765547275543,1.0,-0.03288889661071768,2.034745693206787,1.0,-0.9290013048621913,25.28494969010353,10.0,9.5,4.0,16.371371286976817,10.0
subject-02,1,57,0.798173904418945,bicycle,bicycle,cr,cr_bicycle_40_n02835271_4434.png,True,0.20073198073311135,0.0027447058819234,1.0,-0.0002359430163854929,1.9422032833099363,0.2,-3.1233943864600313,26.1549084498547,10.0,4.526190476190476,8.0,26.80340323762675,9.0
subject-01,1,959,0.657580137252808,bicycle,bicycle,cr,cr_bicycle_40_n02835271_4434.png,True,-0.7402083125872964,0.0027447058819234,1.0,-0.0002359430163854929,1.9422032833099363,0.2,-3.1233943864600313,26.1549084498547,10.0,4.526190476190476,8.0,26.80340323762675,9.0
subject-04,1,1233,0.700770139694214,bicycle,bicycle,cr,cr_bicycle_40_n02835271_4434.png,True,-0.5966395254629204,0.0027447058819234,1.0,-0.0002359430163854929,1.9422032833099363,0.2,-3.1233943864600313,26.1549084498547,10.0,4.526190476190476,8.0,26.80340323762675,9.0
subject-03,1,662,0.762578010559082,bicycle,bicycle,cr,cr_bicycle_40_n02835271_4434.png,True,-0.2858018376987688,0.0027447058819234,1.0,-0.0002359430163854929,1.9422032833099363,0.2,-3.1233943864600313,26.1549084498547,10.0,4.526190476190476,8.0,26.80340323762675,9.0
subject-02,1,58,0.628126859664917,oven,oven,bw,bw_oven_40_n04111531_12468.png,True,-0.6684663730028221,0.0001969271252164,1.0,-1.4603244596828047e-05,1.963984489440918,0.0625,-7.144304993844592,25.368058198029757,10.0,2.35,9.0,55.835644696233835,6.0
subject-01,1,152,0.866644859313965,oven,oven,bw,bw_oven_40_n04111531_12468.png,True,0.47422523343476536,0.0001969271252164,1.0,-1.4603244596828047e-05,1.963984489440918,0.0625,-7.144304993844592,25.368058198029757,10.0,2.35,9.0,55.835644696233835,6.0
subject-04,1,43,0.715978145599365,oven,oven,bw,bw_oven_40_n04111531_12468.png,True,-0.5231761037186043,0.0001969271252164,1.0,-1.4603244596828047e-05,1.963984489440918,0.0625,-7.144304993844592,25.368058198029757,10.0,2.35,9.0,55.835644696233835,6.0
subject-03,1,684,0.666400909423828,oven,oven,bw,bw_oven_40_n04111531_12468.png,True,-0.735729404498846,0.0001969271252164,1.0,-1.4603244596828047e-05,1.963984489440918,0.0625,-7.144304993844592,25.368058198029757,10.0,2.35,9.0,55.835644696233835,6.0
subject-02,1,59,0.593730926513672,bird,bird,cr,cr_bird_40_n02025239_6030.png,True,-0.8442817687570914,0.0050101671367883,1.0,-0.00046758853145390303,1.9805012941360471,0.1111111111111111,-4.003711879848994,26.261369863525033,10.0,2.781349206349206,9.0,33.19312936208558,10.0
subject-01,1,886,0.647272109985352,bird,bird,cr,cr_bird_40_n02025239_6030.png,True,-0.8000864880321553,0.0050101671367883,1.0,-0.00046758853145390303,1.9805012941360471,0.1111111111111111,-4.003711879848994,26.261369863525033,10.0,2.781349206349206,9.0,33.19312936208558,10.0
subject-04,1,307,0.965928077697754,bird,bird,cr,cr_bird_40_n02025239_6030.png,True,0.684225931185114,0.0050101671367883,1.0,-0.00046758853145390303,1.9805012941360471,0.1111111111111111,-4.003711879848994,26.261369863525033,10.0,2.781349206349206,9.0,33.19312936208558,10.0
subject-03,1,614,0.693053960800171,bird,bird,cr,cr_bird_40_n02025239_6030.png,True,-0.6110433574876021,0.0050101671367883,1.0,-0.00046758853145390303,1.9805012941360471,0.1111111111111111,-4.003711879848994,26.261369863525033,10.0,2.781349206349206,9.0,33.19312936208558,10.0
subject-02,1,60,1.48966383934021,car,truck,bw,bw_truck_40_n04467665_53635.png,False,3.7352945126955737,0.0047545162960886,1.0,-0.000493767551165606,2.037484645843506,0.0769230769230769,-4.32625926920618,25.492393943481147,10.0,2.011238761238761,10.0,40.12443191687995,10.0
subject-01,1,1061,0.959993839263916,truck,truck,bw,bw_truck_40_n04467665_53635.png,True,1.0164789987782976,0.0047545162960886,1.0,-0.000493767551165606,2.037484645843506,0.0769230769230769,-4.32625926920618,25.492393943481147,10.0,2.011238761238761,10.0,40.12443191687995,10.0
subject-04,1,255,0.775611877441406,truck,truck,bw,bw_truck_40_n04467665_53635.png,True,-0.23511085572869678,0.0047545162960886,1.0,-0.000493767551165606,2.037484645843506,0.0769230769230769,-4.32625926920618,25.492393943481147,10.0,2.011238761238761,10.0,40.12443191687995,10.0
subject-03,1,361,1.1430459022522,car,truck,bw,bw_truck_40_n04467665_53635.png,False,1.4940708215354177,0.0047545162960886,1.0,-0.000493767551165606,2.037484645843506,0.0769230769230769,-4.32625926920618,25.492393943481147,10.0,2.011238761238761,10.0,40.12443191687995,10.0
subject-02,1,61,0.627465009689331,bottle,bottle,bw,bw_bottle_40_n02823428_3049.png,True,-0.671849430379865,0.0042928028851747,1.0,-0.00042381921838671667,1.755470871925354,0.5,-1.3015977849912177,24.800578312948346,10.0,7.75,1.0,18.110927052376447,10.0
subject-01,1,554,0.71786904335022,bottle,bottle,bw,bw_bottle_40_n02823428_3049.png,True,-0.38999681207286113,0.0042928028851747,1.0,-0.00042381921838671667,1.755470871925354,0.5,-1.3015977849912177,24.800578312948346,10.0,7.75,1.0,18.110927052376447,10.0
subject-04,1,55,0.933598041534424,bottle,bottle,bw,bw_bottle_40_n02823428_3049.png,True,0.5280532484225928,0.0042928028851747,1.0,-0.00042381921838671667,1.755470871925354,0.5,-1.3015977849912177,24.800578312948346,10.0,7.75,1.0,18.110927052376447,10.0
subject-03,1,319,0.765718936920166,bottle,bottle,bw,bw_bottle_40_n02823428_3049.png,True,-0.271108222082788,0.0042928028851747,1.0,-0.00042381921838671667,1.755470871925354,0.5,-1.3015977849912177,24.800578312948346,10.0,7.75,1.0,18.110927052376447,10.0
subject-02,1,62,0.703039169311523,airplane,airplane,bw,bw_airplane_40_n02690373_6836.png,True,-0.2855508315209167,0.000422446464654,1.0,-3.1948599950693766e-05,2.170954465866089,0.3333333333333333,-1.8402213640387213,24.48742601129925,9.0,7.25,0.0,18.93861660884913,9.0
subject-01,1,1223,0.569823026657104,airplane,airplane,bw,bw_airplane_40_n02690373_6836.png,True,-1.249979535386975,0.000422446464654,1.0,-3.1948599950693766e-05,2.170954465866089,0.3333333333333333,-1.8402213640387213,24.48742601129925,9.0,7.25,0.0,18.93861660884913,9.0
subject-04,1,1079,0.640866041183472,airplane,airplane,bw,bw_airplane_40_n02690373_6836.png,True,-0.8860108000767167,0.000422446464654,1.0,-3.1948599950693766e-05,2.170954465866089,0.3333333333333333,-1.8402213640387213,24.48742601129925,9.0,7.25,0.0,18.93861660884913,9.0
subject-03,1,256,0.859776020050049,airplane,airplane,bw,bw_airplane_40_n02690373_6836.png,True,0.16890165608382224,0.000422446464654,1.0,-3.1948599950693766e-05,2.170954465866089,0.3333333333333333,-1.8402213640387213,24.48742601129925,9.0,7.25,0.0,18.93861660884913,9.0
subject-02,1,63,1.04341602325439,bicycle,knife,cr,cr_knife_40_n03041632_28201.png,False,1.4542912311559666,0.0319230183959007,0.5,-6.926065522685299,2.091987133026123,0.0909090909090909,-4.3350494868272165,26.276781044900417,10.0,1.189801864801865,10.0,46.17367192801155,6.0
subject-01,1,887,0.560955047607422,bicycle,knife,cr,cr_knife_40_n03041632_28201.png,False,-1.3014926320834341,0.0319230183959007,0.5,-6.926065522685299,2.091987133026123,0.0909090909090909,-4.3350494868272165,26.276781044900417,10.0,1.189801864801865,10.0,46.17367192801155,6.0
subject-04,1,698,0.820757150650024,bicycle,knife,cr,cr_knife_40_n03041632_28201.png,False,-0.01703320201317915,0.0319230183959007,0.5,-6.926065522685299,2.091987133026123,0.0909090909090909,-4.3350494868272165,26.276781044900417,10.0,1.189801864801865,10.0,46.17367192801155,6.0
subject-03,1,138,0.642106056213379,bicycle,knife,cr,cr_knife_40_n03041632_28201.png,False,-0.8493835286273139,0.0319230183959007,0.5,-6.926065522685299,2.091987133026123,0.0909090909090909,-4.3350494868272165,26.276781044900417,10.0,1.189801864801865,10.0,46.17367192801155,6.0
subject-02,1,64,0.716856956481934,clock,clock,cr,cr_clock_40_n02708093_7076.png,True,-0.2149209780108616,0.0004067113914061,1.0,-3.0458437333717585e-05,1.602869749069214,1.0,-0.7546522188817726,24.416391580394702,10.0,8.5,4.0,17.063405908356554,10.0
subject-01,1,1033,0.689715147018433,clock,clock,cr,cr_clock_40_n02708093_7076.png,True,-0.5535396413912758,0.0004067113914061,1.0,-3.0458437333717585e-05,1.602869749069214,1.0,-0.7546522188817726,24.416391580394702,10.0,8.5,4.0,17.063405908356554,10.0
subject-04,1,518,0.795213937759399,clock,clock,cr,cr_clock_40_n02708093_7076.png,True,-0.14042162209876433,0.0004067113914061,1.0,-3.0458437333717585e-05,1.602869749069214,1.0,-0.7546522188817726,24.416391580394702,10.0,8.5,4.0,17.063405908356554,10.0
subject-03,1,49,0.553719997406006,clock,clock,cr,cr_clock_40_n02708093_7076.png,True,-1.2628637012343573,0.0004067113914061,1.0,-3.0458437333717585e-05,1.602869749069214,1.0,-0.7546522188817726,24.416391580394702,10.0,8.5,4.0,17.063405908356554,10.0
subject-02,1,65,0.834652185440063,bicycle,bicycle,cr,cr_bicycle_40_n02835271_8511.png,True,0.38719133294670816,0.0012917765416204,1.0,-0.00010592306341559632,1.9458680152893064,0.2,-2.9407169770602866,25.933111692313105,10.0,4.875,3.0,26.080243420851023,9.0
subject-01,1,568,0.609277963638306,bicycle,bicycle,cr,cr_bicycle_40_n02835271_8511.png,True,-1.0207902271490144,0.0012917765416204,1.0,-0.00010592306341559632,1.9458680152893064,0.2,-2.9407169770602866,25.933111692313105,10.0,4.875,3.0,26.080243420851023,9.0
subject-04,1,367,0.720315933227539,bicycle,bicycle,cr,cr_bicycle_40_n02835271_8511.png,True,-0.5022220927882243,0.0012917765416204,1.0,-0.00010592306341559632,1.9458680152893064,0.2,-2.9407169770602866,25.933111692313105,10.0,4.875,3.0,26.080243420851023,9.0
subject-03,1,313,0.756889820098877,bicycle,bicycle,cr,cr_bicycle_40_n02835271_8511.png,True,-0.3124118484294559,0.0012917765416204,1.0,-0.00010592306341559632,1.9458680152893064,0.2,-2.9407169770602866,25.933111692313105,10.0,4.875,3.0,26.080243420851023,9.0
subject-02,1,66,0.632537126541138,boat,boat,cr,cr_boat_40_n03662601_26298.png,True,-0.645923219054499,0.0011064445134252,1.0,-9.268951816629212e-05,1.9836798906326296,0.25,-1.8418926645675764,24.0127547418233,9.0,5.083333333333334,9.0,19.323575802347914,9.0
subject-01,1,324,0.67464804649353,boat,boat,cr,cr_boat_40_n03662601_26298.png,True,-0.641062740163416,0.0011064445134252,1.0,-9.268951816629212e-05,1.9836798906326296,0.25,-1.8418926645675764,24.0127547418233,9.0,5.083333333333334,9.0,19.323575802347914,9.0
subject-04,1,1038,0.709611177444458,boat,boat,cr,cr_boat_40_n03662601_26298.png,True,-0.5539322245219331,0.0011064445134252,1.0,-9.268951816629212e-05,1.9836798906326296,0.25,-1.8418926645675764,24.0127547418233,9.0,5.083333333333334,9.0,19.323575802347914,9.0
subject-03,1,647,0.445824146270752,boat,boat,cr,cr_boat_40_n03662601_26298.png,True,-1.7676129315198366,0.0011064445134252,1.0,-9.268951816629212e-05,1.9836798906326296,0.25,-1.8418926645675764,24.0127547418233,9.0,5.083333333333334,9.0,19.323575802347914,9.0
subject-02,1,67,1.00617504119873,airplane,airplane,bw,bw_airplane_40_n02690373_7107.png,True,1.2639333196667557,0.000320327701047,1.0,-2.3722930007084423e-05,2.096501588821411,0.3333333333333333,-1.8077519966283682,24.954801929416135,10.0,6.5,0.0,19.728374930145556,9.0
subject-01,1,190,0.735496044158936,airplane,airplane,bw,bw_airplane_40_n02690373_7107.png,True,-0.28760353937331545,0.000320327701047,1.0,-2.3722930007084423e-05,2.096501588821411,0.3333333333333333,-1.8077519966283682,24.954801929416135,10.0,6.5,0.0,19.728374930145556,9.0
subject-04,1,619,0.774003982543945,airplane,airplane,bw,bw_airplane_40_n02690373_7107.png,True,-0.24287791353426394,0.000320327701047,1.0,-2.3722930007084423e-05,2.096501588821411,0.3333333333333333,-1.8077519966283682,24.954801929416135,10.0,6.5,0.0,19.728374930145556,9.0
subject-03,1,384,0.742476224899292,airplane,airplane,bw,bw_airplane_40_n02690373_7107.png,True,-0.3798403084312869,0.000320327701047,1.0,-2.3722930007084423e-05,2.096501588821411,0.3333333333333333,-1.8077519966283682,24.954801929416135,10.0,6.5,0.0,19.728374930145556,9.0
subject-02,1,68,0.660104990005493,oven,oven,bw,bw_oven_40_n04111531_4012.png,True,-0.5050096173280169,0.0015223196242004,1.0,-0.00014544590999553277,1.9492212533950808,0.0625,-6.665586655630601,25.931357281515375,10.0,2.1708333333333334,9.0,52.64757227102199,6.0
subject-01,1,936,0.586029052734375,oven,oven,bw,bw_oven_40_n04111531_4012.png,True,-1.1558405456908132,0.0015223196242004,1.0,-0.00014544590999553277,1.9492212533950808,0.0625,-6.665586655630601,25.931357281515375,10.0,2.1708333333333334,9.0,52.64757227102199,6.0
subject-04,1,321,0.662701845169067,oven,oven,bw,bw_oven_40_n04111531_4012.png,True,-0.7805312988636972,0.0015223196242004,1.0,-0.00014544590999553277,1.9492212533950808,0.0625,-6.665586655630601,25.931357281515375,10.0,2.1708333333333334,9.0,52.64757227102199,6.0
subject-03,1,781,0.50953483581543,oven,oven,bw,bw_oven_40_n04111531_4012.png,True,-1.469566981001114,0.0015223196242004,1.0,-0.00014544590999553277,1.9492212533950808,0.0625,-6.665586655630601,25.931357281515375,10.0,2.1708333333333334,9.0,52.64757227102199,6.0
subject-02,1,69,0.647974014282227,clock,clock,bw,bw_clock_40_n02708093_3745.png,True,-0.5670173055129282,0.0017285173526033,1.0,-0.00014502861687988477,1.7834330797195437,1.0,-0.7850587097903934,24.394046527682804,10.0,9.75,4.0,15.7293057098121,10.0
subject-01,1,1028,0.858542919158936,clock,clock,bw,bw_clock_40_n02708093_3745.png,True,0.42716197084734464,0.0017285173526033,1.0,-0.00014502861687988477,1.7834330797195437,1.0,-0.7850587097903934,24.394046527682804,10.0,9.75,4.0,15.7293057098121,10.0
subject-04,1,630,0.567594051361084,clock,clock,bw,bw_clock_40_n02708093_3745.png,True,-1.2399566838394356,0.0017285173526033,1.0,-0.00014502861687988477,1.7834330797195437,1.0,-0.7850587097903934,24.394046527682804,10.0,9.75,4.0,15.7293057098121,10.0
subject-03,1,851,0.704499959945679,clock,clock,bw,bw_clock_40_n02708093_3745.png,True,-0.5574976539433465,0.0017285173526033,1.0,-0.00014502861687988477,1.7834330797195437,1.0,-0.7850587097903934,24.394046527682804,10.0,9.75,4.0,15.7293057098121,10.0
subject-02,1,70,1.39762711524963,bird,bird,cr,cr_bird_40_n01819313_6430.png,True,3.264847236305106,0.0104292519390583,1.0,-0.0010714904936450834,1.9661701917648315,0.1111111111111111,-3.989852345285552,26.577369917184114,10.0,1.761111111111111,10.0,33.868561745298386,10.0
subject-01,1,977,0.654682874679565,bird,bird,cr,cr_bird_40_n01819313_6430.png,True,-0.757038186254606,0.0104292519390583,1.0,-0.0010714904936450834,1.9661701917648315,0.1111111111111111,-3.989852345285552,26.577369917184114,10.0,1.761111111111111,10.0,33.868561745298386,10.0
subject-04,1,647,0.700296878814697,bird,bird,cr,cr_bird_40_n01819313_6430.png,True,-0.5989256479042105,0.0104292519390583,1.0,-0.0010714904936450834,1.9661701917648315,0.1111111111111111,-3.989852345285552,26.577369917184114,10.0,1.761111111111111,10.0,33.868561745298386,10.0
subject-03,1,1204,0.810899972915649,bird,bird,cr,cr_bird_40_n01819313_6430.png,True,-0.05974612704140407,0.0104292519390583,1.0,-0.0010714904936450834,1.9661701917648315,0.1111111111111111,-3.989852345285552,26.577369917184114,10.0,1.761111111111111,10.0,33.868561745298386,10.0
subject-02,1,71,1.14139986038208,keyboard,keyboard,cr,cr_keyboard_40_n04505470_2787.png,True,1.955137276715371,0.0003450348158366,1.0,-2.527268873647331e-05,1.803991675376892,0.1666666666666666,-3.8522489774726023,23.101832015730906,9.0,3.276190476190476,9.0,33.98085597888587,9.0
subject-01,1,1244,0.607940912246704,keyboard,keyboard,cr,cr_keyboard_40_n04505470_2787.png,True,-1.02855700887435,0.0003450348158366,1.0,-2.527268873647331e-05,1.803991675376892,0.1666666666666666,-3.8522489774726023,23.101832015730906,9.0,3.276190476190476,9.0,33.98085597888587,9.0
subject-04,1,464,0.619653940200806,keyboard,keyboard,cr,cr_keyboard_40_n04505470_2787.png,True,-0.9884774568028827,0.0003450348158366,1.0,-2.527268873647331e-05,1.803991675376892,0.1666666666666666,-3.8522489774726023,23.101832015730906,9.0,3.276190476190476,9.0,33.98085597888587,9.0
subject-03,1,750,0.563259840011597,keyboard,keyboard,cr,cr_keyboard_40_n04505470_2787.png,True,-1.218235217733351,0.0003450348158366,1.0,-2.527268873647331e-05,1.803991675376892,0.1666666666666666,-3.8522489774726023,23.101832015730906,9.0,3.276190476190476,9.0,33.98085597888587,9.0
subject-02,1,72,0.649778127670288,bicycle,bicycle,bw,bw_bicycle_40_n03792782_818.png,True,-0.5577955493270218,0.0031737626995891,1.0,-0.0002931189935356863,2.0184457302093506,0.2,-3.2277980209543076,25.91757577075623,10.0,3.076190476190476,9.0,29.71136964653339,10.0
subject-01,1,899,0.816813945770264,bicycle,bicycle,bw,bw_bicycle_40_n03792782_818.png,True,0.1847630399103462,0.0031737626995891,1.0,-0.0002931189935356863,2.0184457302093506,0.2,-3.2277980209543076,25.91757577075623,10.0,3.076190476190476,9.0,29.71136964653339,10.0
subject-04,1,701,0.580021142959595,bicycle,bicycle,bw,bw_bicycle_40_n03792782_818.png,True,-1.1799266787979827,0.0031737626995891,1.0,-0.0002931189935356863,2.0184457302093506,0.2,-3.2277980209543076,25.91757577075623,10.0,3.076190476190476,9.0,29.71136964653339,10.0
subject-03,1,187,0.724997997283936,bicycle,bicycle,bw,bw_bicycle_40_n03792782_818.png,True,-0.461605472177447,0.0031737626995891,1.0,-0.0002931189935356863,2.0184457302093506,0.2,-3.2277980209543076,25.91757577075623,10.0,3.076190476190476,9.0,29.71136964653339,10.0
subject-02,1,73,0.603532075881958,chair,chair,bw,bw_chair_40_n04099969_24495.png,True,-0.7941830275060624,0.0025967243127524,1.0,-0.0002490592185440355,1.9373528957366943,0.0666666666666666,-5.150784209741778,25.633786428254098,10.0,2.4178571428571423,9.0,45.24212483997491,10.0
subject-01,1,1027,0.604815006256104,chair,chair,bw,bw_chair_40_n04099969_24495.png,True,-1.0467150465349817,0.0025967243127524,1.0,-0.0002490592185440355,1.9373528957366943,0.0666666666666666,-5.150784209741778,25.633786428254098,10.0,2.4178571428571423,9.0,45.24212483997491,10.0
subject-04,1,1045,0.847129106521606,chair,chair,bw,bw_chair_40_n04099969_24495.png,True,0.11035852366732739,0.0025967243127524,1.0,-0.0002490592185440355,1.9373528957366943,0.0666666666666666,-5.150784209741778,25.633786428254098,10.0,2.4178571428571423,9.0,45.24212483997491,10.0
subject-03,1,1110,0.644978046417236,chair,chair,bw,bw_chair_40_n04099969_24495.png,True,-0.8359480273589005,0.0025967243127524,1.0,-0.0002490592185440355,1.9373528957366943,0.0666666666666666,-5.150784209741778,25.633786428254098,10.0,2.4178571428571423,9.0,45.24212483997491,10.0
subject-02,1,74,0.688867092132568,knife,knife,bw,bw_knife_40_n03041632_33739.png,True,-0.35799164441939824,2.112830406986177e-05,1.0,-1.2516983237682455e-06,2.061586618423462,0.1666666666666666,-3.191137722723836,25.328693894989556,10.0,4.456818181818182,7.0,31.32621854694135,6.0
subject-01,1,1069,0.6702880859375,knife,knife,bw,bw_knife_40_n03041632_33739.png,True,-0.6663892625263186,2.112830406986177e-05,1.0,-1.2516983237682455e-06,2.061586618423462,0.1666666666666666,-3.191137722723836,25.328693894989556,10.0,4.456818181818182,7.0,31.32621854694135,6.0
subject-04,1,715,1.42949509620667,airplane,knife,bw,bw_knife_40_n03041632_33739.png,False,2.9235214443424957,2.112830406986177e-05,1.0,-1.2516983237682455e-06,2.061586618423462,0.1666666666666666,-3.191137722723836,25.328693894989556,10.0,4.456818181818182,7.0,31.32621854694135,6.0
subject-03,1,608,0.842159986495972,knife,knife,bw,bw_knife_40_n03041632_33739.png,True,0.08649182026949323,2.112830406986177e-05,1.0,-1.2516983237682455e-06,2.061586618423462,0.1666666666666666,-3.191137722723836,25.328693894989556,10.0,4.456818181818182,7.0,31.32621854694135,6.0
subject-02,1,75,0.85273003578186,dog,bear,cr,cr_bear_40_n02134418_685.png,False,0.47959657161994484,0.0514624491333961,1.0,-0.007167813673659847,2.2365550994873047,0.1666666666666666,-3.0439170936695494,27.016019858419895,10.0,4.235714285714286,6.0,28.00069588395056,10.0
subject-01,1,150,1.05311799049377,bear,bear,cr,cr_bear_40_n02134418_685.png,True,1.557426759277477,0.0514624491333961,1.0,-0.007167813673659847,2.2365550994873047,0.1666666666666666,-3.0439170936695494,27.016019858419895,10.0,4.235714285714286,6.0,28.00069588395056,10.0
subject-04,1,904,0.797651052474976,bear,bear,cr,cr_bear_40_n02134418_685.png,True,-0.12864895530034634,0.0514624491333961,1.0,-0.007167813673659847,2.2365550994873047,0.1666666666666666,-3.0439170936695494,27.016019858419895,10.0,4.235714285714286,6.0,28.00069588395056,10.0
subject-03,1,767,1.01824116706848,dog,bear,cr,cr_bear_40_n02134418_685.png,False,0.910219882345943,0.0514624491333961,1.0,-0.007167813673659847,2.2365550994873047,0.1666666666666666,-3.0439170936695494,27.016019858419895,10.0,4.235714285714286,6.0,28.00069588395056,10.0
subject-02,1,76,1.01276397705078,bear,bear,cr,cr_bear_40_n02134418_1482.png,True,1.297612777041376,0.0001734273537294,1.0,-1.2815080739616427e-05,2.1957340240478516,0.1666666666666666,-2.945679036317894,26.04171166587912,10.0,4.426190476190476,8.0,25.78978524254142,9.0
subject-01,1,1039,0.984439849853516,bear,bear,cr,cr_bear_40_n02134418_1482.png,True,1.1584831352664047,0.0001734273537294,1.0,-1.2815080739616427e-05,2.1957340240478516,0.1666666666666666,-2.945679036317894,26.04171166587912,10.0,4.426190476190476,8.0,25.78978524254142,9.0
subject-04,1,870,0.888248920440674,bear,bear,cr,cr_bear_40_n02134418_1482.png,True,0.30899089209382397,0.0001734273537294,1.0,-1.2815080739616427e-05,2.1957340240478516,0.1666666666666666,-2.945679036317894,26.04171166587912,10.0,4.426190476190476,8.0,25.78978524254142,9.0
subject-03,1,42,0.93907904624939,dog,bear,cr,cr_bear_40_n02134418_1482.png,False,0.5398903550213638,0.0001734273537294,1.0,-1.2815080739616427e-05,2.1957340240478516,0.1666666666666666,-2.945679036317894,26.04171166587912,10.0,4.426190476190476,8.0,25.78978524254142,9.0
subject-02,1,77,0.590619802474976,cat,cat,cr,cr_cat_40_n02123394_2395.png,True,-0.8601843320542919,0.0007336005219258,1.0,-5.835464983467875e-05,2.055316925048828,0.1428571428571428,-3.412469008974044,26.04420302953804,10.0,4.734523809523809,7.0,29.516874892665292,10.0
subject-01,1,252,0.719900131225586,cat,cat,cr,cr_cat_40_n02123394_2395.png,True,-0.37819845017590886,0.0007336005219258,1.0,-5.835464983467875e-05,2.055316925048828,0.1428571428571428,-3.412469008974044,26.04420302953804,10.0,4.734523809523809,7.0,29.516874892665292,10.0
subject-04,1,822,1.20107793807983,cat,cat,cr,cr_cat_40_n02123394_2395.png,True,1.8201351012699565,0.0007336005219258,1.0,-5.835464983467875e-05,2.055316925048828,0.1428571428571428,-3.412469008974044,26.04420302953804,10.0,4.734523809523809,7.0,29.516874892665292,10.0
subject-03,1,607,0.654331922531128,cat,cat,cr,cr_cat_40_n02123394_2395.png,True,-0.7921895165450396,0.0007336005219258,1.0,-5.835464983467875e-05,2.055316925048828,0.1428571428571428,-3.412469008974044,26.04420302953804,10.0,4.734523809523809,7.0,29.516874892665292,10.0
subject-02,1,78,0.658284902572632,bottle,bottle,cr,cr_bottle_40_n03983396_3702.png,True,-0.5143130251148839,0.0136069692671298,1.0,-0.0013616410481304222,1.850010633468628,1.0,-1.1347650480702633,25.59630674496293,10.0,8.041666666666666,9.0,19.440236586947815,10.0
subject-01,1,442,0.628324031829834,bottle,bottle,cr,cr_bottle_40_n03983396_3702.png,True,-0.9101537510205878,0.0136069692671298,1.0,-0.0013616410481304222,1.850010633468628,1.0,-1.1347650480702633,25.59630674496293,10.0,8.041666666666666,9.0,19.440236586947815,10.0
subject-04,1,155,0.804394960403442,bottle,bottle,cr,cr_bottle_40_n03983396_3702.png,True,-0.09607199843672942,0.0136069692671298,1.0,-0.0013616410481304222,1.850010633468628,1.0,-1.1347650480702633,25.59630674496293,10.0,8.041666666666666,9.0,19.440236586947815,10.0
subject-03,1,238,0.767427921295166,bottle,bottle,cr,cr_bottle_40_n03983396_3702.png,True,-0.26311339615783347,0.0136069692671298,1.0,-0.0013616410481304222,1.850010633468628,1.0,-1.1347650480702633,25.59630674496293,10.0,8.041666666666666,9.0,19.440236586947815,10.0
subject-02,1,79,0.790224075317383,truck,truck,bw,bw_truck_40_n03417042_27907.png,True,0.16009629442903653,0.0267069973051548,1.0,-0.0034293257991603447,1.9053549766540527,0.0769230769230769,-4.5779803605936,24.79010945931077,10.0,2.052197802197802,10.0,41.6791090792013,10.0
subject-01,1,1132,0.925692081451416,truck,truck,bw,bw_truck_40_n03417042_27907.png,True,0.817223930948927,0.0267069973051548,1.0,-0.0034293257991603447,1.9053549766540527,0.0769230769230769,-4.5779803605936,24.79010945931077,10.0,2.052197802197802,10.0,41.6791090792013,10.0
subject-04,1,585,0.958055019378662,truck,truck,bw,bw_truck_40_n03417042_27907.png,True,0.6461945280333601,0.0267069973051548,1.0,-0.0034293257991603447,1.9053549766540527,0.0769230769230769,-4.5779803605936,24.79010945931077,10.0,2.052197802197802,10.0,41.6791090792013,10.0
subject-03,1,109,0.869536876678467,truck,truck,bw,bw_truck_40_n03417042_27907.png,True,0.21456406866301275,0.0267069973051548,1.0,-0.0034293257991603447,1.9053549766540527,0.0769230769230769,-4.5779803605936,24.79010945931077,10.0,2.052197802197802,10.0,41.6791090792013,10.0
subject-02,1,80,0.689796924591064,bottle,bottle,cr,cr_bottle_40_n03983396_3899.png,True,-0.3532387900352246,0.0076758125796914,1.0,-0.0007578024902414271,1.9826537370681765,0.5,-1.4424030011642264,26.303392217494547,10.0,9.083333333333332,1.0,19.42751324373155,10.0
subject-01,1,1255,0.613986015319824,bottle,bottle,cr,cr_bottle_40_n03983396_3899.png,True,-0.9934416824396469,0.0076758125796914,1.0,-0.0007578024902414271,1.9826537370681765,0.5,-1.4424030011642264,26.303392217494547,10.0,9.083333333333332,1.0,19.42751324373155,10.0
subject-04,1,450,0.620304107666016,bottle,bottle,cr,cr_bottle_40_n03983396_3899.png,True,-0.9853367737311477,0.0076758125796914,1.0,-0.0007578024902414271,1.9826537370681765,0.5,-1.4424030011642264,26.303392217494547,10.0,9.083333333333332,1.0,19.42751324373155,10.0
subject-03,1,1155,1.02856993675232,bottle,bottle,cr,cr_bottle_40_n03983396_3899.png,True,0.9585390576697368,0.0076758125796914,1.0,-0.0007578024902414271,1.9826537370681765,0.5,-1.4424030011642264,26.303392217494547,10.0,9.083333333333332,1.0,19.42751324373155,10.0
subject-02,1,81,0.84327507019043,bicycle,bicycle,bw,bw_bicycle_40_n03792782_9412.png,True,0.43126735461656507,0.0073879058472812,1.0,-0.0007353744055063559,1.9665080308914185,0.1428571428571428,-3.4868789005234073,25.355499892961234,10.0,3.004304029304029,9.0,32.348873328978236,6.0
subject-01,1,963,0.490805864334106,bicycle,bicycle,bw,bw_bicycle_40_n03792782_9412.png,True,-1.708981377928579,0.0073879058472812,1.0,-0.0007353744055063559,1.9665080308914185,0.1428571428571428,-3.4868789005234073,25.355499892961234,10.0,3.004304029304029,9.0,32.348873328978236,6.0
subject-04,1,345,1.19223403930664,bicycle,bicycle,bw,bw_bicycle_40_n03792782_9412.png,True,1.7774139799414304,0.0073879058472812,1.0,-0.0007353744055063559,1.9665080308914185,0.1428571428571428,-3.4868789005234073,25.355499892961234,10.0,3.004304029304029,9.0,32.348873328978236,6.0
subject-03,1,542,0.622460842132568,bicycle,bicycle,bw,bw_bicycle_40_n03792782_9412.png,True,-0.9412861048779301,0.0073879058472812,1.0,-0.0007353744055063559,1.9665080308914185,0.1428571428571428,-3.4868789005234073,25.355499892961234,10.0,3.004304029304029,9.0,32.348873328978236,6.0
subject-02,1,82,0.793078899383545,bicycle,bicycle,bw,bw_bicycle_40_n03792782_24591.png,True,0.17468877606906194,0.0107199978083372,1.0,-0.001107471273468223,2.067277193069458,0.2,-2.977899287153698,23.59991060011089,9.0,4.175,8.0,27.27606748671365,9.0
subject-01,1,136,0.765634059906006,bicycle,bicycle,bw,bw_bicycle_40_n03792782_24591.png,True,-0.11253518268004095,0.0107199978083372,1.0,-0.001107471273468223,2.067277193069458,0.2,-2.977899287153698,23.59991060011089,9.0,4.175,8.0,27.27606748671365,9.0
subject-04,1,877,0.776918172836304,bicycle,bicycle,bw,bw_bicycle_40_n03792782_24591.png,True,-0.22880069711115264,0.0107199978083372,1.0,-0.001107471273468223,2.067277193069458,0.2,-2.977899287153698,23.59991060011089,9.0,4.175,8.0,27.27606748671365,9.0
subject-03,1,931,0.641759157180786,bicycle,bicycle,bw,bw_bicycle_40_n03792782_24591.png,True,-0.8510063622937224,0.0107199978083372,1.0,-0.001107471273468223,2.067277193069458,0.2,-2.977899287153698,23.59991060011089,9.0,4.175,8.0,27.27606748671365,9.0
subject-02,1,83,0.679260015487671,dog,cat,cr,cr_cat_40_n02123597_9656.png,False,-0.40709837965280554,0.0363784059882164,1.0,-0.004364284602677366,2.145799160003662,0.125,-3.6174925095233457,26.850464843213558,10.0,3.673015873015873,8.0,32.213269295180396,10.0
subject-01,1,372,0.785560846328735,cat,cat,cr,cr_cat_40_n02123597_9656.png,True,0.0032172869743086682,0.0363784059882164,1.0,-0.004364284602677366,2.145799160003662,0.125,-3.6174925095233457,26.850464843213558,10.0,3.673015873015873,8.0,32.213269295180396,10.0
subject-04,1,482,0.641890048980713,cat,cat,cr,cr_cat_40_n02123597_9656.png,True,-0.8810642530312094,0.0363784059882164,1.0,-0.004364284602677366,2.145799160003662,0.125,-3.6174925095233457,26.850464843213558,10.0,3.673015873015873,8.0,32.213269295180396,10.0
subject-03,1,1250,1.39637184143066,dog,cat,cr,cr_cat_40_n02123597_9656.png,False,2.679158769462035,0.0363784059882164,1.0,-0.004364284602677366,2.145799160003662,0.125,-3.6174925095233457,26.850464843213558,10.0,3.673015873015873,8.0,32.213269295180396,10.0
subject-02,1,84,0.984783887863159,keyboard,keyboard,bw,bw_keyboard_40_n04505470_4965.png,True,1.1545920765379134,0.0005692577105946,1.0,-4.613505926163309e-05,1.5713742971420288,0.1428571428571428,-4.136080554259108,22.267329249356408,9.0,3.411122211122211,9.0,34.20398317590414,9.0
subject-01,1,425,0.738049983978271,keyboard,keyboard,bw,bw_keyboard_40_n04505470_4965.png,True,-0.27276798911622946,0.0005692577105946,1.0,-4.613505926163309e-05,1.5713742971420288,0.1428571428571428,-4.136080554259108,22.267329249356408,9.0,3.411122211122211,9.0,34.20398317590414,9.0
subject-04,1,187,0.785360097885132,keyboard,keyboard,bw,bw_keyboard_40_n04505470_4965.png,True,-0.1880213402340032,0.0005692577105946,1.0,-4.613505926163309e-05,1.5713742971420288,0.1428571428571428,-4.136080554259108,22.267329249356408,9.0,3.411122211122211,9.0,34.20398317590414,9.0
subject-03,1,1196,0.861023902893066,keyboard,keyboard,bw,bw_keyboard_40_n04505470_4965.png,True,0.17473939588449042,0.0005692577105946,1.0,-4.613505926163309e-05,1.5713742971420288,0.1428571428571428,-4.136080554259108,22.267329249356408,9.0,3.411122211122211,9.0,34.20398317590414,9.0
subject-02,1,85,0.646533012390137,car,car,bw,bw_car_40_n04285008_11410.png,True,-0.5743830111277873,1.0001161098480225,1.0,-0.33619287291403827,1.9290512800216677,0.0833333333333333,-4.04924785995208,26.02542293071747,10.0,2.900274725274725,9.0,42.18165056365017,6.0
subject-01,1,142,0.764680862426758,car,car,bw,bw_car_40_n04285008_11410.png,True,-0.11807220003700916,1.0001161098480225,1.0,-0.33619287291403827,1.9290512800216677,0.0833333333333333,-4.04924785995208,26.02542293071747,10.0,2.900274725274725,9.0,42.18165056365017,6.0
subject-04,1,462,1.10023784637451,car,car,bw,bw_car_40_n04285008_11410.png,True,1.333019418130046,1.0001161098480225,1.0,-0.33619287291403827,1.9290512800216677,0.0833333333333333,-4.04924785995208,26.02542293071747,10.0,2.900274725274725,9.0,42.18165056365017,6.0
subject-03,1,829,0.812656879425049,car,car,bw,bw_car_40_n04285008_11410.png,True,-0.05152711584706644,1.0001161098480225,1.0,-0.33619287291403827,1.9290512800216677,0.0833333333333333,-4.04924785995208,26.02542293071747,10.0,2.900274725274725,9.0,42.18165056365017,6.0
subject-02,1,86,0.880283117294312,boat,boat,bw,bw_boat_40_n03344393_7659.png,True,0.6204346151485309,0.0531531907618045,1.0,-0.006580439183159585,1.909675359725952,0.25,-2.6667513758372428,25.443510685116053,10.0,4.3428571428571425,9.0,26.164225405507995,10.0
subject-01,1,366,0.780760049819946,boat,boat,bw,bw_boat_40_n03344393_7659.png,True,-0.024670002045182302,0.0531531907618045,1.0,-0.006580439183159585,1.909675359725952,0.25,-2.6667513758372428,25.443510685116053,10.0,4.3428571428571425,9.0,26.164225405507995,10.0
subject-04,1,714,1.18365406990051,boat,boat,bw,bw_boat_40_n03344393_7659.png,True,1.735967789364771,0.0531531907618045,1.0,-0.006580439183159585,1.909675359725952,0.25,-2.6667513758372428,25.443510685116053,10.0,4.3428571428571425,9.0,26.164225405507995,10.0
subject-03,1,1068,0.558950185775757,boat,boat,bw,bw_boat_40_n03344393_7659.png,True,-1.2383962770831676,0.0531531907618045,1.0,-0.006580439183159585,1.909675359725952,0.25,-2.6667513758372428,25.443510685116053,10.0,4.3428571428571425,9.0,26.164225405507995,10.0
subject-02,1,87,0.536042928695679,oven,oven,bw,bw_oven_40_n04111531_12103.png,True,-1.1391549481543113,0.0017654824769124,1.0,-0.0001662511732390494,1.991064429283142,0.0625,-6.626111626499274,25.750560157350264,10.0,2.175595238095238,9.0,51.814106540131526,6.0
subject-01,1,748,1.2056200504303,cat,oven,bw,bw_oven_40_n04111531_12103.png,False,2.443294138520027,0.0017654824769124,1.0,-0.0001662511732390494,1.991064429283142,0.0625,-6.626111626499274,25.750560157350264,10.0,2.175595238095238,9.0,51.814106540131526,6.0
subject-04,1,25,0.775386095046997,oven,oven,bw,bw_oven_40_n04111531_12103.png,True,-0.2362015146465301,0.0017654824769124,1.0,-0.0001662511732390494,1.991064429283142,0.0625,-6.626111626499274,25.750560157350264,10.0,2.175595238095238,9.0,51.814106540131526,6.0
subject-03,1,63,1.01512002944946,oven,oven,bw,bw_oven_40_n04111531_12103.png,True,0.8956188407466651,0.0017654824769124,1.0,-0.0001662511732390494,1.991064429283142,0.0625,-6.626111626499274,25.750560157350264,10.0,2.175595238095238,9.0,51.814106540131526,6.0
subject-02,1,88,0.694301843643188,car,car,cr,cr_car_40_n02814533_6297.png,True,-0.3302118198842065,0.2951880097389221,1.0,-0.08770734620826615,1.9819189310073853,0.1428571428571428,-3.951970473816896,25.9658060669899,10.0,3.6412087912087907,8.0,38.098324217051605,6.0
subject-01,1,1243,0.756302833557129,car,car,cr,cr_car_40_n02814533_6297.png,True,-0.16673923103347946,0.2951880097389221,1.0,-0.08770734620826615,1.9819189310073853,0.1428571428571428,-3.951970473816896,25.9658060669899,10.0,3.6412087912087907,8.0,38.098324217051605,6.0
subject-04,1,204,0.782323122024536,car,car,cr,cr_car_40_n02814533_6297.png,True,-0.2026916816229882,0.2951880097389221,1.0,-0.08770734620826615,1.9819189310073853,0.1428571428571428,-3.951970473816896,25.9658060669899,10.0,3.6412087912087907,8.0,38.098324217051605,6.0
subject-03,1,22,0.681079864501953,car,car,cr,cr_car_40_n02814533_6297.png,True,-0.6670595603934333,0.2951880097389221,1.0,-0.08770734620826615,1.9819189310073853,0.1428571428571428,-3.951970473816896,25.9658060669899,10.0,3.6412087912087907,8.0,38.098324217051605,6.0
subject-02,1,89,1.22994017601013,bird,bird,bw,bw_bird_40_n01534433_8318.png,True,2.407712601940704,0.0037654875777661,1.0,-0.0003427854516789133,2.1798503398895264,0.125,-3.331937159480125,26.39629783621058,10.0,2.48015873015873,10.0,32.107969155259156,10.0
subject-01,1,861,0.831907033920288,bird,bird,bw,bw_bird_40_n01534433_8318.png,True,0.2724370978850593,0.0037654875777661,1.0,-0.0003427854516789133,2.1798503398895264,0.125,-3.331937159480125,26.39629783621058,10.0,2.48015873015873,10.0,32.107969155259156,10.0
subject-04,1,435,0.739609003067017,bird,bird,bw,bw_bird_40_n01534433_8318.png,True,-0.40902546101416215,0.0037654875777661,1.0,-0.0003427854516789133,2.1798503398895264,0.125,-3.331937159480125,26.39629783621058,10.0,2.48015873015873,10.0,32.107969155259156,10.0
subject-03,1,547,1.05136489868164,bird,bird,bw,bw_bird_40_n01534433_8318.png,True,1.065176517471485,0.0037654875777661,1.0,-0.0003427854516789133,2.1798503398895264,0.125,-3.331937159480125,26.39629783621058,10.0,2.48015873015873,10.0,32.107969155259156,10.0
subject-02,1,90,0.625764846801758,boat,boat,bw,bw_boat_40_n03344393_3443.png,True,-0.6805398418192347,0.002880229614675,1.0,-0.00025305373246680655,2.060626983642578,0.3333333333333333,-2.1190634316377666,26.160340919159353,10.0,4.211111111111111,9.0,24.543302767578123,10.0
subject-01,1,742,0.564977169036865,boat,boat,bw,bw_boat_40_n03344393_3443.png,True,-1.278128579354055,0.002880229614675,1.0,-0.00025305373246680655,2.060626983642578,0.3333333333333333,-2.1190634316377666,26.160340919159353,10.0,4.211111111111111,9.0,24.543302767578123,10.0
subject-04,1,159,0.577404975891113,boat,boat,bw,bw_boat_40_n03344393_3443.png,True,-1.1925642715175113,0.002880229614675,1.0,-0.00025305373246680655,2.060626983642578,0.3333333333333333,-2.1190634316377666,26.160340919159353,10.0,4.211111111111111,9.0,24.543302767578123,10.0
subject-03,1,999,0.481385946273804,boat,boat,bw,bw_boat_40_n03344393_3443.png,True,-1.6012507313958904,0.002880229614675,1.0,-0.00025305373246680655,2.060626983642578,0.3333333333333333,-2.1190634316377666,26.160340919159353,10.0,4.211111111111111,9.0,24.543302767578123,10.0
subject-02,1,91,0.627472877502441,keyboard,keyboard,cr,cr_keyboard_40_n03085013_19483.png,True,-0.6718092139196935,0.0011517386883497,1.0,-9.710068045771242e-05,1.7910895347595217,0.1,-4.284389508641153,24.739662228152156,10.0,3.416305916305916,8.0,37.66981304716916,6.0
subject-01,1,369,0.954035043716431,keyboard,keyboard,cr,cr_keyboard_40_n03085013_19483.png,True,0.9818650230897745,0.0011517386883497,1.0,-9.710068045771242e-05,1.7910895347595217,0.1,-4.284389508641153,24.739662228152156,10.0,3.416305916305916,8.0,37.66981304716916,6.0
subject-04,1,643,0.703061103820801,keyboard,keyboard,cr,cr_keyboard_40_n03085013_19483.png,True,-0.5855728501287429,0.0011517386883497,1.0,-9.710068045771242e-05,1.7910895347595217,0.1,-4.284389508641153,24.739662228152156,10.0,3.416305916305916,8.0,37.66981304716916,6.0
subject-03,1,324,0.660362958908081,keyboard,keyboard,cr,cr_keyboard_40_n03085013_19483.png,True,-0.7639756330911269,0.0011517386883497,1.0,-9.710068045771242e-05,1.7910895347595217,0.1,-4.284389508641153,24.739662228152156,10.0,3.416305916305916,8.0,37.66981304716916,6.0
subject-02,1,92,1.33754801750183,cat,bird,cr,cr_bird_40_n01797886_6946.png,False,2.957751909056903,0.0609404668211936,1.0,-0.007910943198262545,2.0628840923309326,0.125,-3.548892705697953,26.33962269872427,10.0,2.4718253968253965,10.0,31.843177652183087,10.0
subject-01,1,873,1.13779902458191,bird,bird,cr,cr_bird_40_n01797886_6946.png,True,2.0493293983003906,0.0609404668211936,1.0,-0.007910943198262545,2.0628840923309326,0.125,-3.548892705697953,26.33962269872427,10.0,2.4718253968253965,10.0,31.843177652183087,10.0
subject-04,1,35,1.49330496788025,bird,bird,cr,cr_bird_40_n01797886_6946.png,True,3.2317598513659407,0.0609404668211936,1.0,-0.007910943198262545,2.0628840923309326,0.125,-3.548892705697953,26.33962269872427,10.0,2.4718253968253965,10.0,31.843177652183087,10.0
subject-03,1,791,0.987740039825439,oven,bird,cr,cr_bird_40_n01797886_6946.png,False,0.7675320928083706,0.0609404668211936,1.0,-0.007910943198262545,2.0628840923309326,0.125,-3.548892705697953,26.33962269872427,10.0,2.4718253968253965,10.0,31.843177652183087,10.0
subject-02,1,93,1.12492918968201,truck,truck,bw,bw_truck_40_n03417042_27093.png,True,1.8709471640431041,0.0050810906104743,1.0,-0.0004900702448618517,1.7619956731796265,0.0769230769230769,-4.367823372144678,25.125941309612244,10.0,2.9478687978687974,9.0,40.132224214218155,10.0
subject-01,1,537,0.681194067001343,truck,truck,bw,bw_truck_40_n03417042_27093.png,True,-0.6030376404753353,0.0050810906104743,1.0,-0.0004900702448618517,1.7619956731796265,0.0769230769230769,-4.367823372144678,25.125941309612244,10.0,2.9478687978687974,9.0,40.132224214218155,10.0
