subject_id,Session,trial,rt,object_response,category,condition,item_id,response_correct,rt_zscore,output_entropy,output_rank_correct,output_logprob_correct,midpoint_entropy,midpoint_rank_correct,midpoint_logprob_correct,auc_entropy,layer_biggest_change_entropy,auc_rank_correct,layer_biggest_change_rank_correct,auc_logprob_correct,layer_biggest_change_logprob_correct
subject-01,1,1,0.828052043914795,oven,oven,1-10-10,1-10-10_oven_10_n04111531_17072.png,True,-0.4227482683495018,0.1598097532987594,1.0,-0.0274223593505121,1.9906238317489624,0.0625,-6.845165581569106,26.25414089858532,10.0,1.9928571428571429,9.0,55.15084814465845,10.0
subject-02,1,791,0.988016843795776,oven,oven,1-10-10,1-10-10_oven_10_n04111531_17072.png,True,0.4259773780673941,0.1598097532987594,1.0,-0.0274223593505121,1.9906238317489624,0.0625,-6.845165581569106,26.25414089858532,10.0,1.9928571428571429,9.0,55.15084814465845,10.0
subject-03,1,845,0.932158946990967,oven,oven,1-10-10,1-10-10_oven_10_n04111531_17072.png,True,-0.38664568733262783,0.1598097532987594,1.0,-0.0274223593505121,1.9906238317489624,0.0625,-6.845165581569106,26.25414089858532,10.0,1.9928571428571429,9.0,55.15084814465845,10.0
subject-04,1,894,0.723114967346191,bottle,oven,1-10-10,1-10-10_oven_10_n04111531_17072.png,False,-1.4847582479480905,0.1598097532987594,1.0,-0.0274223593505121,1.9906238317489624,0.0625,-6.845165581569106,26.25414089858532,10.0,1.9928571428571429,9.0,55.15084814465845,10.0
subject-01,1,2,0.925548076629639,boat,airplane,16-10-10,16-10-10_airplane_10_n02690373_4183.png,False,0.0511567988974066,1.5893433094024658,0.3333333333333333,-1.8511604153510615,2.0141854286193848,0.3333333333333333,-2.078929668810489,27.767788410186768,10.0,3.151190476190476,0.0,26.60568803624619,10.0
subject-02,1,443,0.773045063018799,airplane,airplane,16-10-10,16-10-10_airplane_10_n02690373_4183.png,True,-0.813081851644967,1.5893433094024658,0.3333333333333333,-1.8511604153510615,2.0141854286193848,0.3333333333333333,-2.078929668810489,27.767788410186768,10.0,3.151190476190476,0.0,26.60568803624619,10.0
subject-03,1,537,0.862241983413696,airplane,airplane,16-10-10,16-10-10_airplane_10_n02690373_4183.png,True,-0.7113891969920423,1.5893433094024658,0.3333333333333333,-1.8511604153510615,2.0141854286193848,0.3333333333333333,-2.078929668810489,27.767788410186768,10.0,3.151190476190476,0.0,26.60568803624619,10.0
subject-04,1,1128,0.830818176269531,airplane,airplane,16-10-10,16-10-10_airplane_10_n02690373_4183.png,True,-1.0303000926182626,1.5893433094024658,0.3333333333333333,-1.8511604153510615,2.0141854286193848,0.3333333333333333,-2.078929668810489,27.767788410186768,10.0,3.151190476190476,0.0,26.60568803624619,10.0
subject-01,1,3,0.775381088256836,car,car,8-10-10,8-10-10_car_10_n03100240_1137.png,True,-0.6787692785176788,0.8463208079338074,0.5,-3.5096357676021515,2.172461748123169,0.0833333333333333,-3.917195255973605,27.496689021587372,10.0,0.779304029304029,10.0,47.308912512664726,6.0
subject-02,1,958,0.761837005615234,car,car,8-10-10,8-10-10_car_10_n03100240_1137.png,True,-0.8776831073206631,0.8463208079338074,0.5,-3.5096357676021515,2.172461748123169,0.0833333333333333,-3.917195255973605,27.496689021587372,10.0,0.779304029304029,10.0,47.308912512664726,6.0
subject-03,1,162,0.599506139755249,car,car,8-10-10,8-10-10_car_10_n03100240_1137.png,True,-1.931719080006414,0.8463208079338074,0.5,-3.5096357676021515,2.172461748123169,0.0833333333333333,-3.917195255973605,27.496689021587372,10.0,0.779304029304029,10.0,47.308912512664726,6.0
subject-04,1,638,0.958341121673584,car,car,8-10-10,8-10-10_car_10_n03100240_1137.png,True,-0.4922117374996875,0.8463208079338074,0.5,-3.5096357676021515,2.172461748123169,0.0833333333333333,-3.917195255973605,27.496689021587372,10.0,0.779304029304029,10.0,47.308912512664726,6.0
subject-01,1,4,0.519556999206543,clock,clock,2-10-10,2-10-10_clock_10_n04548280_7083.png,True,-1.922269436922583,0.0580136105418205,1.0,-0.007809116098607151,1.8341772556304932,1.0,-0.8373698762142066,25.24500983208418,10.0,9.416666666666666,2.0,17.276409970588137,10.0
subject-02,1,545,0.542750835418701,clock,clock,2-10-10,2-10-10_clock_10_n04548280_7083.png,True,-2.140456948162477,0.0580136105418205,1.0,-0.007809116098607151,1.8341772556304932,1.0,-0.8373698762142066,25.24500983208418,10.0,9.416666666666666,2.0,17.276409970588137,10.0
subject-03,1,1179,0.753806114196777,clock,clock,2-10-10,2-10-10_clock_10_n04548280_7083.png,True,-1.215041571763063,0.0580136105418205,1.0,-0.007809116098607151,1.8341772556304932,1.0,-0.8373698762142066,25.24500983208418,10.0,9.416666666666666,2.0,17.276409970588137,10.0
subject-04,1,1257,0.548847198486328,clock,clock,2-10-10,2-10-10_clock_10_n04548280_7083.png,True,-2.2200883236366296,0.0580136105418205,1.0,-0.007809116098607151,1.8341772556304932,1.0,-0.8373698762142066,25.24500983208418,10.0,9.416666666666666,2.0,17.276409970588137,10.0
subject-01,1,5,0.72134804725647,bottle,bottle,2-10-10,2-10-10_bottle_10_n02823428_7810.png,True,-0.9414110621451967,0.0017447987338528,1.0,-0.00014920155587139536,1.8953852653503416,0.5,-1.4863369693699815,25.601820282055996,10.0,6.783333333333333,9.0,20.656107381999302,10.0
subject-02,1,420,0.883006811141968,bottle,bottle,2-10-10,2-10-10_bottle_10_n02823428_7810.png,True,-0.17928183177784607,0.0017447987338528,1.0,-0.00014920155587139536,1.8953852653503416,0.5,-1.4863369693699815,25.601820282055996,10.0,6.783333333333333,9.0,20.656107381999302,10.0
subject-03,1,471,0.884497165679932,bottle,bottle,2-10-10,2-10-10_bottle_10_n02823428_7810.png,True,-0.6080204917813242,0.0017447987338528,1.0,-0.00014920155587139536,1.8953852653503416,0.5,-1.4863369693699815,25.601820282055996,10.0,6.783333333333333,9.0,20.656107381999302,10.0
subject-04,1,950,1.23485398292542,boat,bottle,2-10-10,2-10-10_bottle_10_n02823428_7810.png,False,0.6745457445259929,0.0017447987338528,1.0,-0.00014920155587139536,1.8953852653503416,0.5,-1.4863369693699815,25.601820282055996,10.0,6.783333333333333,9.0,20.656107381999302,10.0
subject-01,1,6,1.26470518112183,boat,dog,128-10-10,128-10-10_dog_10_n02091244_8368.png,False,1.699718960208482,1.9237083196640017,0.1428571428571428,-3.779030177735816,2.2319016456604004,0.0909090909090909,-3.8312624707885994,28.818656086921692,10.0,0.7869769119769117,8.0,39.52642955644268,6.0
subject-02,1,249,0.933634042739868,elephant,dog,128-10-10,128-10-10_dog_10_n02091244_8368.png,False,0.11252455489968209,1.9237083196640017,0.1428571428571428,-3.779030177735816,2.2319016456604004,0.0909090909090909,-3.8312624707885994,28.818656086921692,10.0,0.7869769119769117,8.0,39.52642955644268,6.0
subject-03,1,892,1.33127593994141,chair,dog,128-10-10,128-10-10_dog_10_n02091244_8368.png,False,1.467134088332188,1.9237083196640017,0.1428571428571428,-3.779030177735816,2.2319016456604004,0.0909090909090909,-3.8312624707885994,28.818656086921692,10.0,0.7869769119769117,8.0,39.52642955644268,6.0
subject-04,1,64,1.27267503738403,cat,dog,128-10-10,128-10-10_dog_10_n02091244_8368.png,False,0.8341332518408671,1.9237083196640017,0.1428571428571428,-3.779030177735816,2.2319016456604004,0.0909090909090909,-3.8312624707885994,28.818656086921692,10.0,0.7869769119769117,8.0,39.52642955644268,6.0
subject-01,1,7,0.738478899002075,bicycle,bicycle,1-10-10,1-10-10_bicycle_10_n02835271_2930.png,True,-0.8581420590644002,0.0268897376954555,1.0,-0.003486385594073001,2.0666608810424805,0.125,-3.3897183448025574,25.868699487298727,10.0,3.0067460317460313,9.0,29.467484861974253,9.0
subject-02,1,996,0.688431978225708,bicycle,bicycle,1-10-10,1-10-10_bicycle_10_n02835271_2930.png,True,-1.3007766704178612,0.0268897376954555,1.0,-0.003486385594073001,2.0666608810424805,0.125,-3.3897183448025574,25.868699487298727,10.0,3.0067460317460313,9.0,29.467484861974253,9.0
subject-03,1,785,0.881195068359375,bicycle,bicycle,1-10-10,1-10-10_bicycle_10_n02835271_2930.png,True,-0.623357752129158,0.0268897376954555,1.0,-0.003486385594073001,2.0666608810424805,0.125,-3.3897183448025574,25.868699487298727,10.0,3.0067460317460313,9.0,29.467484861974253,9.0
subject-04,1,849,0.773058891296387,bicycle,bicycle,1-10-10,1-10-10_bicycle_10_n02835271_2930.png,True,-1.2740177902102465,0.0268897376954555,1.0,-0.003486385594073001,2.0666608810424805,0.125,-3.3897183448025574,25.868699487298727,10.0,3.0067460317460313,9.0,29.467484861974253,9.0
subject-01,1,8,0.642343997955322,oven,knife,4-10-10,4-10-10_knife_10_n03041632_52848.png,False,-1.3254309884363942,1.7541669607162476,0.3333333333333333,-1.8953731681502204,1.853302240371704,0.0909090909090909,-3.9318247423803445,27.222155213356018,10.0,1.3155844155844154,5.0,36.22997967478649,5.0
subject-02,1,702,1.2602059841156,knife,knife,4-10-10,4-10-10_knife_10_n03041632_52848.png,True,1.9948273234964662,1.7541669607162476,0.3333333333333333,-1.8953731681502204,1.853302240371704,0.0909090909090909,-3.9318247423803445,27.222155213356018,10.0,1.3155844155844154,5.0,36.22997967478649,5.0
subject-03,1,592,1.29953789710999,bottle,knife,4-10-10,4-10-10_knife_10_n03041632_52848.png,False,1.3197203150294423,1.7541669607162476,0.3333333333333333,-1.8953731681502204,1.853302240371704,0.0909090909090909,-3.9318247423803445,27.222155213356018,10.0,1.3155844155844154,5.0,36.22997967478649,5.0
subject-04,1,233,1.46756505966187,bottle,knife,4-10-10,4-10-10_knife_10_n03041632_52848.png,False,1.6564797808065659,1.7541669607162476,0.3333333333333333,-1.8953731681502204,1.853302240371704,0.0909090909090909,-3.9318247423803445,27.222155213356018,10.0,1.3155844155844154,5.0,36.22997967478649,5.0
subject-01,1,9,0.56015682220459,bottle,bottle,2-10-10,2-10-10_bottle_10_n02823428_4097.png,True,-1.7249233366522627,0.0053847059607505,1.0,-0.000534438822756133,1.66400146484375,0.5,-1.3465701521733218,24.481261275708675,10.0,6.583333333333333,8.0,18.464836858847516,10.0
subject-02,1,677,0.758988857269287,bottle,bottle,2-10-10,2-10-10_bottle_10_n02823428_4097.png,True,-0.8940993294074908,0.0053847059607505,1.0,-0.000534438822756133,1.66400146484375,0.5,-1.3465701521733218,24.481261275708675,10.0,6.583333333333333,8.0,18.464836858847516,10.0
subject-03,1,134,0.907924175262451,bottle,bottle,2-10-10,2-10-10_bottle_10_n02823428_4097.png,True,-0.49920899706811395,0.0053847059607505,1.0,-0.000534438822756133,1.66400146484375,0.5,-1.3465701521733218,24.481261275708675,10.0,6.583333333333333,8.0,18.464836858847516,10.0
subject-04,1,342,0.731664180755615,bottle,bottle,2-10-10,2-10-10_bottle_10_n02823428_4097.png,True,-1.4486844875243572,0.0053847059607505,1.0,-0.000534438822756133,1.66400146484375,0.5,-1.3465701521733218,24.481261275708675,10.0,6.583333333333333,8.0,18.464836858847516,10.0
subject-01,1,10,1.02044796943665,dog,dog,8-10-10,8-10-10_dog_10_n02105641_10264.png,True,0.5124426464351147,0.0796198397874832,1.0,-0.011809125284261205,2.070366621017456,0.0909090909090909,-4.154060911260713,26.4284874945879,10.0,2.9095959595959595,9.0,33.52793999712562,10.0
subject-02,1,502,0.750782012939453,dog,dog,8-10-10,8-10-10_dog_10_n02105641_10264.png,True,-0.9414021250439235,0.0796198397874832,1.0,-0.011809125284261205,2.070366621017456,0.0909090909090909,-4.154060911260713,26.4284874945879,10.0,2.9095959595959595,9.0,33.52793999712562,10.0
subject-03,1,876,0.932276964187622,dog,dog,8-10-10,8-10-10_dog_10_n02105641_10264.png,True,-0.38609753254041446,0.0796198397874832,1.0,-0.011809125284261205,2.070366621017456,0.0909090909090909,-4.154060911260713,26.4284874945879,10.0,2.9095959595959595,9.0,33.52793999712562,10.0
subject-04,1,843,0.919901847839355,cat,dog,8-10-10,8-10-10_dog_10_n02105641_10264.png,False,-0.6544078471008022,0.0796198397874832,1.0,-0.011809125284261205,2.070366621017456,0.0909090909090909,-4.154060911260713,26.4284874945879,10.0,2.9095959595959595,9.0,33.52793999712562,10.0
subject-01,1,11,1.3359100818634,car,boat,8-10-10,8-10-10_boat_10_n03662601_10278.png,False,2.04582907704717,1.3005205392837524,0.3333333333333333,-3.128327987571259,2.1505613327026367,0.25,-2.4702091862236553,27.915769815444946,10.0,1.5325757575757575,10.0,32.56995314111473,3.0
subject-02,1,143,1.02766394615173,truck,boat,8-10-10,8-10-10_boat_10_n03662601_10278.png,False,0.6544962465809341,1.3005205392837524,0.3333333333333333,-3.128327987571259,2.1505613327026367,0.25,-2.4702091862236553,27.915769815444946,10.0,1.5325757575757575,10.0,32.56995314111473,3.0
subject-03,1,879,1.24963903427124,bicycle,boat,8-10-10,8-10-10_boat_10_n03662601_10278.png,False,1.0879549319638484,1.3005205392837524,0.3333333333333333,-3.128327987571259,2.1505613327026367,0.25,-2.4702091862236553,27.915769815444946,10.0,1.5325757575757575,10.0,32.56995314111473,3.0
subject-04,1,4,1.20574498176575,car,boat,8-10-10,8-10-10_boat_10_n03662601_10278.png,False,0.5517191072998605,1.3005205392837524,0.3333333333333333,-3.128327987571259,2.1505613327026367,0.25,-2.4702091862236553,27.915769815444946,10.0,1.5325757575757575,10.0,32.56995314111473,3.0
subject-01,1,12,1.07602500915527,bear,truck,32-10-10,32-10-10_truck_10_n04467665_76958.png,False,0.7825894412515845,1.9065613746643064,0.125,-3.4258337877207996,1.9806643724441528,0.0769230769230769,-4.412104523182424,28.124816179275513,10.0,0.2579670329670327,10.0,46.13577922632337,7.0
subject-02,1,1112,0.79616379737854,bear,truck,32-10-10,32-10-10_truck_10_n04467665_76958.png,False,-0.679829565767391,1.9065613746643064,0.125,-3.4258337877207996,1.9806643724441528,0.0769230769230769,-4.412104523182424,28.124816179275513,10.0,0.2579670329670327,10.0,46.13577922632337,7.0
subject-03,1,16,1.09086489677429,cat,truck,32-10-10,32-10-10_truck_10_n04467665_76958.png,False,0.35049626648673887,1.9065613746643064,0.125,-3.4258337877207996,1.9806643724441528,0.0769230769230769,-4.412104523182424,28.124816179275513,10.0,0.2579670329670327,10.0,46.13577922632337,7.0
subject-04,1,286,1.06783819198608,bear,truck,32-10-10,32-10-10_truck_10_n04467665_76958.png,False,-0.030184309666442494,1.9065613746643064,0.125,-3.4258337877207996,1.9806643724441528,0.0769230769230769,-4.412104523182424,28.124816179275513,10.0,0.2579670329670327,10.0,46.13577922632337,7.0
subject-01,1,13,0.869771003723145,cat,dog,16-10-10,16-10-10_dog_10_n02088238_12552.png,False,-0.21996230975288086,2.2735722064971924,0.1666666666666666,-2.7834165590796256,2.1535532474517822,0.0833333333333333,-4.081269323935819,28.900354146957397,10.0,1.1460678210678208,7.0,37.84966916082256,6.0
subject-02,1,533,1.06853699684143,dog,dog,16-10-10,16-10-10_dog_10_n02088238_12552.png,True,0.8900812639284658,2.2735722064971924,0.1666666666666666,-2.7834165590796256,2.1535532474517822,0.0833333333333333,-4.081269323935819,28.900354146957397,10.0,1.1460678210678208,7.0,37.84966916082256,6.0
subject-03,1,315,0.647071838378906,cat,dog,16-10-10,16-10-10_dog_10_n02088238_12552.png,False,-1.7107905510754202,2.2735722064971924,0.1666666666666666,-2.7834165590796256,2.1535532474517822,0.0833333333333333,-4.081269323935819,28.900354146957397,10.0,1.1460678210678208,7.0,37.84966916082256,6.0
subject-04,1,1204,1.26083111763,bird,dog,16-10-10,16-10-10_dog_10_n02088238_12552.png,False,0.7841573414005182,2.2735722064971924,0.1666666666666666,-2.7834165590796256,2.1535532474517822,0.0833333333333333,-4.081269323935819,28.900354146957397,10.0,1.1460678210678208,7.0,37.84966916082256,6.0
subject-01,1,14,0.923352003097534,boat,dog,8-10-10,8-10-10_dog_10_n02102040_994.png,False,0.04048220685574555,1.2711186408996582,0.1428571428571428,-4.095433185193439,2.1257333755493164,0.0714285714285714,-4.585018063804297,27.634472489356995,10.0,0.708405483405483,9.0,42.033222366554966,6.0
subject-02,1,411,1.15256905555725,dog,dog,8-10-10,8-10-10_dog_10_n02102040_994.png,True,1.3744271514084054,1.2711186408996582,0.1428571428571428,-4.095433185193439,2.1257333755493164,0.0714285714285714,-4.585018063804297,27.634472489356995,10.0,0.708405483405483,9.0,42.033222366554966,6.0
subject-03,1,608,1.17068600654602,dog,dog,8-10-10,8-10-10_dog_10_n02102040_994.png,True,0.7212415907388873,1.2711186408996582,0.1428571428571428,-4.095433185193439,2.1257333755493164,0.0714285714285714,-4.585018063804297,27.634472489356995,10.0,0.708405483405483,9.0,42.033222366554966,6.0
subject-04,1,751,1.2624351978302,dog,dog,8-10-10,8-10-10_dog_10_n02102040_994.png,True,0.7909258243089787,1.2711186408996582,0.1428571428571428,-4.095433185193439,2.1257333755493164,0.0714285714285714,-4.585018063804297,27.634472489356995,10.0,0.708405483405483,9.0,42.033222366554966,6.0
subject-01,1,15,0.902994871139526,cat,bear,128-10-10,128-10-10_bear_10_n02133161_1944.png,False,-0.058468978345097025,2.0835964679718018,0.5,-1.652220079078309,2.115539312362671,0.1428571428571428,-2.989782303344098,28.631094932556152,10.0,1.9119047619047613,10.0,31.556006323221535,10.0
subject-02,1,1244,1.04171013832092,cat,bear,128-10-10,128-10-10_bear_10_n02133161_1944.png,False,0.7354560078418976,2.0835964679718018,0.5,-1.652220079078309,2.115539312362671,0.1428571428571428,-2.989782303344098,28.631094932556152,10.0,1.9119047619047613,10.0,31.556006323221535,10.0
subject-03,1,557,0.960405111312866,bird,bear,128-10-10,128-10-10_bear_10_n02133161_1944.png,False,-0.2554506515789309,2.0835964679718018,0.5,-1.652220079078309,2.115539312362671,0.1428571428571428,-2.989782303344098,28.631094932556152,10.0,1.9119047619047613,10.0,31.556006323221535,10.0
subject-04,1,217,0.972588062286377,cat,bear,128-10-10,128-10-10_bear_10_n02133161_1944.png,False,-0.4320961809187136,2.0835964679718018,0.5,-1.652220079078309,2.115539312362671,0.1428571428571428,-2.989782303344098,28.631094932556152,10.0,1.9119047619047613,10.0,31.556006323221535,10.0
subject-01,1,16,0.736793041229248,car,car,16-10-10,16-10-10_car_10_n02814533_43040.png,True,-0.8663366134370586,1.8150557279586792,0.1666666666666666,-3.7157348281542926,1.951984167098999,0.1,-3.9854424594964923,27.622148275375366,10.0,0.5793040293040288,7.0,47.662438000025105,6.0
subject-02,1,753,0.893501043319702,car,car,16-10-10,16-10-10_car_10_n02814533_43040.png,True,-0.11879493814199818,1.8150557279586792,0.1666666666666666,-3.7157348281542926,1.951984167098999,0.1,-3.9854424594964923,27.622148275375366,10.0,0.5793040293040288,7.0,47.662438000025105,6.0
subject-03,1,160,0.725522994995117,car,car,16-10-10,16-10-10_car_10_n02814533_43040.png,True,-1.346408251946647,1.8150557279586792,0.1666666666666666,-3.7157348281542926,1.951984167098999,0.1,-3.9854424594964923,27.622148275375366,10.0,0.5793040293040288,7.0,47.662438000025105,6.0
subject-04,1,66,1.30025506019592,car,car,16-10-10,16-10-10_car_10_n02814533_43040.png,True,0.9505083015384796,1.8150557279586792,0.1666666666666666,-3.7157348281542926,1.951984167098999,0.1,-3.9854424594964923,27.622148275375366,10.0,0.5793040293040288,7.0,47.662438000025105,6.0
subject-01,1,17,1.20865201950073,oven,oven,128-10-10,128-10-10_oven_10_n04111531_18592.png,True,1.4272578498662474,2.275101661682129,0.1428571428571428,-3.081639980813241,2.0433366298675537,0.0625,-6.90209544956388,28.623849153518677,10.0,0.09285714285714258,10.0,60.52726691931445,6.0
subject-02,1,1245,0.819598913192749,bear,oven,128-10-10,128-10-10_oven_10_n04111531_18592.png,False,-0.5447537132809719,2.275101661682129,0.1428571428571428,-3.081639980813241,2.0433366298675537,0.0625,-6.90209544956388,28.623849153518677,10.0,0.09285714285714258,10.0,60.52726691931445,6.0
subject-03,1,348,1.09303092956543,bird,oven,128-10-10,128-10-10_oven_10_n04111531_18592.png,False,0.360556844844876,2.275101661682129,0.1428571428571428,-3.081639980813241,2.0433366298675537,0.0625,-6.90209544956388,28.623849153518677,10.0,0.09285714285714258,10.0,60.52726691931445,6.0
subject-04,1,242,1.19597411155701,cat,oven,128-10-10,128-10-10_oven_10_n04111531_18592.png,False,0.5104905153626255,2.275101661682129,0.1428571428571428,-3.081639980813241,2.0433366298675537,0.0625,-6.90209544956388,28.623849153518677,10.0,0.09285714285714258,10.0,60.52726691931445,6.0
subject-01,1,18,1.37067413330078,airplane,chair,16-10-10,16-10-10_chair_10_n02791124_4294.png,False,2.214808877306244,1.7433607578277588,0.0714285714285714,-4.471572228366732,2.09765100479126,0.0666666666666666,-5.375595688833181,28.44572949409485,10.0,0.05535714285714216,10.0,52.48629698214063,7.0
subject-02,1,51,1.15372800827026,keyboard,chair,16-10-10,16-10-10_chair_10_n02791124_4294.png,False,1.3811071493628568,1.7433607578277588,0.0714285714285714,-4.471572228366732,2.09765100479126,0.0666666666666666,-5.375595688833181,28.44572949409485,10.0,0.05535714285714216,10.0,52.48629698214063,7.0
subject-03,1,850,1.25100207328796,oven,chair,16-10-10,16-10-10_chair_10_n02791124_4294.png,False,1.0942858429680598,1.7433607578277588,0.0714285714285714,-4.471572228366732,2.09765100479126,0.0666666666666666,-5.375595688833181,28.44572949409485,10.0,0.05535714285714216,10.0,52.48629698214063,7.0
subject-04,1,1115,1.50001192092896,cat,chair,16-10-10,16-10-10_chair_10_n02791124_4294.png,False,1.7933906571406235,1.7433607578277588,0.0714285714285714,-4.471572228366732,2.09765100479126,0.0666666666666666,-5.375595688833181,28.44572949409485,10.0,0.05535714285714216,10.0,52.48629698214063,7.0
subject-01,1,19,0.914475917816162,oven,knife,32-10-10,32-10-10_knife_10_n03041632_2630.png,False,-0.0026623363120856815,2.256032943725586,0.1428571428571428,-3.4182909150431104,2.0179250240325928,0.2,-3.1493851525198426,28.773024797439575,10.0,1.589321789321789,8.0,35.919889702539436,0.0
subject-02,1,507,0.695554971694946,cat,knife,32-10-10,32-10-10_knife_10_n03041632_2630.png,False,-1.2597209989741913,2.256032943725586,0.1428571428571428,-3.4182909150431104,2.0179250240325928,0.2,-3.1493851525198426,28.773024797439575,10.0,1.589321789321789,8.0,35.919889702539436,0.0
subject-03,1,379,1.28940987586975,keyboard,knife,32-10-10,32-10-10_knife_10_n03041632_2630.png,False,1.2726786674066068,2.256032943725586,0.1428571428571428,-3.4182909150431104,2.0179250240325928,0.2,-3.1493851525198426,28.773024797439575,10.0,1.589321789321789,8.0,35.919889702539436,0.0
subject-04,1,1146,1.0837869644165,bear,knife,32-10-10,32-10-10_knife_10_n03041632_2630.png,False,0.03711219682541888,2.256032943725586,0.1428571428571428,-3.4182909150431104,2.0179250240325928,0.2,-3.1493851525198426,28.773024797439575,10.0,1.589321789321789,8.0,35.919889702539436,0.0
subject-01,1,20,0.792237043380737,elephant,elephant,1-10-10,1-10-10_elephant_10_n02504458_723.png,True,-0.5968364826482635,0.0002071539929602,1.0,-1.4364822564327746e-05,2.1179957389831543,0.125,-3.379563206799359,26.260616747575114,10.0,4.673484848484849,7.0,30.9301609262917,9.0
subject-02,1,123,0.775215148925781,elephant,elephant,1-10-10,1-10-10_elephant_10_n02504458_723.png,True,-0.8005738612352662,0.0002071539929602,1.0,-1.4364822564327746e-05,2.1179957389831543,0.125,-3.379563206799359,26.260616747575114,10.0,4.673484848484849,7.0,30.9301609262917,9.0
subject-03,1,154,0.896476984024048,elephant,elephant,1-10-10,1-10-10_elephant_10_n02504458_723.png,True,-0.5523777971461247,0.0002071539929602,1.0,-1.4364822564327746e-05,2.1179957389831543,0.125,-3.379563206799359,26.260616747575114,10.0,4.673484848484849,7.0,30.9301609262917,9.0
subject-04,1,1106,0.672683954238892,elephant,elephant,1-10-10,1-10-10_elephant_10_n02504458_723.png,True,-1.6975539985786066,0.0002071539929602,1.0,-1.4364822564327746e-05,2.1179957389831543,0.125,-3.379563206799359,26.260616747575114,10.0,4.673484848484849,7.0,30.9301609262917,9.0
subject-01,1,21,1.18988704681396,keyboard,chair,4-10-10,4-10-10_chair_10_n03376595_6107.png,False,1.3360457728679984,0.1842467784881591,1.0,-0.03528415091289114,1.9981145858764648,0.0666666666666666,-5.288569496430442,25.973264932632446,10.0,2.0504329004328996,9.0,45.90304557378867,10.0
subject-02,1,983,1.0891900062561,keyboard,chair,4-10-10,4-10-10_chair_10_n03376595_6107.png,False,1.0091215483978577,0.1842467784881591,1.0,-0.03528415091289114,1.9981145858764648,0.0666666666666666,-5.288569496430442,25.973264932632446,10.0,2.0504329004328996,9.0,45.90304557378867,10.0
subject-03,1,1277,0.904356002807617,chair,chair,4-10-10,4-10-10_chair_10_n03376595_6107.png,True,-0.5157820973111217,0.1842467784881591,1.0,-0.03528415091289114,1.9981145858764648,0.0666666666666666,-5.288569496430442,25.973264932632446,10.0,2.0504329004328996,9.0,45.90304557378867,10.0
subject-04,1,180,0.709650039672852,chair,chair,4-10-10,4-10-10_chair_10_n03376595_6107.png,True,-1.5415740685094879,0.1842467784881591,1.0,-0.03528415091289114,1.9981145858764648,0.0666666666666666,-5.288569496430442,25.973264932632446,10.0,2.0504329004328996,9.0,45.90304557378867,10.0
subject-01,1,22,0.825675010681152,cat,clock,32-10-10,32-10-10_clock_10_n03196217_1337.png,False,-0.434302462536382,0.702883780002594,0.5,-2.8837096585071853,1.8534300327301023,1.0,-1.063316591029148,26.656262695789337,10.0,7.666666666666667,2.0,22.368544067825614,4.0
subject-02,1,192,0.691086053848267,cat,clock,32-10-10,32-10-10_clock_10_n03196217_1337.png,False,-1.285479049099377,0.702883780002594,0.5,-2.8837096585071853,1.8534300327301023,1.0,-1.063316591029148,26.656262695789337,10.0,7.666666666666667,2.0,22.368544067825614,4.0
subject-03,1,941,0.919687032699585,cat,clock,32-10-10,32-10-10_clock_10_n03196217_1337.png,False,-0.444574021343853,0.702883780002594,0.5,-2.8837096585071853,1.8534300327301023,1.0,-1.063316591029148,26.656262695789337,10.0,7.666666666666667,2.0,22.368544067825614,4.0
subject-04,1,1093,0.66117000579834,cat,clock,32-10-10,32-10-10_clock_10_n03196217_1337.png,False,-1.7461375813814224,0.702883780002594,0.5,-2.8837096585071853,1.8534300327301023,1.0,-1.063316591029148,26.656262695789337,10.0,7.666666666666667,2.0,22.368544067825614,4.0
subject-01,1,23,1.10373997688293,bottle,boat,128-10-10,128-10-10_boat_10_n02951358_9550.png,False,0.9173053192108196,2.1104860305786133,0.0714285714285714,-4.35703634264755,2.0619707107543945,0.25,-2.858107867553701,28.621584177017212,10.0,1.2800324675324672,9.0,34.61891306336775,3.0
subject-02,1,462,1.00912499427795,bear,boat,128-10-10,128-10-10_boat_10_n02951358_9550.png,False,0.5476410149529675,2.1104860305786133,0.0714285714285714,-4.35703634264755,2.0619707107543945,0.25,-2.858107867553701,28.621584177017212,10.0,1.2800324675324672,9.0,34.61891306336775,3.0
subject-03,1,1003,1.43289613723755,chair,boat,128-10-10,128-10-10_boat_10_n02951358_9550.png,False,1.9391296933152191,2.1104860305786133,0.0714285714285714,-4.35703634264755,2.0619707107543945,0.25,-2.858107867553701,28.621584177017212,10.0,1.2800324675324672,9.0,34.61891306336775,3.0
subject-04,1,98,1.50002408027649,cat,boat,128-10-10,128-10-10_boat_10_n02951358_9550.png,False,1.793441964011642,2.1104860305786133,0.0714285714285714,-4.35703634264755,2.0619707107543945,0.25,-2.858107867553701,28.621584177017212,10.0,1.2800324675324672,9.0,34.61891306336775,3.0
subject-01,1,24,1.27160501480103,bird,bird,128-10-10,128-10-10_bird_10_n01616318_2334.png,True,1.7332574135453218,1.945211410522461,0.0833333333333333,-4.630206228260714,1.8486140966415403,0.1111111111111111,-4.12596778332745,27.411203265190125,10.0,0.5725579975579973,3.0,41.780565426506996,6.0
subject-02,1,1012,0.907370805740356,boat,bird,128-10-10,128-10-10_bird_10_n01616318_2334.png,False,-0.038852086670445964,1.945211410522461,0.0833333333333333,-4.630206228260714,1.8486140966415403,0.1111111111111111,-4.12596778332745,27.411203265190125,10.0,0.5725579975579973,3.0,41.780565426506996,6.0
subject-03,1,885,1.44836497306824,bird,bird,128-10-10,128-10-10_bird_10_n01616318_2334.png,True,2.010977836898454,1.945211410522461,0.0833333333333333,-4.630206228260714,1.8486140966415403,0.1111111111111111,-4.12596778332745,27.411203265190125,10.0,0.5725579975579973,3.0,41.780565426506996,6.0
subject-04,1,114,1.45853590965271,dog,bird,128-10-10,128-10-10_bird_10_n01616318_2334.png,False,1.6183809080025087,1.945211410522461,0.0833333333333333,-4.630206228260714,1.8486140966415403,0.1111111111111111,-4.12596778332745,27.411203265190125,10.0,0.5725579975579973,3.0,41.780565426506996,6.0
subject-01,1,25,1.08963108062744,clock,bottle,32-10-10,32-10-10_bottle_10_n03937543_1658.png,False,0.8487253242863741,2.2801084518432617,1.0,-1.244752415874873,1.9378553628921509,1.0,-1.1642500465575882,28.303045392036438,10.0,6.527777777777777,10.0,22.438787125770094,10.0
subject-02,1,627,,na,bottle,32-10-10,32-10-10_bottle_10_n03937543_1658.png,False,,2.2801084518432617,1.0,-1.244752415874873,1.9378553628921509,1.0,-1.1642500465575882,28.303045392036438,10.0,6.527777777777777,10.0,22.438787125770094,10.0
subject-03,1,1072,1.32952189445496,bird,bottle,32-10-10,32-10-10_bottle_10_n03937543_1658.png,False,1.4589870685214306,2.2801084518432617,1.0,-1.244752415874873,1.9378553628921509,1.0,-1.1642500465575882,28.303045392036438,10.0,6.527777777777777,10.0,22.438787125770094,10.0
subject-04,1,1249,1.11236119270325,bear,bottle,32-10-10,32-10-10_bottle_10_n03937543_1658.png,False,0.15768233774306525,2.2801084518432617,1.0,-1.244752415874873,1.9378553628921509,1.0,-1.1642500465575882,28.303045392036438,10.0,6.527777777777777,10.0,22.438787125770094,10.0
subject-01,1,26,1.08706307411194,elephant,elephant,2-10-10,2-10-10_elephant_10_n02504013_6731.png,True,0.8362428543177961,0.0184905230998992,1.0,-0.002190125456674908,2.2840657234191895,0.1428571428571428,-2.934041059189613,26.89597722887993,10.0,3.5008658008658005,9.0,31.35492694590981,10.0
subject-02,1,197,1.49438619613647,boat,elephant,2-10-10,2-10-10_elephant_10_n02504013_6731.png,False,3.3446005452268435,0.0184905230998992,1.0,-0.002190125456674908,2.2840657234191895,0.1428571428571428,-2.934041059189613,26.89597722887993,10.0,3.5008658008658005,9.0,31.35492694590981,10.0
subject-03,1,441,1.43245005607605,elephant,elephant,2-10-10,2-10-10_elephant_10_n02504013_6731.png,True,1.9370577789389845,0.0184905230998992,1.0,-0.002190125456674908,2.2840657234191895,0.1428571428571428,-2.934041059189613,26.89597722887993,10.0,3.5008658008658005,9.0,31.35492694590981,10.0
subject-04,1,1043,1.37648797035217,dog,elephant,2-10-10,2-10-10_elephant_10_n02504013_6731.png,False,1.2721762264903993,0.0184905230998992,1.0,-0.002190125456674908,2.2840657234191895,0.1428571428571428,-2.934041059189613,26.89597722887993,10.0,3.5008658008658005,9.0,31.35492694590981,10.0
subject-01,1,27,0.772952795028687,keyboard,keyboard,4-10-10,4-10-10_keyboard_10_n04505470_4447.png,True,-0.6905726353675621,0.0035268347710371,1.0,-0.00032090328677850094,1.7694112062454224,0.1,-4.119887783696866,24.916485933586955,10.0,2.8428571428571425,9.0,35.78322751278214,10.0
subject-02,1,961,1.31512308120728,keyboard,keyboard,4-10-10,4-10-10_keyboard_10_n04505470_4447.png,True,2.311359734283211,0.0035268347710371,1.0,-0.00032090328677850094,1.7694112062454224,0.1,-4.119887783696866,24.916485933586955,10.0,2.8428571428571425,9.0,35.78322751278214,10.0
subject-03,1,57,0.804957866668701,keyboard,keyboard,4-10-10,4-10-10_keyboard_10_n04505470_4447.png,True,-0.9774568888326638,0.0035268347710371,1.0,-0.00032090328677850094,1.7694112062454224,0.1,-4.119887783696866,24.916485933586955,10.0,2.8428571428571425,9.0,35.78322751278214,10.0
subject-04,1,525,1.01538515090942,keyboard,keyboard,4-10-10,4-10-10_keyboard_10_n04505470_4447.png,True,-0.2515120911451313,0.0035268347710371,1.0,-0.00032090328677850094,1.7694112062454224,0.1,-4.119887783696866,24.916485933586955,10.0,2.8428571428571425,9.0,35.78322751278214,10.0
subject-01,1,28,0.928697824478149,airplane,airplane,1-10-10,1-10-10_airplane_10_n02690373_4839.png,True,0.06646697536709649,0.0003539727185852,1.0,-2.6941662361691687e-05,2.067063331604004,0.5,-1.5465584734979658,25.0407601998304,10.0,6.583333333333333,0.0,20.440042358058193,10.0
subject-02,1,785,0.743185043334961,airplane,airplane,1-10-10,1-10-10_airplane_10_n02690373_4839.png,True,-0.985189710894811,0.0003539727185852,1.0,-2.6941662361691687e-05,2.067063331604004,0.5,-1.5465584734979658,25.0407601998304,10.0,6.583333333333333,0.0,20.440042358058193,10.0
subject-03,1,1004,1.08488583564758,airplane,airplane,1-10-10,1-10-10_airplane_10_n02690373_4839.png,True,0.32272530511468045,0.0003539727185852,1.0,-2.6941662361691687e-05,2.067063331604004,0.5,-1.5465584734979658,25.0407601998304,10.0,6.583333333333333,0.0,20.440042358058193,10.0
subject-04,1,192,0.695264101028442,airplane,airplane,1-10-10,1-10-10_airplane_10_n02690373_4839.png,True,-1.6022761330476025,0.0003539727185852,1.0,-2.6941662361691687e-05,2.067063331604004,0.5,-1.5465584734979658,25.0407601998304,10.0,6.583333333333333,0.0,20.440042358058193,10.0
subject-01,1,29,1.39457392692566,clock,keyboard,64-10-10,64-10-10_keyboard_10_n04505470_1651.png,False,2.3309800997611414,2.180858612060547,0.0909090909090909,-4.198129240867425,1.957201600074768,0.0909090909090909,-4.229779895160162,28.45080316066742,10.0,0.5362193362193359,9.0,44.6306632831968,7.0
subject-02,1,575,0.887040853500366,cat,keyboard,64-10-10,64-10-10_keyboard_10_n04505470_1651.png,False,-0.1560303268633044,2.180858612060547,0.0909090909090909,-4.198129240867425,1.957201600074768,0.0909090909090909,-4.229779895160162,28.45080316066742,10.0,0.5362193362193359,9.0,44.6306632831968,7.0
subject-03,1,1046,1.49999618530273,bear,keyboard,64-10-10,64-10-10_keyboard_10_n04505470_1651.png,False,2.2507894678836564,2.180858612060547,0.0909090909090909,-4.198129240867425,1.957201600074768,0.0909090909090909,-4.229779895160162,28.45080316066742,10.0,0.5362193362193359,9.0,44.6306632831968,7.0
subject-04,1,444,0.964052200317383,clock,keyboard,64-10-10,64-10-10_keyboard_10_n04505470_1651.png,False,-0.4681136043860135,2.180858612060547,0.0909090909090909,-4.198129240867425,1.957201600074768,0.0909090909090909,-4.229779895160162,28.45080316066742,10.0,0.5362193362193359,9.0,44.6306632831968,7.0
subject-01,1,30,1.14040589332581,boat,keyboard,32-10-10,32-10-10_keyboard_10_n03085013_20601.png,False,1.095529633715538,0.9760913252830504,1.0,-0.3037307254911688,1.974041223526001,0.1,-3.7737239020560924,27.17093175649643,10.0,2.2734848484848484,10.0,35.68410018700067,10.0
subject-02,1,706,0.875396013259888,keyboard,keyboard,32-10-10,32-10-10_keyboard_10_n03085013_20601.png,True,-0.22314912136898496,0.9760913252830504,1.0,-0.3037307254911688,1.974041223526001,0.1,-3.7737239020560924,27.17093175649643,10.0,2.2734848484848484,10.0,35.68410018700067,10.0
subject-03,1,1114,1.37577295303345,chair,keyboard,32-10-10,32-10-10_keyboard_10_n03085013_20601.png,False,1.67380948528217,0.9760913252830504,1.0,-0.3037307254911688,1.974041223526001,0.1,-3.7737239020560924,27.17093175649643,10.0,2.2734848484848484,10.0,35.68410018700067,10.0
subject-04,1,554,0.861927032470703,keyboard,keyboard,32-10-10,32-10-10_keyboard_10_n03085013_20601.png,True,-0.899034984132328,0.9760913252830504,1.0,-0.3037307254911688,1.974041223526001,0.1,-3.7737239020560924,27.17093175649643,10.0,2.2734848484848484,10.0,35.68410018700067,10.0
subject-01,1,31,,na,airplane,64-10-10,64-10-10_airplane_10_n02690373_2217.png,False,,1.8589046001434328,0.0666666666666666,-5.946448487472752,1.9916489124298096,0.25,-2.3327032154646163,28.192595720291138,10.0,3.334523809523809,0.0,30.400093253532326,0.0
subject-02,1,398,1.13598322868347,airplane,airplane,64-10-10,64-10-10_airplane_10_n02690373_2217.png,True,1.2788293859896542,1.8589046001434328,0.0666666666666666,-5.946448487472752,1.9916489124298096,0.25,-2.3327032154646163,28.192595720291138,10.0,3.334523809523809,0.0,30.400093253532326,0.0
subject-03,1,1270,1.00590896606445,bird,airplane,64-10-10,64-10-10_airplane_10_n02690373_2217.png,False,-0.04409877445214123,1.8589046001434328,0.0666666666666666,-5.946448487472752,1.9916489124298096,0.25,-2.3327032154646163,28.192595720291138,10.0,3.334523809523809,0.0,30.400093253532326,0.0
subject-04,1,185,0.944483041763306,cat,airplane,64-10-10,64-10-10_airplane_10_n02690373_2217.png,False,-0.5506864802245859,1.8589046001434328,0.0666666666666666,-5.946448487472752,1.9916489124298096,0.25,-2.3327032154646163,28.192595720291138,10.0,3.334523809523809,0.0,30.400093253532326,0.0
subject-01,1,32,0.658030033111572,oven,bicycle,4-10-10,4-10-10_bicycle_10_n03792782_25019.png,False,-1.249184895764069,0.9885619282722472,0.5,-2.8139127859069486,2.022848129272461,0.1428571428571428,-3.5495309891098645,27.02402275800705,10.0,1.1674963924963921,10.0,37.44163168557393,6.0
subject-02,1,909,0.771214008331299,bicycle,bicycle,4-10-10,4-10-10_bicycle_10_n03792782_25019.png,True,-0.8236357262161077,0.9885619282722472,0.5,-2.8139127859069486,2.022848129272461,0.1428571428571428,-3.5495309891098645,27.02402275800705,10.0,1.1674963924963921,10.0,37.44163168557393,6.0
subject-03,1,10,0.949684858322144,bicycle,bicycle,4-10-10,4-10-10_bicycle_10_n03792782_25019.png,True,-0.30524303961357974,0.9885619282722472,0.5,-2.8139127859069486,2.022848129272461,0.1428571428571428,-3.5495309891098645,27.02402275800705,10.0,1.1674963924963921,10.0,37.44163168557393,6.0
subject-04,1,812,0.893785953521729,chair,bicycle,4-10-10,4-10-10_bicycle_10_n03792782_25019.png,False,-0.7646049459154233,0.9885619282722472,0.5,-2.8139127859069486,2.022848129272461,0.1428571428571428,-3.5495309891098645,27.02402275800705,10.0,1.1674963924963921,10.0,37.44163168557393,6.0
subject-01,1,33,0.473824977874756,cat,cat,8-10-10,8-10-10_cat_10_n02123597_13890.png,True,-2.144561934792374,0.0171596277505159,1.0,-0.0018502294677854858,2.0764427185058594,0.2,-3.0207202838233393,26.165202545002103,10.0,5.585714285714285,6.0,26.834077033808953,10.0
subject-02,1,504,0.700073003768921,cat,cat,8-10-10,8-10-10_cat_10_n02123597_13890.png,True,-1.2336798631508665,0.0171596277505159,1.0,-0.0018502294677854858,2.0764427185058594,0.2,-3.0207202838233393,26.165202545002103,10.0,5.585714285714285,6.0,26.834077033808953,10.0
subject-03,1,1263,0.729139089584351,cat,cat,8-10-10,8-10-10_cat_10_n02123597_13890.png,True,-1.3296125676364943,0.0171596277505159,1.0,-0.0018502294677854858,2.0764427185058594,0.2,-3.0207202838233393,26.165202545002103,10.0,5.585714285714285,6.0,26.834077033808953,10.0
subject-04,1,1135,1.15151309967041,dog,cat,8-10-10,8-10-10_cat_10_n02123597_13890.png,False,0.32288543239370865,0.0171596277505159,1.0,-0.0018502294677854858,2.0764427185058594,0.2,-3.0207202838233393,26.165202545002103,10.0,5.585714285714285,6.0,26.834077033808953,10.0
subject-01,1,34,1.14561295509338,boat,boat,1-10-10,1-10-10_boat_10_n04612504_214.png,True,1.1208399246925709,0.0011919141979888,1.0,-9.721990133023514e-05,2.072256088256836,0.25,-2.833462954755212,25.595167815801688,10.0,3.246428571428571,9.0,29.030280646933992,9.0
subject-02,1,594,0.789676904678345,boat,boat,1-10-10,1-10-10_boat_10_n04612504_214.png,True,-0.7172188651595244,0.0011919141979888,1.0,-9.721990133023514e-05,2.072256088256836,0.25,-2.833462954755212,25.595167815801688,10.0,3.246428571428571,9.0,29.030280646933992,9.0
subject-03,1,649,0.722881078720093,boat,boat,1-10-10,1-10-10_boat_10_n04612504_214.png,True,-1.3586791676083292,0.0011919141979888,1.0,-9.721990133023514e-05,2.072256088256836,0.25,-2.833462954755212,25.595167815801688,10.0,3.246428571428571,9.0,29.030280646933992,9.0
subject-04,1,17,0.935632944107056,boat,boat,1-10-10,1-10-10_boat_10_n04612504_214.png,True,-0.5880298342021906,0.0011919141979888,1.0,-9.721990133023514e-05,2.072256088256836,0.25,-2.833462954755212,25.595167815801688,10.0,3.246428571428571,9.0,29.030280646933992,9.0
subject-01,1,35,1.48520302772522,cat,chair,128-10-10,128-10-10_chair_10_n02791124_2555.png,False,2.771506641333977,1.8829327821731567,0.0909090909090909,-4.650055510878023,2.0075886249542236,0.0666666666666666,-5.643726044741868,28.38161337375641,10.0,0.07543290043289987,10.0,53.37390869416703,7.0
subject-02,1,1142,0.953088998794556,bear,chair,128-10-10,128-10-10_chair_10_n02791124_2555.png,False,0.22465947221805396,1.8829327821731567,0.0909090909090909,-4.650055510878023,2.0075886249542236,0.0666666666666666,-5.643726044741868,28.38161337375641,10.0,0.07543290043289987,10.0,53.37390869416703,7.0
subject-03,1,554,1.45487904548645,bird,chair,128-10-10,128-10-10_chair_10_n02791124_2555.png,False,2.0412337666618683,1.8829327821731567,0.0909090909090909,-4.650055510878023,2.0075886249542236,0.0666666666666666,-5.643726044741868,28.38161337375641,10.0,0.07543290043289987,10.0,53.37390869416703,7.0
subject-04,1,1022,1.00496196746826,dog,chair,128-10-10,128-10-10_chair_10_n02791124_2555.png,False,-0.29549314581088054,1.8829327821731567,0.0909090909090909,-4.650055510878023,2.0075886249542236,0.0666666666666666,-5.643726044741868,28.38161337375641,10.0,0.07543290043289987,10.0,53.37390869416703,7.0
subject-01,1,36,0.659149885177612,car,car,4-10-10,4-10-10_car_10_n04285008_2081.png,True,-1.243741560749449,0.1413693726062774,1.0,-0.028749495490728524,2.2425403594970703,0.0769230769230769,-4.169576262602407,26.824388772249222,10.0,2.2090659340659338,9.0,43.37085358125198,10.0
subject-02,1,520,0.725070953369141,car,car,4-10-10,4-10-10_car_10_n04285008_2081.png,True,-1.0895961138136876,0.1413693726062774,1.0,-0.028749495490728524,2.2425403594970703,0.0769230769230769,-4.169576262602407,26.824388772249222,10.0,2.2090659340659338,9.0,43.37085358125198,10.0
subject-03,1,702,0.972939968109131,car,car,4-10-10,4-10-10_car_10_n04285008_2081.png,True,-0.1972299683451906,0.1413693726062774,1.0,-0.028749495490728524,2.2425403594970703,0.0769230769230769,-4.169576262602407,26.824388772249222,10.0,2.2090659340659338,9.0,43.37085358125198,10.0
subject-04,1,47,1.04572916030884,car,car,4-10-10,4-10-10_car_10_n04285008_2081.png,True,-0.12347428544904776,0.1413693726062774,1.0,-0.028749495490728524,2.2425403594970703,0.0769230769230769,-4.169576262602407,26.824388772249222,10.0,2.2090659340659338,9.0,43.37085358125198,10.0
subject-01,1,37,0.998796939849854,bicycle,dog,32-10-10,32-10-10_dog_10_n02094114_8202.png,False,0.4072021320615163,1.962041974067688,0.2,-2.7131556687877882,2.066924571990967,0.0833333333333333,-4.2821465721059155,28.261711955070496,10.0,1.153210678210678,9.0,38.302292659937876,6.0
subject-02,1,1191,1.01183104515076,cat,dog,32-10-10,32-10-10_dog_10_n02094114_8202.png,False,0.5632382123986395,1.962041974067688,0.2,-2.7131556687877882,2.066924571990967,0.0833333333333333,-4.2821465721059155,28.261711955070496,10.0,1.153210678210678,9.0,38.302292659937876,6.0
subject-03,1,869,1.25532698631287,bottle,dog,32-10-10,32-10-10_dog_10_n02094114_8202.png,False,1.11437377818179,1.962041974067688,0.2,-2.7131556687877882,2.066924571990967,0.0833333333333333,-4.2821465721059155,28.261711955070496,10.0,1.153210678210678,9.0,38.302292659937876,6.0
subject-04,1,1275,1.1414361000061,bear,dog,32-10-10,32-10-10_dog_10_n02094114_8202.png,False,0.2803651145268453,1.962041974067688,0.2,-2.7131556687877882,2.066924571990967,0.0833333333333333,-4.2821465721059155,28.261711955070496,10.0,1.153210678210678,9.0,38.302292659937876,6.0
subject-01,1,38,1.09865593910217,boat,chair,64-10-10,64-10-10_chair_10_n04099969_4541.png,False,0.892593018624972,1.8378643989562988,0.0666666666666666,-5.787253224330321,2.0097179412841797,0.0666666666666666,-5.713382354825887,28.254343032836914,10.0,0.06753663003662957,0.0,54.535869235547366,7.0
subject-02,1,447,1.28776288032532,bird,chair,64-10-10,64-10-10_chair_10_n04099969_4541.png,False,2.153660387387316,1.8378643989562988,0.0666666666666666,-5.787253224330321,2.0097179412841797,0.0666666666666666,-5.713382354825887,28.254343032836914,10.0,0.06753663003662957,0.0,54.535869235547366,7.0
subject-03,1,541,1.09744191169739,boat,chair,64-10-10,64-10-10_chair_10_n04099969_4541.png,False,0.3810445454727008,1.8378643989562988,0.0666666666666666,-5.787253224330321,2.0097179412841797,0.0666666666666666,-5.713382354825887,28.254343032836914,10.0,0.06753663003662957,0.0,54.535869235547366,7.0
subject-04,1,760,1.35052394866943,airplane,chair,64-10-10,64-10-10_chair_10_n04099969_4541.png,False,1.1626199605551828,1.8378643989562988,0.0666666666666666,-5.787253224330321,2.0097179412841797,0.0666666666666666,-5.713382354825887,28.254343032836914,10.0,0.06753663003662957,0.0,54.535869235547366,7.0
subject-01,1,39,0.866456985473633,chair,boat,128-10-10,128-10-10_boat_10_n04612504_12864.png,False,-0.2360709656403047,1.6786991357803345,0.1111111111111111,-4.408399120533177,1.9937405586242676,0.25,-2.5959734336066553,28.171929001808167,10.0,1.7289682539682538,0.0,32.72808744024995,3.0
subject-02,1,1022,1.10361886024475,bear,boat,128-10-10,128-10-10_boat_10_n04612504_12864.png,False,1.0922869045399122,1.6786991357803345,0.1111111111111111,-4.408399120533177,1.9937405586242676,0.25,-2.5959734336066553,28.171929001808167,10.0,1.7289682539682538,0.0,32.72808744024995,3.0
subject-03,1,446,1.07964301109314,bicycle,boat,128-10-10,128-10-10_boat_10_n04612504_12864.png,False,0.29837394373933007,1.6786991357803345,0.1111111111111111,-4.408399120533177,1.9937405586242676,0.25,-2.5959734336066553,28.171929001808167,10.0,1.7289682539682538,0.0,32.72808744024995,3.0
subject-04,1,827,1.06476593017578,bicycle,boat,128-10-10,128-10-10_boat_10_n04612504_12864.png,False,-0.04314784574820429,1.6786991357803345,0.1111111111111111,-4.408399120533177,1.9937405586242676,0.25,-2.5959734336066553,28.171929001808167,10.0,1.7289682539682538,0.0,32.72808744024995,3.0
subject-01,1,40,0.874287128448486,airplane,airplane,4-10-10,4-10-10_airplane_10_n02690373_18460.png,True,-0.19801049969392337,0.0005776234320364,1.0,-4.315469396779399e-05,2.212456226348877,0.25,-2.120953782568504,26.612768108432647,10.0,5.95,0.0,23.222597376545945,10.0
subject-02,1,324,0.881875038146973,airplane,airplane,4-10-10,4-10-10_airplane_10_n02690373_18460.png,True,-0.18580517065664812,0.0005776234320364,1.0,-4.315469396779399e-05,2.212456226348877,0.25,-2.120953782568504,26.612768108432647,10.0,5.95,0.0,23.222597376545945,10.0
subject-03,1,1044,1.09288096427917,airplane,airplane,4-10-10,4-10-10_airplane_10_n02690373_18460.png,True,0.3598603006745428,0.0005776234320364,1.0,-4.315469396779399e-05,2.212456226348877,0.25,-2.120953782568504,26.612768108432647,10.0,5.95,0.0,23.222597376545945,10.0
subject-04,1,272,0.966432094573975,airplane,airplane,4-10-10,4-10-10_airplane_10_n02690373_18460.png,True,-0.45807154190205646,0.0005776234320364,1.0,-4.315469396779399e-05,2.212456226348877,0.25,-2.120953782568504,26.612768108432647,10.0,5.95,0.0,23.222597376545945,10.0
subject-01,1,41,1.17604207992554,cat,bottle,64-10-10,64-10-10_bottle_10_n03983396_8982.png,False,1.2687486759340334,2.060995578765869,0.125,-3.3018956784847324,2.072395086288452,1.0,-1.231510403690555,28.503543853759766,10.0,4.208928571428571,1.0,27.098231730915643,4.0
subject-02,1,460,0.927397012710571,dog,bottle,64-10-10,64-10-10_bottle_10_n03983396_8982.png,False,0.07657541964173299,2.060995578765869,0.125,-3.3018956784847324,2.072395086288452,1.0,-1.231510403690555,28.503543853759766,10.0,4.208928571428571,1.0,27.098231730915643,4.0
subject-03,1,354,1.2279851436615,bird,bottle,64-10-10,64-10-10_bottle_10_n03983396_8982.png,False,0.9873790477348882,2.060995578765869,0.125,-3.3018956784847324,2.072395086288452,1.0,-1.231510403690555,28.503543853759766,10.0,4.208928571428571,1.0,27.098231730915643,4.0
subject-04,1,1,1.50014805793762,bird,bottle,64-10-10,64-10-10_bottle_10_n03983396_8982.png,False,1.7939650928927824,2.060995578765869,0.125,-3.3018956784847324,2.072395086288452,1.0,-1.231510403690555,28.503543853759766,10.0,4.208928571428571,1.0,27.098231730915643,4.0
subject-01,1,42,0.940145969390869,boat,dog,16-10-10,16-10-10_dog_10_n02099601_10407.png,False,0.12211368973734114,1.1317906379699707,0.0769230769230769,-5.585689503145644,2.1201164722442627,0.0833333333333333,-4.339195027858437,27.7478506565094,10.0,0.8213675213675211,9.0,41.80175610693662,6.0
subject-02,1,380,0.885343074798584,dog,dog,16-10-10,16-10-10_dog_10_n02099601_10407.png,True,-0.1658160222827162,1.1317906379699707,0.0769230769230769,-5.585689503145644,2.1201164722442627,0.0833333333333333,-4.339195027858437,27.7478506565094,10.0,0.8213675213675211,9.0,41.80175610693662,6.0
subject-03,1,336,1.02718997001648,dog,dog,16-10-10,16-10-10_dog_10_n02099601_10407.png,True,0.05474516211012509,1.1317906379699707,0.0769230769230769,-5.585689503145644,2.1201164722442627,0.0833333333333333,-4.339195027858437,27.7478506565094,10.0,0.8213675213675211,9.0,41.80175610693662,6.0
subject-04,1,1044,1.12457704544067,cat,dog,16-10-10,16-10-10_dog_10_n02099601_10407.png,False,0.2092276348268339,1.1317906379699707,0.0769230769230769,-5.585689503145644,2.1201164722442627,0.0833333333333333,-4.339195027858437,27.7478506565094,10.0,0.8213675213675211,9.0,41.80175610693662,6.0
subject-01,1,43,0.739727020263672,boat,airplane,32-10-10,32-10-10_airplane_10_n02690373_5253.png,False,-0.8520752379442074,2.0468878746032715,1.0,-1.2737046163524903,2.046605348587036,0.3333333333333333,-2.3867085508144252,28.50930118560791,10.0,3.759523809523809,10.0,27.1826073922899,10.0
subject-02,1,952,0.913115978240967,boat,airplane,32-10-10,32-10-10_airplane_10_n02690373_5253.png,False,-0.005737931001070237,2.0468878746032715,1.0,-1.2737046163524903,2.046605348587036,0.3333333333333333,-2.3867085508144252,28.50930118560791,10.0,3.759523809523809,10.0,27.1826073922899,10.0
subject-03,1,178,1.46042013168335,dog,airplane,32-10-10,32-10-10_airplane_10_n02690373_5253.png,False,2.066970464693927,2.0468878746032715,1.0,-1.2737046163524903,2.046605348587036,0.3333333333333333,-2.3867085508144252,28.50930118560791,10.0,3.759523809523809,10.0,27.1826073922899,10.0
subject-04,1,292,1.15870308876038,clock,airplane,32-10-10,32-10-10_airplane_10_n02690373_5253.png,False,0.3532238894492929,2.0468878746032715,1.0,-1.2737046163524903,2.046605348587036,0.3333333333333333,-2.3867085508144252,28.50930118560791,10.0,3.759523809523809,10.0,27.1826073922899,10.0
subject-01,1,44,0.869636058807373,elephant,elephant,2-10-10,2-10-10_elephant_10_n02504013_2832.png,True,-0.22061824494945004,0.0484079308807849,1.0,-0.007948913242785894,2.155115127563477,0.1666666666666666,-3.0206440484978403,26.59684743359685,10.0,4.974242424242425,6.0,30.116955554454137,10.0
subject-02,1,396,0.710325956344604,elephant,elephant,2-10-10,2-10-10_elephant_10_n02504013_2832.png,True,-1.1745836623621546,0.0484079308807849,1.0,-0.007948913242785894,2.155115127563477,0.1666666666666666,-3.0206440484978403,26.59684743359685,10.0,4.974242424242425,6.0,30.116955554454137,10.0
subject-03,1,380,0.86532187461853,elephant,elephant,2-10-10,2-10-10_elephant_10_n02504013_2832.png,True,-0.6970840179903597,0.0484079308807849,1.0,-0.007948913242785894,2.155115127563477,0.1666666666666666,-3.0206440484978403,26.59684743359685,10.0,4.974242424242425,6.0,30.116955554454137,10.0
subject-04,1,743,0.905877113342285,elephant,elephant,2-10-10,2-10-10_elephant_10_n02504013_2832.png,True,-0.713585795764018,0.0484079308807849,1.0,-0.007948913242785894,2.155115127563477,0.1666666666666666,-3.0206440484978403,26.59684743359685,10.0,4.974242424242425,6.0,30.116955554454137,10.0
subject-01,1,45,0.513876914978027,clock,clock,1-10-10,1-10-10_clock_10_n02708093_8002.png,True,-1.949878977775963,0.0020633763633668,1.0,-0.00017078188967837798,1.8759013414382937,1.0,-0.7845311417004157,25.390252572949976,10.0,10.25,3.0,16.51836768568562,10.0
subject-02,1,1135,0.724128007888794,clock,clock,1-10-10,1-10-10_clock_10_n02708093_8002.png,True,-1.0950310843773432,0.0020633763633668,1.0,-0.00017078188967837798,1.8759013414382937,1.0,-0.7845311417004157,25.390252572949976,10.0,10.25,3.0,16.51836768568562,10.0
subject-03,1,896,0.598343133926392,clock,clock,1-10-10,1-10-10_clock_10_n02708093_8002.png,True,-1.937120896322421,0.0020633763633668,1.0,-0.00017078188967837798,1.8759013414382937,1.0,-0.7845311417004157,25.390252572949976,10.0,10.25,3.0,16.51836768568562,10.0
subject-04,1,474,0.610722064971924,clock,clock,1-10-10,1-10-10_clock_10_n02708093_8002.png,True,-1.9590047592245605,0.0020633763633668,1.0,-0.00017078188967837798,1.8759013414382937,1.0,-0.7845311417004157,25.390252572949976,10.0,10.25,3.0,16.51836768568562,10.0
subject-01,1,46,0.657395124435425,chair,chair,2-10-10,2-10-10_chair_10_n03376595_1766.png,True,-1.2522710360970315,0.0022256192751228,1.0,-0.00019999358060443875,2.038238525390625,0.0666666666666666,-5.028640702241355,25.6994550046511,10.0,2.136446886446886,9.0,43.49141053215458,10.0
subject-02,1,209,0.695723056793213,chair,chair,2-10-10,2-10-10_chair_10_n03376595_1766.png,True,-1.2587521862694162,0.0022256192751228,1.0,-0.00019999358060443875,2.038238525390625,0.0666666666666666,-5.028640702241355,25.6994550046511,10.0,2.136446886446886,9.0,43.49141053215458,10.0
subject-03,1,838,0.857205867767334,chair,chair,2-10-10,2-10-10_chair_10_n03376595_1766.png,True,-0.7347804569434675,0.0022256192751228,1.0,-0.00019999358060443875,2.038238525390625,0.0666666666666666,-5.028640702241355,25.6994550046511,10.0,2.136446886446886,9.0,43.49141053215458,10.0
subject-04,1,1184,0.708400011062622,chair,chair,2-10-10,2-10-10_chair_10_n03376595_1766.png,True,-1.5468486160554111,0.0022256192751228,1.0,-0.00019999358060443875,2.038238525390625,0.0666666666666666,-5.028640702241355,25.6994550046511,10.0,2.136446886446886,9.0,43.49141053215458,10.0
subject-01,1,47,0.989163160324097,truck,truck,2-10-10,2-10-10_truck_10_n03417042_17616.png,True,0.3603746170656099,0.0429706797003746,1.0,-0.005226537606210587,1.976289749145508,0.0769230769230769,-4.473011968770708,25.335211537778378,10.0,2.3478687978687978,9.0,41.372488402743656,10.0
subject-02,1,1134,1.00641393661499,truck,truck,2-10-10,2-10-10_truck_10_n03417042_17616.png,True,0.5320149592565777,0.0429706797003746,1.0,-0.005226537606210587,1.976289749145508,0.0769230769230769,-4.473011968770708,25.335211537778378,10.0,2.3478687978687978,9.0,41.372488402743656,10.0
subject-03,1,623,0.95418906211853,truck,truck,2-10-10,2-10-10_truck_10_n03417042_17616.png,True,-0.28432235206908846,0.0429706797003746,1.0,-0.005226537606210587,1.976289749145508,0.0769230769230769,-4.473011968770708,25.335211537778378,10.0,2.3478687978687978,9.0,41.372488402743656,10.0
subject-04,1,707,1.2624819278717,truck,truck,2-10-10,2-10-10_truck_10_n03417042_17616.png,True,0.7911230036564738,0.0429706797003746,1.0,-0.005226537606210587,1.976289749145508,0.0769230769230769,-4.473011968770708,25.335211537778378,10.0,2.3478687978687978,9.0,41.372488402743656,10.0
subject-01,1,48,1.24484205245972,car,bear,16-10-10,16-10-10_bear_10_n02134418_2804.png,False,1.603169007741359,1.8302704095840456,0.3333333333333333,-2.038624506278323,2.2085041999816895,0.2,-2.8013690737952226,28.555269360542297,10.0,1.8678571428571422,9.0,31.364920806358263,0.0
subject-02,1,1215,0.775114059448242,cat,bear,16-10-10,16-10-10_bear_10_n02134418_2804.png,False,-0.801156523060548,1.8302704095840456,0.3333333333333333,-2.038624506278323,2.2085041999816895,0.2,-2.8013690737952226,28.555269360542297,10.0,1.8678571428571422,9.0,31.364920806358263,0.0
subject-03,1,927,1.24474406242371,boat,bear,16-10-10,16-10-10_bear_10_n02134418_2804.png,False,1.065219242996262,1.8302704095840456,0.3333333333333333,-2.038624506278323,2.2085041999816895,0.2,-2.8013690737952226,28.555269360542297,10.0,1.8678571428571422,9.0,31.364920806358263,0.0
subject-04,1,34,,na,bear,16-10-10,16-10-10_bear_10_n02134418_2804.png,False,,1.8302704095840456,0.3333333333333333,-2.038624506278323,2.2085041999816895,0.2,-2.8013690737952226,28.555269360542297,10.0,1.8678571428571422,9.0,31.364920806358263,0.0
subject-01,1,49,1.46058297157288,dog,car,64-10-10,64-10-10_car_10_n04285008_12101.png,False,2.6518343937398354,1.8159511089324951,0.0666666666666666,-5.399680823156009,2.024244546890259,0.0714285714285714,-4.702389138229405,28.211134672164917,10.0,0.19322899322899278,8.0,51.49251614236746,6.0
subject-02,1,391,0.837218999862671,bear,car,64-10-10,64-10-10_car_10_n04285008_12101.png,False,-0.4431946577724324,1.8159511089324951,0.0666666666666666,-5.399680823156009,2.024244546890259,0.0714285714285714,-4.702389138229405,28.211134672164917,10.0,0.19322899322899278,8.0,51.49251614236746,6.0
subject-03,1,504,1.08060908317566,keyboard,car,64-10-10,64-10-10_car_10_n04285008_12101.png,False,0.3028610613515644,1.8159511089324951,0.0666666666666666,-5.399680823156009,2.024244546890259,0.0714285714285714,-4.702389138229405,28.211134672164917,10.0,0.19322899322899278,8.0,51.49251614236746,6.0
subject-04,1,249,1.26873707771301,bird,car,64-10-10,64-10-10_car_10_n04285008_12101.png,False,0.8175168677447456,1.8159511089324951,0.0666666666666666,-5.399680823156009,2.024244546890259,0.0714285714285714,-4.702389138229405,28.211134672164917,10.0,0.19322899322899278,8.0,51.49251614236746,6.0
subject-01,1,50,0.800395965576172,bear,bear,16-10-10,16-10-10_bear_10_n02134418_3828.png,True,-0.5571778989703122,1.592119574546814,1.0,-0.5416018217092755,2.199484348297119,0.2,-2.699132347432462,28.408944249153137,10.0,4.292857142857143,6.0,28.068707361866945,10.0
subject-02,1,1088,0.746548175811768,cat,bear,16-10-10,16-10-10_bear_10_n02134418_3828.png,False,-0.9658052115848468,1.592119574546814,1.0,-0.5416018217092755,2.199484348297119,0.2,-2.699132347432462,28.408944249153137,10.0,4.292857142857143,6.0,28.068707361866945,10.0
subject-03,1,97,0.629132032394409,cat,bear,16-10-10,16-10-10_bear_10_n02134418_3828.png,False,-1.7941156164091847,1.592119574546814,1.0,-0.5416018217092755,2.199484348297119,0.2,-2.699132347432462,28.408944249153137,10.0,4.292857142857143,6.0,28.068707361866945,10.0
subject-04,1,60,1.50008702278137,clock,bear,16-10-10,16-10-10_bear_10_n02134418_3828.png,False,1.793707552520523,1.592119574546814,1.0,-0.5416018217092755,2.199484348297119,0.2,-2.699132347432462,28.408944249153137,10.0,4.292857142857143,6.0,28.068707361866945,10.0
subject-01,1,51,0.734286785125732,bird,bird,2-10-10,2-10-10_bird_10_n01530575_5747.png,True,-0.8785189293139376,0.0053043910302221,1.0,-0.0005082587383026946,1.909761667251587,0.1666666666666666,-3.4350260903798713,25.587618405465037,10.0,2.6980158730158728,10.0,31.73961403612415,10.0
subject-02,1,682,0.694080114364624,bird,bird,2-10-10,2-10-10_bird_10_n01530575_5747.png,True,-1.268221815132663,0.0053043910302221,1.0,-0.0005082587383026946,1.909761667251587,0.1666666666666666,-3.4350260903798713,25.587618405465037,10.0,2.6980158730158728,10.0,31.73961403612415,10.0
subject-03,1,760,0.751916885375977,bird,bird,2-10-10,2-10-10_bird_10_n01530575_5747.png,True,-1.2238164779721727,0.0053043910302221,1.0,-0.0005082587383026946,1.909761667251587,0.1666666666666666,-3.4350260903798713,25.587618405465037,10.0,2.6980158730158728,10.0,31.73961403612415,10.0
subject-04,1,1026,0.937912940979004,bird,bird,2-10-10,2-10-10_bird_10_n01530575_5747.png,True,-0.5784092928743942,0.0053043910302221,1.0,-0.0005082587383026946,1.909761667251587,0.1666666666666666,-3.4350260903798713,25.587618405465037,10.0,2.6980158730158728,10.0,31.73961403612415,10.0
subject-01,1,52,1.00006914138794,cat,truck,128-10-10,128-10-10_truck_10_n03796401_3386.png,False,0.4133860016885154,1.8179010152816772,0.0833333333333333,-4.737299825817141,1.9033855199813845,0.0833333333333333,-4.666106796212136,28.10322332382202,10.0,0.234265734265734,7.0,48.65387274759862,6.0
subject-02,1,1239,0.866719007492065,cat,truck,128-10-10,128-10-10_truck_10_n03796401_3386.png,False,-0.2731618441739494,1.8179010152816772,0.0833333333333333,-4.737299825817141,1.9033855199813845,0.0833333333333333,-4.666106796212136,28.10322332382202,10.0,0.234265734265734,7.0,48.65387274759862,6.0
subject-03,1,522,0.91689395904541,cat,truck,128-10-10,128-10-10_truck_10_n03796401_3386.png,False,-0.45754701809294046,1.8179010152816772,0.0833333333333333,-4.737299825817141,1.9033855199813845,0.0833333333333333,-4.666106796212136,28.10322332382202,10.0,0.234265734265734,7.0,48.65387274759862,6.0
subject-04,1,1082,0.897221088409424,bird,truck,128-10-10,128-10-10_truck_10_n03796401_3386.png,False,-0.750110251839203,1.8179010152816772,0.0833333333333333,-4.737299825817141,1.9033855199813845,0.0833333333333333,-4.666106796212136,28.10322332382202,10.0,0.234265734265734,7.0,48.65387274759862,6.0
subject-01,1,53,1.13001894950867,keyboard,keyboard,16-10-10,16-10-10_keyboard_10_n04505470_3234.png,True,1.0450411659175847,2.1185011863708496,0.3333333333333333,-2.7709523645836915,1.9789267778396609,0.0909090909090909,-4.175785112938443,28.1183043718338,10.0,1.4433621933621932,9.0,41.19926201497114,7.0
subject-02,1,383,0.776968955993652,keyboard,keyboard,16-10-10,16-10-10_keyboard_10_n04505470_3234.png,True,-0.7904652282475962,2.1185011863708496,0.3333333333333333,-2.7709523645836915,1.9789267778396609,0.0909090909090909,-4.175785112938443,28.1183043718338,10.0,1.4433621933621932,9.0,41.19926201497114,7.0
subject-03,1,971,1.00107884407043,keyboard,keyboard,16-10-10,16-10-10_keyboard_10_n04505470_3234.png,True,-0.06653325512989096,2.1185011863708496,0.3333333333333333,-2.7709523645836915,1.9789267778396609,0.0909090909090909,-4.175785112938443,28.1183043718338,10.0,1.4433621933621932,9.0,41.19926201497114,7.0
subject-04,1,1205,1.28053212165833,oven,keyboard,16-10-10,16-10-10_keyboard_10_n04505470_3234.png,False,0.8672865446838955,2.1185011863708496,0.3333333333333333,-2.7709523645836915,1.9789267778396609,0.0909090909090909,-4.175785112938443,28.1183043718338,10.0,1.4433621933621932,9.0,41.19926201497114,7.0
subject-01,1,54,0.776087999343872,truck,truck,1-10-10,1-10-10_truck_10_n04467665_72639.png,True,-0.6753331515603986,0.5948962569236755,0.5,-1.3321172349244166,2.0147769451141357,0.0833333333333333,-4.487777348783392,26.1103555560112,10.0,0.793106893106893,10.0,43.55822019038011,6.0
subject-02,1,334,0.768296003341675,truck,truck,1-10-10,1-10-10_truck_10_n04467665_72639.png,True,-0.840454589611445,0.5948962569236755,0.5,-1.3321172349244166,2.0147769451141357,0.0833333333333333,-4.487777348783392,26.1103555560112,10.0,0.793106893106893,10.0,43.55822019038011,6.0
subject-03,1,489,0.869354963302612,truck,truck,1-10-10,1-10-10_truck_10_n04467665_72639.png,True,-0.6783515200810512,0.5948962569236755,0.5,-1.3321172349244166,2.0147769451141357,0.0833333333333333,-4.487777348783392,26.1103555560112,10.0,0.793106893106893,10.0,43.55822019038011,6.0
subject-04,1,1054,1.13081407546997,truck,truck,1-10-10,1-10-10_truck_10_n04467665_72639.png,True,0.2355450416170987,0.5948962569236755,0.5,-1.3321172349244166,2.0147769451141357,0.0833333333333333,-4.487777348783392,26.1103555560112,10.0,0.793106893106893,10.0,43.55822019038011,6.0
subject-01,1,55,1.1074481010437,bear,chair,32-10-10,32-10-10_chair_10_n04429376_27524.png,False,0.9353296303631452,2.1790966987609863,0.125,-3.575375797650643,2.1090123653411865,0.0666666666666666,-5.7776161785483,28.66803741455078,10.0,0.11845238095238037,10.0,52.32034744451242,7.0
subject-02,1,978,1.41211605072021,oven,chair,32-10-10,32-10-10_chair_10_n04429376_27524.png,False,2.870410013616788,2.1790966987609863,0.125,-3.575375797650643,2.1090123653411865,0.0666666666666666,-5.7776161785483,28.66803741455078,10.0,0.11845238095238037,10.0,52.32034744451242,7.0
subject-03,1,822,1.32844805717468,oven,chair,32-10-10,32-10-10_chair_10_n04429376_27524.png,False,1.4539994136039531,2.1790966987609863,0.125,-3.575375797650643,2.1090123653411865,0.0666666666666666,-5.7776161785483,28.66803741455078,10.0,0.11845238095238037,10.0,52.32034744451242,7.0
subject-04,1,1033,1.13668489456177,oven,chair,32-10-10,32-10-10_chair_10_n04429376_27524.png,False,0.2603172061738074,2.1790966987609863,0.125,-3.575375797650643,2.1090123653411865,0.0666666666666666,-5.7776161785483,28.66803741455078,10.0,0.11845238095238037,10.0,52.32034744451242,7.0
subject-01,1,56,0.795408010482788,boat,bottle,64-10-10,64-10-10_bottle_10_n04557648_11440.png,False,-0.581423164425045,0.8793821334838867,0.125,-4.8073163167492705,2.0628156661987305,1.0,-1.1900120218610812,27.41808772087097,10.0,3.676190476190476,4.0,28.838273239720245,4.0
subject-02,1,648,0.966311931610107,elephant,bottle,64-10-10,64-10-10_bottle_10_n04557648_11440.png,False,0.30087411252925145,0.8793821334838867,0.125,-4.8073163167492705,2.0628156661987305,1.0,-1.1900120218610812,27.41808772087097,10.0,3.676190476190476,4.0,28.838273239720245,4.0
subject-03,1,1202,1.31294298171997,bird,bottle,64-10-10,64-10-10_bottle_10_n04557648_11440.png,False,1.381982947741105,0.8793821334838867,0.125,-4.8073163167492705,2.0628156661987305,1.0,-1.1900120218610812,27.41808772087097,10.0,3.676190476190476,4.0,28.838273239720245,4.0
subject-04,1,536,1.50010991096497,bear,bottle,64-10-10,64-10-10_bottle_10_n04557648_11440.png,False,1.7938041301601464,0.8793821334838867,0.125,-4.8073163167492705,2.0628156661987305,1.0,-1.1900120218610812,27.41808772087097,10.0,3.676190476190476,4.0,28.838273239720245,4.0
subject-01,1,57,1.40327095985413,oven,keyboard,32-10-10,32-10-10_keyboard_10_n03085013_20216.png,False,2.3732543119526244,1.983957052230835,0.0666666666666666,-4.407762257621166,2.040567636489868,0.0909090909090909,-4.038252619272063,28.346071362495422,10.0,0.5417748917748912,7.0,43.45512091068031,7.0
subject-02,1,688,0.836872100830078,oven,keyboard,32-10-10,32-10-10_keyboard_10_n03085013_20216.png,False,-0.4451941222907943,1.983957052230835,0.0666666666666666,-4.407762257621166,2.040567636489868,0.0909090909090909,-4.038252619272063,28.346071362495422,10.0,0.5417748917748912,7.0,43.45512091068031,7.0
subject-03,1,1119,1.11304402351379,knife,keyboard,32-10-10,32-10-10_keyboard_10_n03085013_20216.png,False,0.45351171638690607,1.983957052230835,0.0666666666666666,-4.407762257621166,2.040567636489868,0.0909090909090909,-4.038252619272063,28.346071362495422,10.0,0.5417748917748912,7.0,43.45512091068031,7.0
subject-04,1,361,0.887957096099854,cat,keyboard,32-10-10,32-10-10_keyboard_10_n03085013_20216.png,False,-0.7892000514661905,1.983957052230835,0.0666666666666666,-4.407762257621166,2.040567636489868,0.0909090909090909,-4.038252619272063,28.346071362495422,10.0,0.5417748917748912,7.0,43.45512091068031,7.0
subject-01,1,58,0.665127992630005,boat,boat,8-10-10,8-10-10_boat_10_n02951358_34653.png,True,-1.2146833997623077,1.1366612911224363,0.2,-3.8383770717372956,2.2289302349090576,0.25,-2.3877294241527127,28.0443913936615,10.0,1.4428321678321676,3.0,33.134613358273874,3.0
subject-02,1,417,1.05965399742126,dog,boat,8-10-10,8-10-10_boat_10_n02951358_34653.png,False,0.8388812302342294,1.1366612911224363,0.2,-3.8383770717372956,2.2289302349090576,0.25,-2.3877294241527127,28.0443913936615,10.0,1.4428321678321676,3.0,33.134613358273874,3.0
subject-03,1,716,1.27628993988037,boat,boat,8-10-10,8-10-10_boat_10_n02951358_34653.png,True,1.2117404652635833,1.1366612911224363,0.2,-3.8383770717372956,2.2289302349090576,0.25,-2.3877294241527127,28.0443913936615,10.0,1.4428321678321676,3.0,33.134613358273874,3.0
subject-04,1,646,1.2398509979248,bird,boat,8-10-10,8-10-10_boat_10_n02951358_34653.png,False,0.6956308564876073,1.1366612911224363,0.2,-3.8383770717372956,2.2289302349090576,0.25,-2.3877294241527127,28.0443913936615,10.0,1.4428321678321676,3.0,33.134613358273874,3.0
subject-01,1,59,0.669102907180786,keyboard,keyboard,2-10-10,2-10-10_keyboard_10_n03085013_8932.png,True,-1.1953622838662574,0.3784705400466919,1.0,-0.13217883952323886,1.5419358015060425,0.1,-4.351000565174775,24.446118593215942,10.0,3.1670995670995667,9.0,37.12434577836979,10.0
subject-02,1,205,0.696699857711792,keyboard,keyboard,2-10-10,2-10-10_keyboard_10_n03085013_8932.png,True,-1.2531220789623903,0.3784705400466919,1.0,-0.13217883952323886,1.5419358015060425,0.1,-4.351000565174775,24.446118593215942,10.0,3.1670995670995667,9.0,37.12434577836979,10.0
subject-03,1,291,0.859620094299316,keyboard,keyboard,2-10-10,2-10-10_keyboard_10_n03085013_8932.png,True,-0.7235670924465635,0.3784705400466919,1.0,-0.13217883952323886,1.5419358015060425,0.1,-4.351000565174775,24.446118593215942,10.0,3.1670995670995667,9.0,37.12434577836979,10.0
subject-04,1,514,0.667125940322876,keyboard,keyboard,2-10-10,2-10-10_keyboard_10_n03085013_8932.png,True,-1.721006268727475,0.3784705400466919,1.0,-0.13217883952323886,1.5419358015060425,0.1,-4.351000565174775,24.446118593215942,10.0,3.1670995670995667,9.0,37.12434577836979,10.0
subject-01,1,60,1.21475315093994,chair,cat,1-10-10,1-10-10_cat_10_n02125311_35338.png,False,1.4569140012446087,0.5868122577667236,1.0,-0.14416892385330293,2.081712484359741,0.2,-3.0561667457621753,26.69973337650299,10.0,4.402777777777778,8.0,29.59514773889322,10.0
subject-02,1,427,1.30166101455688,bird,cat,1-10-10,1-10-10_cat_10_n02125311_35338.png,False,2.2337667689465834,0.5868122577667236,1.0,-0.14416892385330293,2.081712484359741,0.2,-3.0561667457621753,26.69973337650299,10.0,4.402777777777778,8.0,29.59514773889322,10.0
subject-03,1,51,0.827920913696289,cat,cat,1-10-10,1-10-10_cat_10_n02125311_35338.png,True,-0.8708003622520772,0.5868122577667236,1.0,-0.14416892385330293,2.081712484359741,0.2,-3.0561667457621753,26.69973337650299,10.0,4.402777777777778,8.0,29.59514773889322,10.0
subject-04,1,53,1.37054300308228,elephant,cat,1-10-10,1-10-10_cat_10_n02125311_35338.png,False,1.2470911906221238,0.5868122577667236,1.0,-0.14416892385330293,2.081712484359741,0.2,-3.0561667457621753,26.69973337650299,10.0,4.402777777777778,8.0,29.59514773889322,10.0
subject-01,1,61,1.05440711975098,bird,bicycle,16-10-10,16-10-10_bicycle_10_n03792782_5449.png,False,0.6775100134369122,2.0822112560272217,0.0909090909090909,-4.395151260684585,2.0578086376190186,0.1111111111111111,-3.5784836449789124,28.40401804447174,10.0,0.950937950937951,3.0,38.00164700983588,6.0
subject-02,1,1264,0.865835189819336,cat,bicycle,16-10-10,16-10-10_bicycle_10_n03792782_5449.png,False,-0.27825601253790694,2.0822112560272217,0.0909090909090909,-4.395151260684585,2.0578086376190186,0.1111111111111111,-3.5784836449789124,28.40401804447174,10.0,0.950937950937951,3.0,38.00164700983588,6.0
subject-03,1,549,0.957974910736084,bicycle,bicycle,16-10-10,16-10-10_bicycle_10_n03792782_5449.png,True,-0.26673821076488324,2.0822112560272217,0.0909090909090909,-4.395151260684585,2.0578086376190186,0.1111111111111111,-3.5784836449789124,28.40401804447174,10.0,0.950937950937951,3.0,38.00164700983588,6.0
subject-04,1,1038,0.757669925689697,cat,bicycle,16-10-10,16-10-10_bicycle_10_n03792782_5449.png,False,-1.338952168600294,2.0822112560272217,0.0909090909090909,-4.395151260684585,2.0578086376190186,0.1111111111111111,-3.5784836449789124,28.40401804447174,10.0,0.950937950937951,3.0,38.00164700983588,6.0
subject-01,1,62,0.816334962844849,bicycle,bicycle,4-10-10,4-10-10_bicycle_10_n03792782_9432.png,True,-0.4797022175284497,0.9731717109680176,1.0,-0.3115570588888161,2.228503704071045,0.125,-3.2288959691671435,27.87879467010498,10.0,2.128210678210678,10.0,31.301249713783573,10.0
subject-02,1,579,1.03015899658203,bicycle,bicycle,4-10-10,4-10-10_bicycle_10_n03792782_9432.png,True,0.6688772748865429,0.9731717109680176,1.0,-0.3115570588888161,2.228503704071045,0.125,-3.2288959691671435,27.87879467010498,10.0,2.128210678210678,10.0,31.301249713783573,10.0
subject-03,1,324,1.31760191917419,boat,bicycle,4-10-10,4-10-10_bicycle_10_n03792782_9432.png,False,1.4036223271242636,0.9731717109680176,1.0,-0.3115570588888161,2.228503704071045,0.125,-3.2288959691671435,27.87879467010498,10.0,2.128210678210678,10.0,31.301249713783573,10.0
subject-04,1,354,1.2192530632019,bicycle,bicycle,4-10-10,4-10-10_bicycle_10_n03792782_9432.png,True,0.6087170169525555,0.9731717109680176,1.0,-0.3115570588888161,2.228503704071045,0.125,-3.2288959691671435,27.87879467010498,10.0,2.128210678210678,10.0,31.301249713783573,10.0
subject-01,1,63,1.21808791160583,car,bottle,1-10-10,1-10-10_bottle_10_n04591713_4291.png,False,1.473123481093324,1.66762375831604,1.0,-0.9661213444586033,1.9749020338058472,0.5,-1.4366432863804275,27.69257080554962,10.0,5.202380952380951,10.0,22.09676282918695,10.0
subject-02,1,907,1.08727598190308,bottle,bottle,1-10-10,1-10-10_bottle_10_n04591713_4291.png,True,0.9980894513852545,1.66762375831604,1.0,-0.9661213444586033,1.9749020338058472,0.5,-1.4366432863804275,27.69257080554962,10.0,5.202380952380951,10.0,22.09676282918695,10.0
subject-03,1,173,0.897373914718628,airplane,bottle,1-10-10,1-10-10_bottle_10_n04591713_4291.png,False,-0.5482118207252912,1.66762375831604,1.0,-0.9661213444586033,1.9749020338058472,0.5,-1.4366432863804275,27.69257080554962,10.0,5.202380952380951,10.0,22.09676282918695,10.0
subject-04,1,925,1.49160099029541,knife,bottle,1-10-10,1-10-10_bottle_10_n04591713_4291.png,False,1.7579003866227696,1.66762375831604,1.0,-0.9661213444586033,1.9749020338058472,0.5,-1.4366432863804275,27.69257080554962,10.0,5.202380952380951,10.0,22.09676282918695,10.0
subject-01,1,64,0.755951166152954,truck,truck,4-10-10,4-10-10_truck_10_n04467665_67057.png,True,-0.7732135167583645,0.7621490359306335,1.0,-0.1814069008707958,1.9646711349487305,0.0833333333333333,-4.317609285012917,26.57445591688156,10.0,1.2418803418803415,10.0,42.69072058720269,10.0
subject-02,1,1199,0.822595119476318,truck,truck,4-10-10,4-10-10_truck_10_n04467665_67057.png,True,-0.5274841114924941,0.7621490359306335,1.0,-0.1814069008707958,1.9646711349487305,0.0833333333333333,-4.317609285012917,26.57445591688156,10.0,1.2418803418803415,10.0,42.69072058720269,10.0
subject-03,1,973,1.13450407981873,truck,truck,4-10-10,4-10-10_truck_10_n04467665_67057.png,True,0.5531872978965757,0.7621490359306335,1.0,-0.1814069008707958,1.9646711349487305,0.0833333333333333,-4.317609285012917,26.57445591688156,10.0,1.2418803418803415,10.0,42.69072058720269,10.0
subject-04,1,38,1.3475341796875,truck,truck,4-10-10,4-10-10_truck_10_n04467665_67057.png,True,1.1500045063828064,0.7621490359306335,1.0,-0.1814069008707958,1.9646711349487305,0.0833333333333333,-4.317609285012917,26.57445591688156,10.0,1.2418803418803415,10.0,42.69072058720269,10.0
subject-01,1,65,0.987732172012329,bird,keyboard,1-10-10,1-10-10_keyboard_10_n03085013_22790.png,False,0.3534189226313408,0.0110876765102148,1.0,-0.0012449023198353663,1.8747200965881348,0.1111111111111111,-3.8933978798018534,25.344015499576926,10.0,3.7051337551337546,8.0,36.13607840959212,10.0
subject-02,1,150,0.982393980026245,cat,keyboard,1-10-10,1-10-10_keyboard_10_n03085013_22790.png,False,0.3935681882385177,0.0110876765102148,1.0,-0.0012449023198353663,1.8747200965881348,0.1111111111111111,-3.8933978798018534,25.344015499576926,10.0,3.7051337551337546,8.0,36.13607840959212,10.0
subject-03,1,1030,1.21627902984619,bird,keyboard,1-10-10,1-10-10_keyboard_10_n03085013_22790.png,False,0.9330076292642485,0.0110876765102148,1.0,-0.0012449023198353663,1.8747200965881348,0.1111111111111111,-3.8933978798018534,25.344015499576926,10.0,3.7051337551337546,8.0,36.13607840959212,10.0
subject-04,1,188,,na,keyboard,1-10-10,1-10-10_keyboard_10_n03085013_22790.png,False,,0.0110876765102148,1.0,-0.0012449023198353663,1.8747200965881348,0.1111111111111111,-3.8933978798018534,25.344015499576926,10.0,3.7051337551337546,8.0,36.13607840959212,10.0
subject-01,1,66,0.881647109985352,dog,dog,4-10-10,4-10-10_dog_10_n02086079_2896.png,True,-0.16223537687055697,0.9241728782653807,1.0,-0.34614995272637655,2.1253294944763184,0.0833333333333333,-4.148795031590306,27.052931547164917,10.0,2.6853535353535354,10.0,35.039981928941614,10.0
subject-02,1,343,0.808414936065674,dog,dog,4-10-10,4-10-10_dog_10_n02086079_2896.png,True,-0.6092161745124336,0.9241728782653807,1.0,-0.34614995272637655,2.1253294944763184,0.0833333333333333,-4.148795031590306,27.052931547164917,10.0,2.6853535353535354,10.0,35.039981928941614,10.0
subject-03,1,709,0.989827871322632,dog,dog,4-10-10,4-10-10_dog_10_n02086079_2896.png,True,-0.11879067865436009,0.9241728782653807,1.0,-0.34614995272637655,2.1253294944763184,0.0833333333333333,-4.148795031590306,27.052931547164917,10.0,2.6853535353535354,10.0,35.039981928941614,10.0
subject-04,1,356,1.42491698265076,dog,dog,4-10-10,4-10-10_dog_10_n02086079_2896.png,True,1.4765244517074223,0.9241728782653807,1.0,-0.34614995272637655,2.1253294944763184,0.0833333333333333,-4.148795031590306,27.052931547164917,10.0,2.6853535353535354,10.0,35.039981928941614,10.0
subject-01,1,67,0.831305980682373,boat,knife,8-10-10,8-10-10_knife_10_n03041632_40508.png,False,-0.4069316542810458,1.5865051746368408,0.1,-4.804490353291742,2.1054399013519287,0.1666666666666666,-3.303705349946556,27.955005049705505,10.0,1.6457070707070707,6.0,37.977181882823274,6.0
subject-02,1,275,1.37680888175964,knife,knife,8-10-10,8-10-10_knife_10_n03041632_40508.png,True,2.6669057517202273,1.5865051746368408,0.1,-4.804490353291742,2.1054399013519287,0.1666666666666666,-3.303705349946556,27.955005049705505,10.0,1.6457070707070707,6.0,37.977181882823274,6.0
subject-03,1,472,0.938536882400513,knife,knife,8-10-10,8-10-10_knife_10_n03041632_40508.png,True,-0.35702207350122944,1.5865051746368408,0.1,-4.804490353291742,2.1054399013519287,0.1666666666666666,-3.303705349946556,27.955005049705505,10.0,1.6457070707070707,6.0,37.977181882823274,6.0
subject-04,1,1240,1.50012588500977,knife,knife,8-10-10,8-10-10_knife_10_n03041632_40508.png,True,1.7938715333044497,1.5865051746368408,0.1,-4.804490353291742,2.1054399013519287,0.1666666666666666,-3.303705349946556,27.955005049705505,10.0,1.6457070707070707,6.0,37.977181882823274,6.0
subject-01,1,68,1.18108701705933,car,boat,1-10-10,1-10-10_boat_10_n03344393_7942.png,False,1.2932709175583446,0.0013540098443627,1.0,-0.00011122845280578226,2.2087926864624023,0.25,-2.303225511507746,26.105784208513796,10.0,3.0277777777777777,10.0,25.829506639814802,10.0
subject-02,1,1036,0.841263055801392,boat,boat,1-10-10,1-10-10_boat_10_n03344393_7942.png,True,-0.4198854363563253,0.0013540098443627,1.0,-0.00011122845280578226,2.2087926864624023,0.25,-2.303225511507746,26.105784208513796,10.0,3.0277777777777777,10.0,25.829506639814802,10.0
subject-03,1,1168,0.837761878967285,boat,boat,1-10-10,1-10-10_boat_10_n03344393_7942.png,True,-0.8250920042652812,0.0013540098443627,1.0,-0.00011122845280578226,2.2087926864624023,0.25,-2.303225511507746,26.105784208513796,10.0,3.0277777777777777,10.0,25.829506639814802,10.0
subject-04,1,661,1.34901905059814,oven,boat,1-10-10,1-10-10_boat_10_n03344393_7942.png,False,1.1562699807516597,0.0013540098443627,1.0,-0.00011122845280578226,2.2087926864624023,0.25,-2.303225511507746,26.105784208513796,10.0,3.0277777777777777,10.0,25.829506639814802,10.0
subject-01,1,69,0.809026956558228,bear,bear,2-10-10,2-10-10_bear_10_n02134418_4352.png,True,-0.5152247010004839,0.1139426454901695,1.0,-0.023261002942574265,2.2908854484558105,0.1666666666666666,-2.702206184792396,26.50435235351324,10.0,3.68015873015873,9.0,28.295583371530626,10.0
subject-02,1,1271,0.936433076858521,bear,bear,2-10-10,2-10-10_bear_10_n02134418_4352.png,True,0.12865769128838206,0.1139426454901695,1.0,-0.023261002942574265,2.2908854484558105,0.1666666666666666,-2.702206184792396,26.50435235351324,10.0,3.68015873015873,9.0,28.295583371530626,10.0
subject-03,1,636,0.80978798866272,bear,bear,2-10-10,2-10-10_bear_10_n02134418_4352.png,True,-0.9550224081549192,0.1139426454901695,1.0,-0.023261002942574265,2.2908854484558105,0.1666666666666666,-2.702206184792396,26.50435235351324,10.0,3.68015873015873,9.0,28.295583371530626,10.0
subject-04,1,1274,1.12777996063232,bear,bear,2-10-10,2-10-10_bear_10_n02134418_4352.png,True,0.22274246826797273,0.1139426454901695,1.0,-0.023261002942574265,2.2908854484558105,0.1666666666666666,-2.702206184792396,26.50435235351324,10.0,3.68015873015873,9.0,28.295583371530626,10.0
subject-01,1,70,0.930731058120728,dog,cat,16-10-10,16-10-10_cat_10_n02123045_5157.png,False,0.07635004136767211,1.7558259963989258,0.1428571428571428,-3.691211655210218,2.131105422973633,0.2,-2.9105155042734925,28.233901381492615,10.0,3.1289682539682535,6.0,32.71754575495721,0.0
subject-02,1,484,1.24782991409302,dog,cat,16-10-10,16-10-10_cat_10_n02123045_5157.png,False,1.9234938501744347,1.7558259963989258,0.1428571428571428,-3.691211655210218,2.131105422973633,0.2,-2.9105155042734925,28.233901381492615,10.0,3.1289682539682535,6.0,32.71754575495721,0.0
subject-03,1,719,0.981698989868164,cat,cat,16-10-10,16-10-10_cat_10_n02123045_5157.png,True,-0.15654691631207526,1.7558259963989258,0.1428571428571428,-3.691211655210218,2.131105422973633,0.2,-2.9105155042734925,28.233901381492615,10.0,3.1289682539682535,6.0,32.71754575495721,0.0
subject-04,1,178,1.18372297286987,cat,cat,16-10-10,16-10-10_cat_10_n02123045_5157.png,True,0.45879632775109,1.7558259963989258,0.1428571428571428,-3.691211655210218,2.131105422973633,0.2,-2.9105155042734925,28.233901381492615,10.0,3.1289682539682535,6.0,32.71754575495721,0.0
subject-01,1,71,1.18455910682678,dog,dog,16-10-10,16-10-10_dog_10_n02109047_14287.png,True,1.310147921564685,1.4988608360290527,0.5,-2.170158341018557,2.1022908687591553,0.0833333333333333,-4.20088012600882,27.844860672950745,10.0,1.602020202020202,9.0,37.76333280464335,6.0
subject-02,1,1223,0.883408069610596,dog,dog,16-10-10,16-10-10_dog_10_n02109047_14287.png,True,-0.17696904910815406,1.4988608360290527,0.5,-2.170158341018557,2.1022908687591553,0.0833333333333333,-4.20088012600882,27.844860672950745,10.0,1.602020202020202,9.0,37.76333280464335,6.0
subject-03,1,878,1.5001220703125,bicycle,dog,16-10-10,16-10-10_dog_10_n02109047_14287.png,False,2.2513741663287066,1.4988608360290527,0.5,-2.170158341018557,2.1022908687591553,0.0833333333333333,-4.20088012600882,27.844860672950745,10.0,1.602020202020202,9.0,37.76333280464335,6.0
subject-04,1,1165,,na,dog,16-10-10,16-10-10_dog_10_n02109047_14287.png,False,,1.4988608360290527,0.5,-2.170158341018557,2.1022908687591553,0.0833333333333333,-4.20088012600882,27.844860672950745,10.0,1.602020202020202,9.0,37.76333280464335,6.0
subject-01,1,72,0.922544956207275,truck,truck,2-10-10,2-10-10_truck_10_n03417042_14274.png,True,0.03655934353351958,0.0126977581530809,1.0,-0.0013892759832382804,2.1699304580688477,0.0909090909090909,-4.129629091324951,26.46284336037934,10.0,2.6756465756465753,9.0,38.479147122192856,10.0
subject-02,1,1208,0.86030387878418,truck,truck,2-10-10,2-10-10_truck_10_n03417042_14274.png,True,-0.3101375086382263,0.0126977581530809,1.0,-0.0013892759832382804,2.1699304580688477,0.0909090909090909,-4.129629091324951,26.46284336037934,10.0,2.6756465756465753,9.0,38.479147122192856,10.0
subject-03,1,875,1.00232601165771,truck,truck,2-10-10,2-10-10_truck_10_n03417042_14274.png,True,-0.06074053246711145,0.0126977581530809,1.0,-0.0013892759832382804,2.1699304580688477,0.0909090909090909,-4.129629091324951,26.46284336037934,10.0,2.6756465756465753,9.0,38.479147122192856,10.0
subject-04,1,435,1.08773398399353,truck,truck,2-10-10,2-10-10_truck_10_n03417042_14274.png,True,0.053766809570565385,0.0126977581530809,1.0,-0.0013892759832382804,2.1699304580688477,0.0909090909090909,-4.129629091324951,26.46284336037934,10.0,2.6756465756465753,9.0,38.479147122192856,10.0
subject-01,1,73,0.934284925460815,airplane,airplane,2-10-10,2-10-10_airplane_10_n02690373_5885.png,True,0.09362454673874143,0.0723309814929962,1.0,-0.009261508054101116,1.8121410608291624,0.3333333333333333,-2.16791067484937,25.071840673685074,10.0,4.427777777777777,9.0,24.786924567709512,10.0
subject-02,1,1023,0.911903142929077,airplane,airplane,2-10-10,2-10-10_airplane_10_n02690373_5885.png,True,-0.012728498702034715,0.0723309814929962,1.0,-0.009261508054101116,1.8121410608291624,0.3333333333333333,-2.16791067484937,25.071840673685074,10.0,4.427777777777777,9.0,24.786924567709512,10.0
subject-03,1,202,1.01624798774719,airplane,airplane,2-10-10,2-10-10_airplane_10_n02690373_5885.png,True,0.00392290749614678,0.0723309814929962,1.0,-0.009261508054101116,1.8121410608291624,0.3333333333333333,-2.16791067484937,25.071840673685074,10.0,4.427777777777777,9.0,24.786924567709512,10.0
subject-04,1,1056,1.31611704826355,airplane,airplane,2-10-10,2-10-10_airplane_10_n02690373_5885.png,True,1.017438617813548,0.0723309814929962,1.0,-0.009261508054101116,1.8121410608291624,0.3333333333333333,-2.16791067484937,25.071840673685074,10.0,4.427777777777777,9.0,24.786924567709512,10.0
subject-01,1,74,0.970005989074707,cat,cat,32-10-10,32-10-10_cat_10_n02123394_571.png,True,0.2672561559713417,2.2577948570251465,0.25,-2.1709836264515663,1.939286231994629,0.1428571428571428,-3.4624542164773855,28.40906286239624,10.0,3.264682539682539,8.0,33.45193087825281,6.0
subject-02,1,394,0.669096946716309,cat,cat,32-10-10,32-10-10_cat_10_n02123394_571.png,True,-1.412220363919915,2.2577948570251465,0.25,-2.1709836264515663,1.939286231994629,0.1428571428571428,-3.4624542164773855,28.40906286239624,10.0,3.264682539682539,8.0,33.45193087825281,6.0
subject-03,1,494,0.668015956878662,cat,cat,32-10-10,32-10-10_cat_10_n02123394_571.png,True,-1.6135113472836744,2.2577948570251465,0.25,-2.1709836264515663,1.939286231994629,0.1428571428571428,-3.4624542164773855,28.40906286239624,10.0,3.264682539682539,8.0,33.45193087825281,6.0
subject-04,1,970,0.814729928970337,cat,cat,32-10-10,32-10-10_cat_10_n02123394_571.png,True,-1.0981851191014183,2.2577948570251465,0.25,-2.1709836264515663,1.939286231994629,0.1428571428571428,-3.4624542164773855,28.40906286239624,10.0,3.264682539682539,8.0,33.45193087825281,6.0
subject-01,1,75,1.13007283210754,cat,cat,32-10-10,32-10-10_cat_10_n02123045_10171.png,True,1.0453030764377342,1.9842336177825928,0.25,-2.096040271544522,2.09218430519104,0.25,-2.813130015799819,28.24722981452942,10.0,4.40952380952381,6.0,30.21272419050787,0.0
subject-02,1,559,0.823786020278931,cat,cat,32-10-10,32-10-10_cat_10_n02123045_10171.png,True,-0.5206199704139944,1.9842336177825928,0.25,-2.096040271544522,2.09218430519104,0.25,-2.813130015799819,28.24722981452942,10.0,4.40952380952381,6.0,30.21272419050787,0.0
subject-03,1,671,0.726659059524536,cat,cat,32-10-10,32-10-10_cat_10_n02123045_10171.png,True,-1.3411315699569408,1.9842336177825928,0.25,-2.096040271544522,2.09218430519104,0.25,-2.813130015799819,28.24722981452942,10.0,4.40952380952381,6.0,30.21272419050787,0.0
subject-04,1,1223,1.08925080299377,cat,cat,32-10-10,32-10-10_cat_10_n02123045_10171.png,True,0.06016709022802392,1.9842336177825928,0.25,-2.096040271544522,2.09218430519104,0.25,-2.813130015799819,28.24722981452942,10.0,4.40952380952381,6.0,30.21272419050787,0.0
subject-01,1,76,0.679734945297241,bottle,bottle,8-10-10,8-10-10_bottle_10_n04560804_4909.png,True,-1.1436824708703062,1.3035712242126465,0.1666666666666666,-4.23910744275173,2.042400360107422,1.0,-1.250051878770356,27.447728753089905,10.0,5.654761904761904,1.0,25.916374070527368,1.0
subject-02,1,1147,0.741913080215454,bottle,bottle,8-10-10,8-10-10_bottle_10_n04560804_4909.png,True,-0.9925210807954679,1.3035712242126465,0.1666666666666666,-4.23910744275173,2.042400360107422,1.0,-1.250051878770356,27.447728753089905,10.0,5.654761904761904,1.0,25.916374070527368,1.0
subject-03,1,867,1.48366689682007,bottle,bottle,8-10-10,8-10-10_bottle_10_n04560804_4909.png,True,2.1749447775426716,1.3035712242126465,0.1666666666666666,-4.23910744275173,2.042400360107422,1.0,-1.250051878770356,27.447728753089905,10.0,5.654761904761904,1.0,25.916374070527368,1.0
subject-04,1,544,1.27144503593445,airplane,bottle,8-10-10,8-10-10_bottle_10_n04560804_4909.png,False,0.8289432097296144,1.3035712242126465,0.1666666666666666,-4.23910744275173,2.042400360107422,1.0,-1.250051878770356,27.447728753089905,10.0,5.654761904761904,1.0,25.916374070527368,1.0
subject-01,1,77,0.667834043502808,keyboard,keyboard,8-10-10,8-10-10_keyboard_10_n03085013_7971.png,True,-1.2015299289477563,0.9340716004371644,1.0,-0.2580180598514462,1.979824900627136,0.1,-3.7114480345270153,26.71255749464035,10.0,2.7404761904761905,9.0,36.01986065502111,10.0
subject-02,1,233,0.749344110488892,keyboard,keyboard,8-10-10,8-10-10_keyboard_10_n03085013_7971.png,True,-0.9496899398275855,0.9340716004371644,1.0,-0.2580180598514462,1.979824900627136,0.1,-3.7114480345270153,26.71255749464035,10.0,2.7404761904761905,9.0,36.01986065502111,10.0
subject-03,1,731,0.997185230255127,keyboard,keyboard,8-10-10,8-10-10_keyboard_10_n03085013_7971.png,True,-0.08461793373928798,0.9340716004371644,1.0,-0.2580180598514462,1.979824900627136,0.1,-3.7114480345270153,26.71255749464035,10.0,2.7404761904761905,9.0,36.01986065502111,10.0
subject-04,1,148,0.680114984512329,keyboard,keyboard,8-10-10,8-10-10_keyboard_10_n03085013_7971.png,True,-1.6661984582560339,0.9340716004371644,1.0,-0.2580180598514462,1.979824900627136,0.1,-3.7114480345270153,26.71255749464035,10.0,2.7404761904761905,9.0,36.01986065502111,10.0
subject-01,1,78,0.655058145523071,keyboard,keyboard,16-10-10,16-10-10_keyboard_10_n03085013_21397.png,True,-1.2636305357379347,1.843207001686096,1.0,-1.0143957265234527,2.074106454849243,0.0909090909090909,-3.827387955362348,28.244471430778503,10.0,1.777355977355977,10.0,38.190068143956154,10.0
subject-02,1,1052,1.07744908332825,car,keyboard,16-10-10,16-10-10_keyboard_10_n03085013_21397.png,False,0.9414489503177098,1.843207001686096,1.0,-1.0143957265234527,2.074106454849243,0.0909090909090909,-3.827387955362348,28.244471430778503,10.0,1.777355977355977,10.0,38.190068143956154,10.0
subject-03,1,161,0.751604080200195,keyboard,keyboard,16-10-10,16-10-10_keyboard_10_n03085013_21397.png,True,-1.2252693650174007,1.843207001686096,1.0,-1.0143957265234527,2.074106454849243,0.0909090909090909,-3.827387955362348,28.244471430778503,10.0,1.777355977355977,10.0,38.190068143956154,10.0
subject-04,1,104,1.24442982673645,bear,keyboard,16-10-10,16-10-10_keyboard_10_n03085013_21397.png,False,0.7149514144924725,1.843207001686096,1.0,-1.0143957265234527,2.074106454849243,0.0909090909090909,-3.827387955362348,28.244471430778503,10.0,1.777355977355977,10.0,38.190068143956154,10.0
subject-01,1,79,1.09133815765381,boat,elephant,32-10-10,32-10-10_elephant_10_n02504458_4187.png,False,0.8570230204125704,1.6119072437286377,0.25,-3.1261738735305524,2.135636329650879,0.0909090909090909,-4.091436645479916,28.14600372314453,10.0,0.9903901653901652,9.0,39.31338038098495,6.0
subject-02,1,859,1.04035401344299,bear,elephant,32-10-10,32-10-10_elephant_10_n02504458_4187.png,False,0.7276395444876452,1.6119072437286377,0.25,-3.1261738735305524,2.135636329650879,0.0909090909090909,-4.091436645479916,28.14600372314453,10.0,0.9903901653901652,9.0,39.31338038098495,6.0
subject-03,1,389,1.23329019546509,boat,elephant,32-10-10,32-10-10_elephant_10_n02504458_4187.png,False,1.012019436182519,1.6119072437286377,0.25,-3.1261738735305524,2.135636329650879,0.0909090909090909,-4.091436645479916,28.14600372314453,10.0,0.9903901653901652,9.0,39.31338038098495,6.0
subject-04,1,422,1.48826313018799,bear,elephant,32-10-10,32-10-10_elephant_10_n02504458_4187.png,False,1.743816147514845,1.6119072437286377,0.25,-3.1261738735305524,2.135636329650879,0.0909090909090909,-4.091436645479916,28.14600372314453,10.0,0.9903901653901652,9.0,39.31338038098495,6.0
subject-01,1,80,0.672982931137085,cat,clock,8-10-10,8-10-10_clock_10_n03196217_6689.png,False,-1.1765024086207951,1.3080339431762695,0.5,-2.6661105171633426,2.2211475372314453,0.5,-1.5148193232889215,28.08168125152588,10.0,5.916666666666666,2.0,24.13851901927641,5.0
subject-02,1,661,1.17994403839111,cat,clock,8-10-10,8-10-10_clock_10_n03196217_6689.png,False,1.5322116988541983,1.3080339431762695,0.5,-2.6661105171633426,2.2211475372314453,0.5,-1.5148193232889215,28.08168125152588,10.0,5.916666666666666,2.0,24.13851901927641,5.0
subject-03,1,600,1.22813391685486,bottle,clock,8-10-10,8-10-10_clock_10_n03196217_6689.png,False,0.9880700549881077,1.3080339431762695,0.5,-2.6661105171633426,2.2211475372314453,0.5,-1.5148193232889215,28.08168125152588,10.0,5.916666666666666,2.0,24.13851901927641,5.0
subject-04,1,357,1.47879791259766,oven,clock,8-10-10,8-10-10_clock_10_n03196217_6689.png,False,1.7038772694730726,1.3080339431762695,0.5,-2.6661105171633426,2.2211475372314453,0.5,-1.5148193232889215,28.08168125152588,10.0,5.916666666666666,2.0,24.13851901927641,5.0
subject-01,1,81,0.742294073104858,knife,knife,4-10-10,4-10-10_knife_10_n03041632_26236.png,True,-0.839597403560046,1.147770643234253,1.0,-0.5785799074981994,2.0026769638061523,0.1111111111111111,-3.789993518485359,26.89961862564087,10.0,2.937373737373737,8.0,34.891939823452574,10.0
subject-02,1,1141,0.785197019577026,knife,knife,4-10-10,4-10-10_knife_10_n03041632_26236.png,True,-0.743040128595951,1.147770643234253,1.0,-0.5785799074981994,2.0026769638061523,0.1111111111111111,-3.789993518485359,26.89961862564087,10.0,2.937373737373737,8.0,34.891939823452574,10.0
subject-03,1,120,0.816635847091675,knife,knife,4-10-10,4-10-10_knife_10_n03041632_26236.png,True,-0.9232161416054291,1.147770643234253,1.0,-0.5785799074981994,2.0026769638061523,0.1111111111111111,-3.789993518485359,26.89961862564087,10.0,2.937373737373737,8.0,34.891939823452574,10.0
subject-04,1,1119,1.36035203933716,knife,knife,4-10-10,4-10-10_knife_10_n03041632_26236.png,True,1.2040899965914342,1.147770643234253,1.0,-0.5785799074981994,2.0026769638061523,0.1111111111111111,-3.789993518485359,26.89961862564087,10.0,2.937373737373737,8.0,34.891939823452574,10.0
subject-01,1,82,0.518115043640137,car,car,8-10-10,8-10-10_car_10_n03100240_1262.png,True,-1.929278440577771,1.5681028366088867,0.25,-2.273490575763499,2.102669477462769,0.0909090909090909,-3.9401398203146774,27.945932388305664,10.0,0.91038961038961,9.0,44.8273878245703,6.0
subject-02,1,323,0.886207103729248,car,car,8-10-10,8-10-10_car_10_n03100240_1262.png,True,-0.1608359127194592,1.5681028366088867,0.25,-2.273490575763499,2.102669477462769,0.0909090909090909,-3.9401398203146774,27.945932388305664,10.0,0.91038961038961,9.0,44.8273878245703,6.0
subject-03,1,661,0.774647951126099,car,car,8-10-10,8-10-10_car_10_n03100240_1262.png,True,-1.1182374354579008,1.5681028366088867,0.25,-2.273490575763499,2.102669477462769,0.0909090909090909,-3.9401398203146774,27.945932388305664,10.0,0.91038961038961,9.0,44.8273878245703,6.0
subject-04,1,460,0.797501802444458,car,car,8-10-10,8-10-10_car_10_n03100240_1262.png,True,-1.170879913239935,1.5681028366088867,0.25,-2.273490575763499,2.102669477462769,0.0909090909090909,-3.9401398203146774,27.945932388305664,10.0,0.91038961038961,9.0,44.8273878245703,6.0
subject-01,1,83,0.724296092987061,clock,keyboard,64-10-10,64-10-10_keyboard_10_n04505470_5059.png,False,-0.9270813117820313,1.856020450592041,0.0625,-5.923730918384359,2.0566511154174805,0.0909090909090909,-4.021584361710933,28.44895911216736,10.0,0.3834207459207457,8.0,45.534880411418484,7.0
subject-02,1,772,1.11968612670898,dog,keyboard,64-10-10,64-10-10_keyboard_10_n04505470_5059.png,False,1.1848957796992328,1.856020450592041,0.0625,-5.923730918384359,2.0566511154174805,0.0909090909090909,-4.021584361710933,28.44895911216736,10.0,0.3834207459207457,8.0,45.534880411418484,7.0
subject-03,1,240,0.713147163391113,cat,keyboard,64-10-10,64-10-10_keyboard_10_n04505470_5059.png,False,-1.4038903104401692,1.856020450592041,0.0625,-5.923730918384359,2.0566511154174805,0.0909090909090909,-4.021584361710933,28.44895911216736,10.0,0.3834207459207457,8.0,45.534880411418484,7.0
subject-04,1,139,0.941867113113403,bird,keyboard,64-10-10,64-10-10_keyboard_10_n04505470_5059.png,False,-0.5617244996168914,1.856020450592041,0.0625,-5.923730918384359,2.0566511154174805,0.0909090909090909,-4.021584361710933,28.44895911216736,10.0,0.3834207459207457,8.0,45.534880411418484,7.0
subject-01,1,84,1.11187410354614,bird,bird,1-10-10,1-10-10_bird_10_n01537544_26417.png,True,0.9568433776936496,0.0542828142642974,1.0,-0.006536881465577211,2.0343289375305176,0.1428571428571428,-3.469852555134038,26.11921253800392,10.0,2.4396825396825395,10.0,32.14079910093371,10.0
subject-02,1,668,0.952559947967529,bird,bird,1-10-10,1-10-10_bird_10_n01537544_26417.png,True,0.2216101170522479,0.0542828142642974,1.0,-0.006536881465577211,2.0343289375305176,0.1428571428571428,-3.469852555134038,26.11921253800392,10.0,2.4396825396825395,10.0,32.14079910093371,10.0
subject-03,1,232,0.722378969192505,bird,bird,1-10-10,1-10-10_bird_10_n01537544_26417.png,True,-1.3610113170879352,0.0542828142642974,1.0,-0.006536881465577211,2.0343289375305176,0.1428571428571428,-3.469852555134038,26.11921253800392,10.0,2.4396825396825395,10.0,32.14079910093371,10.0
subject-04,1,1163,1.50011801719666,knife,bird,1-10-10,1-10-10_bird_10_n01537544_26417.png,False,1.793838334740839,0.0542828142642974,1.0,-0.006536881465577211,2.0343289375305176,0.1428571428571428,-3.469852555134038,26.11921253800392,10.0,2.4396825396825395,10.0,32.14079910093371,10.0
subject-01,1,85,1.50014495849609,oven,bird,32-10-10,32-10-10_bird_10_n02009912_5714.png,False,2.8441358192563078,1.5517840385437012,0.1111111111111111,-4.500481849154723,2.052263021469116,0.125,-3.353904410052755,27.67655658721924,10.0,0.7016233766233764,3.0,38.716459119681126,6.0
subject-02,1,649,0.702363014221191,cat,bird,32-10-10,32-10-10_bird_10_n02009912_5714.png,False,-1.2204806489248534,1.5517840385437012,0.1111111111111111,-4.500481849154723,2.052263021469116,0.125,-3.353904410052755,27.67655658721924,10.0,0.7016233766233764,3.0,38.716459119681126,6.0
subject-03,1,1243,1.05297112464905,bird,bird,32-10-10,32-10-10_bird_10_n02009912_5714.png,True,0.17449096069876105,1.5517840385437012,0.1111111111111111,-4.500481849154723,2.052263021469116,0.125,-3.353904410052755,27.67655658721924,10.0,0.7016233766233764,3.0,38.716459119681126,6.0
subject-04,1,448,1.21321296691895,bear,bird,32-10-10,32-10-10_bird_10_n02009912_5714.png,False,0.5832305802697094,1.5517840385437012,0.1111111111111111,-4.500481849154723,2.052263021469116,0.125,-3.353904410052755,27.67655658721924,10.0,0.7016233766233764,3.0,38.716459119681126,6.0
subject-01,1,86,0.947460889816284,bottle,chair,128-10-10,128-10-10_chair_10_n03376595_5972.png,False,0.15766978119647856,1.6510488986968994,0.0909090909090909,-4.519478081444157,2.0627334117889404,0.0666666666666666,-5.73273550911594,28.168936729431152,10.0,0.07543290043289987,10.0,53.19279915385342,7.0
subject-02,1,555,1.11067199707031,bear,chair,128-10-10,128-10-10_chair_10_n03376595_5972.png,False,1.1329399346750666,1.6510488986968994,0.0909090909090909,-4.519478081444157,2.0627334117889404,0.0666666666666666,-5.73273550911594,28.168936729431152,10.0,0.07543290043289987,10.0,53.19279915385342,7.0
subject-03,1,524,1.45859003067017,dog,chair,128-10-10,128-10-10_chair_10_n03376595_5972.png,False,2.0584701895726467,1.6510488986968994,0.0909090909090909,-4.519478081444157,2.0627334117889404,0.0666666666666666,-5.73273550911594,28.168936729431152,10.0,0.07543290043289987,10.0,53.19279915385342,7.0
subject-04,1,1077,1.48808908462524,cat,chair,128-10-10,128-10-10_chair_10_n03376595_5972.png,False,1.743081755047049,1.6510488986968994,0.0909090909090909,-4.519478081444157,2.0627334117889404,0.0666666666666666,-5.73273550911594,28.168936729431152,10.0,0.07543290043289987,10.0,53.19279915385342,7.0
subject-01,1,87,0.747545957565308,clock,chair,2-10-10,2-10-10_chair_10_n04429376_805.png,False,-0.8140692401148517,0.00327701237984,1.0,-0.0003494634829237768,1.8960049152374268,0.0666666666666666,-4.907705188256262,25.73655910161324,10.0,2.3459706959706956,9.0,43.323820549528754,10.0
subject-02,1,1070,1.1821608543396,bottle,chair,2-10-10,2-10-10_chair_10_n04429376_805.png,False,1.5449890329378744,0.00327701237984,1.0,-0.0003494634829237768,1.8960049152374268,0.0666666666666666,-4.907705188256262,25.73655910161324,10.0,2.3459706959706956,9.0,43.323820549528754,10.0
subject-03,1,990,1.02955794334412,chair,chair,2-10-10,2-10-10_chair_10_n04429376_805.png,True,0.06574369422383515,0.00327701237984,1.0,-0.0003494634829237768,1.8960049152374268,0.0666666666666666,-4.907705188256262,25.73655910161324,10.0,2.3459706959706956,9.0,43.323820549528754,10.0
subject-04,1,1075,1.4887490272522,clock,chair,2-10-10,2-10-10_chair_10_n04429376_805.png,False,1.7458664103221322,0.00327701237984,1.0,-0.0003494634829237768,1.8960049152374268,0.0666666666666666,-4.907705188256262,25.73655910161324,10.0,2.3459706959706956,9.0,43.323820549528754,10.0
subject-01,1,88,,na,bicycle,128-10-10,128-10-10_bicycle_10_n03792782_4083.png,False,,2.330848217010498,0.1666666666666666,-2.709863848319413,2.081763982772827,0.125,-3.4701926836378907,29.116041898727417,10.0,1.437301587301587,3.0,33.049632401472316,6.0
subject-02,1,927,0.987813949584961,elephant,bicycle,128-10-10,128-10-10_bicycle_10_n03792782_4083.png,False,0.4248079318095789,2.330848217010498,0.1666666666666666,-2.709863848319413,2.081763982772827,0.125,-3.4701926836378907,29.116041898727417,10.0,1.437301587301587,3.0,33.049632401472316,6.0
