subject_id,session,trial,rt,object_response,category,condition,item_id,response_correct,rt_zscore,output_entropy,output_rank_correct,output_logprob_correct,midpoint_entropy,midpoint_rank_correct,midpoint_logprob_correct,auc_entropy,layer_biggest_change_entropy,auc_rank_correct,layer_biggest_change_rank_correct,auc_logprob_correct,layer_biggest_change_logprob_correct
subject-01,1,1,0.586625099182129,boat,boat,0,0_boat_00_boat-0068-sketch-23.png,True,-0.7378590591454031,2.2496142387390137,0.1666666666666666,-2.479675534649851,2.50119686126709,0.5,-1.8600917414207865,29.37757921218872,9.0,2.7194444444444446,2.0,28.39187899841656,0.0
subject-05,1,285,0.679347991943359,boat,boat,0,0_boat_00_boat-0068-sketch-23.png,True,-0.5855366050133725,2.2496142387390137,0.1666666666666666,-2.479675534649851,2.50119686126709,0.5,-1.8600917414207865,29.37757921218872,9.0,2.7194444444444446,2.0,28.39187899841656,0.0
subject-02,1,123,0.73372483253479,boat,boat,0,0_boat_00_boat-0068-sketch-23.png,True,0.03794408914826676,2.2496142387390137,0.1666666666666666,-2.479675534649851,2.50119686126709,0.5,-1.8600917414207865,29.37757921218872,9.0,2.7194444444444446,2.0,28.39187899841656,0.0
subject-06,1,710,0.640969038009644,boat,boat,0,0_boat_00_boat-0068-sketch-23.png,True,-0.7362931173489334,2.2496142387390137,0.1666666666666666,-2.479675534649851,2.50119686126709,0.5,-1.8600917414207865,29.37757921218872,9.0,2.7194444444444446,2.0,28.39187899841656,0.0
subject-07,1,661,0.560901165008545,boat,boat,0,0_boat_00_boat-0068-sketch-23.png,True,-0.9614210148136239,2.2496142387390137,0.1666666666666666,-2.479675534649851,2.50119686126709,0.5,-1.8600917414207865,29.37757921218872,9.0,2.7194444444444446,2.0,28.39187899841656,0.0
subject-03,1,111,0.996337890625,knife,boat,0,0_boat_00_boat-0068-sketch-23.png,False,0.40492194521604674,2.2496142387390137,0.1666666666666666,-2.479675534649851,2.50119686126709,0.5,-1.8600917414207865,29.37757921218872,9.0,2.7194444444444446,2.0,28.39187899841656,0.0
subject-04,1,687,0.667598009109497,boat,boat,0,0_boat_00_boat-0068-sketch-23.png,True,-0.7167136175370573,2.2496142387390137,0.1666666666666666,-2.479675534649851,2.50119686126709,0.5,-1.8600917414207865,29.37757921218872,9.0,2.7194444444444446,2.0,28.39187899841656,0.0
subject-01,1,2,0.706346035003662,dog,dog,0,0_dog_00_dog-4581-sketch-16.png,True,-0.07864015076348684,2.501558780670166,1.0,-1.5244845935644515,2.540736436843872,0.125,-2.8651568339387254,30.341824054718018,9.0,3.965079365079365,8.0,31.067018437593333,9.0
subject-05,1,551,0.809551000595093,dog,dog,0,0_dog_00_dog-4581-sketch-16.png,True,-0.05623898778479509,2.501558780670166,1.0,-1.5244845935644515,2.540736436843872,0.125,-2.8651568339387254,30.341824054718018,9.0,3.965079365079365,8.0,31.067018437593333,9.0
subject-02,1,161,0.805687189102173,dog,dog,0,0_dog_00_dog-4581-sketch-16.png,True,0.4876253136449977,2.501558780670166,1.0,-1.5244845935644515,2.540736436843872,0.125,-2.8651568339387254,30.341824054718018,9.0,3.965079365079365,8.0,31.067018437593333,9.0
subject-06,1,535,1.38627791404724,dog,dog,0,0_dog_00_dog-4581-sketch-16.png,True,2.6987484292928037,2.501558780670166,1.0,-1.5244845935644515,2.540736436843872,0.125,-2.8651568339387254,30.341824054718018,9.0,3.965079365079365,8.0,31.067018437593333,9.0
subject-07,1,691,0.94520115852356,dog,dog,0,0_dog_00_dog-4581-sketch-16.png,True,0.7570242582380405,2.501558780670166,1.0,-1.5244845935644515,2.540736436843872,0.125,-2.8651568339387254,30.341824054718018,9.0,3.965079365079365,8.0,31.067018437593333,9.0
subject-03,1,217,1.28585004806519,dog,dog,0,0_dog_00_dog-4581-sketch-16.png,True,2.095507391474989,2.501558780670166,1.0,-1.5244845935644515,2.540736436843872,0.125,-2.8651568339387254,30.341824054718018,9.0,3.965079365079365,8.0,31.067018437593333,9.0
subject-04,1,555,0.868303060531616,dog,dog,0,0_dog_00_dog-4581-sketch-16.png,True,0.47337683841320416,2.501558780670166,1.0,-1.5244845935644515,2.540736436843872,0.125,-2.8651568339387254,30.341824054718018,9.0,3.965079365079365,8.0,31.067018437593333,9.0
subject-01,1,3,0.716404914855957,airplane,airplane,0,0_airplane_00_airplane-0018-sketch-24.png,True,-0.02325298100681565,0.1977901458740234,1.0,-0.029827506871771783,2.515305995941162,0.1111111111111111,-3.021797365830406,27.155925512313843,10.0,2.804242979242979,9.0,31.83108695864101,9.0
subject-05,1,318,1.37930202484131,airplane,airplane,0,0_airplane_00_airplane-0018-sketch-24.png,True,2.25989688856577,0.1977901458740234,1.0,-0.029827506871771783,2.515305995941162,0.1111111111111111,-3.021797365830406,27.155925512313843,10.0,2.804242979242979,9.0,31.83108695864101,9.0
subject-02,1,654,0.693873882293701,airplane,airplane,0,0_airplane_00_airplane-0018-sketch-24.png,True,-0.21107810740794794,0.1977901458740234,1.0,-0.029827506871771783,2.515305995941162,0.1111111111111111,-3.021797365830406,27.155925512313843,10.0,2.804242979242979,9.0,31.83108695864101,9.0
subject-06,1,432,0.60974907875061,airplane,airplane,0,0_airplane_00_airplane-0018-sketch-24.png,True,-0.8801822626243674,0.1977901458740234,1.0,-0.029827506871771783,2.515305995941162,0.1111111111111111,-3.021797365830406,27.155925512313843,10.0,2.804242979242979,9.0,31.83108695864101,9.0
subject-07,1,685,0.496639013290405,airplane,airplane,0,0_airplane_00_airplane-0018-sketch-24.png,True,-1.248777227979555,0.1977901458740234,1.0,-0.029827506871771783,2.515305995941162,0.1111111111111111,-3.021797365830406,27.155925512313843,10.0,2.804242979242979,9.0,31.83108695864101,9.0
subject-03,1,702,1.08056807518005,airplane,airplane,0,0_airplane_00_airplane-0018-sketch-24.png,True,0.8967780572478535,0.1977901458740234,1.0,-0.029827506871771783,2.515305995941162,0.1111111111111111,-3.021797365830406,27.155925512313843,10.0,2.804242979242979,9.0,31.83108695864101,9.0
subject-04,1,680,0.790961980819702,airplane,airplane,0,0_airplane_00_airplane-0018-sketch-24.png,True,0.014779109228728543,0.1977901458740234,1.0,-0.029827506871771783,2.515305995941162,0.1111111111111111,-3.021797365830406,27.155925512313843,10.0,2.804242979242979,9.0,31.83108695864101,9.0
subject-01,1,4,1.1105329990387,bird,cat,0,0_cat_00_cat-0251-sketch-6.png,False,2.146932906989503,1.4006730318069458,0.0909090909090909,-5.41400761746853,2.5681018829345703,0.0714285714285714,-4.019775575661239,27.850986123085022,10.0,0.2468614718614715,5.0,47.35427941689728,5.0
subject-05,1,97,0.991420030593872,cat,cat,0,0_cat_00_cat-0251-sketch-6.png,True,0.683089889656966,1.4006730318069458,0.0909090909090909,-5.41400761746853,2.5681018829345703,0.0714285714285714,-4.019775575661239,27.850986123085022,10.0,0.2468614718614715,5.0,47.35427941689728,5.0
subject-02,1,250,0.769126176834106,cat,cat,0,0_cat_00_cat-0251-sketch-6.png,True,0.2591614118250262,1.4006730318069458,0.0909090909090909,-5.41400761746853,2.5681018829345703,0.0714285714285714,-4.019775575661239,27.850986123085022,10.0,0.2468614718614715,5.0,47.35427941689728,5.0
subject-06,1,11,1.11223793029785,cat,cat,0,0_cat_00_cat-0251-sketch-6.png,True,1.4357301560840234,1.4006730318069458,0.0909090909090909,-5.41400761746853,2.5681018829345703,0.0714285714285714,-4.019775575661239,27.850986123085022,10.0,0.2468614718614715,5.0,47.35427941689728,5.0
subject-07,1,464,0.781142950057983,cat,cat,0,0_cat_00_cat-0251-sketch-6.png,True,0.02341755097698424,1.4006730318069458,0.0909090909090909,-5.41400761746853,2.5681018829345703,0.0714285714285714,-4.019775575661239,27.850986123085022,10.0,0.2468614718614715,5.0,47.35427941689728,5.0
subject-03,1,736,1.09615111351013,bird,cat,0,0_cat_00_cat-0251-sketch-6.png,False,0.9877740901684094,1.4006730318069458,0.0909090909090909,-5.41400761746853,2.5681018829345703,0.0714285714285714,-4.019775575661239,27.850986123085022,10.0,0.2468614718614715,5.0,47.35427941689728,5.0
subject-04,1,250,0.93303918838501,bird,cat,0,0_cat_00_cat-0251-sketch-6.png,False,0.8572328867169768,1.4006730318069458,0.0909090909090909,-5.41400761746853,2.5681018829345703,0.0714285714285714,-4.019775575661239,27.850986123085022,10.0,0.2468614718614715,5.0,47.35427941689728,5.0
subject-01,1,5,0.87578010559082,keyboard,keyboard,0,0_keyboard_00_keyboard-0002-sketch-1.png,True,0.8543139920413471,0.021846018731594,1.0,-0.0023118137265447105,2.552530288696289,0.5,-2.223839618217308,23.429168730974197,9.0,5.076262626262626,7.0,24.705053617281436,4.0
subject-05,1,766,0.489195108413696,keyboard,keyboard,0,0_keyboard_00_keyboard-0002-sketch-1.png,True,-1.358540771381025,0.021846018731594,1.0,-0.0023118137265447105,2.552530288696289,0.5,-2.223839618217308,23.429168730974197,9.0,5.076262626262626,7.0,24.705053617281436,4.0
subject-02,1,390,0.722136974334717,keyboard,keyboard,0,0_keyboard_00_keyboard-0002-sketch-1.png,True,-0.034466578223695664,0.021846018731594,1.0,-0.0023118137265447105,2.552530288696289,0.5,-2.223839618217308,23.429168730974197,9.0,5.076262626262626,7.0,24.705053617281436,4.0
subject-06,1,589,0.516081094741821,keyboard,keyboard,0,0_keyboard_00_keyboard-0002-sketch-1.png,True,-1.3118870591255887,0.021846018731594,1.0,-0.0023118137265447105,2.552530288696289,0.5,-2.223839618217308,23.429168730974197,9.0,5.076262626262626,7.0,24.705053617281436,4.0
subject-07,1,81,1.07991504669189,keyboard,keyboard,0,0_keyboard_00_keyboard-0002-sketch-1.png,True,1.3594141834104763,0.021846018731594,1.0,-0.0023118137265447105,2.552530288696289,0.5,-2.223839618217308,23.429168730974197,9.0,5.076262626262626,7.0,24.705053617281436,4.0
subject-03,1,137,0.701507091522217,keyboard,keyboard,0,0_keyboard_00_keyboard-0002-sketch-1.png,True,-1.316721326966851,0.021846018731594,1.0,-0.0023118137265447105,2.552530288696289,0.5,-2.223839618217308,23.429168730974197,9.0,5.076262626262626,7.0,24.705053617281436,4.0
subject-04,1,96,0.645277976989746,keyboard,keyboard,0,0_keyboard_00_keyboard-0002-sketch-1.png,True,-0.8490613437851249,0.021846018731594,1.0,-0.0023118137265447105,2.552530288696289,0.5,-2.223839618217308,23.429168730974197,9.0,5.076262626262626,7.0,24.705053617281436,4.0
subject-01,1,6,0.659713983535767,elephant,elephant,0,0_elephant_00_elephant-0021-sketch-27.png,True,-0.3354100285908703,2.214268207550049,0.1428571428571428,-3.2858787141376267,2.5420875549316406,0.1666666666666666,-2.7366604267405994,29.95654010772705,9.0,2.5051948051948045,1.0,32.45959814633736,0.0
subject-05,1,43,0.817649126052856,elephant,elephant,0,0_elephant_00_elephant-0021-sketch-27.png,True,-0.023318715410160066,2.214268207550049,0.1428571428571428,-3.2858787141376267,2.5420875549316406,0.1666666666666666,-2.7366604267405994,29.95654010772705,9.0,2.5051948051948045,1.0,32.45959814633736,0.0
subject-02,1,429,0.730826139450073,elephant,elephant,0,0_elephant_00_elephant-0021-sketch-27.png,True,0.019830620969174862,2.214268207550049,0.1428571428571428,-3.2858787141376267,2.5420875549316406,0.1666666666666666,-2.7366604267405994,29.95654010772705,9.0,2.5051948051948045,1.0,32.45959814633736,0.0
subject-06,1,295,0.666460037231445,elephant,elephant,0,0_elephant_00_elephant-0021-sketch-27.png,True,-0.6188080796584906,2.214268207550049,0.1428571428571428,-3.2858787141376267,2.5420875549316406,0.1666666666666666,-2.7366604267405994,29.95654010772705,9.0,2.5051948051948045,1.0,32.45959814633736,0.0
subject-07,1,278,0.830434083938599,elephant,elephant,0,0_elephant_00_elephant-0021-sketch-27.png,True,0.24382899372969366,2.214268207550049,0.1428571428571428,-3.2858787141376267,2.5420875549316406,0.1666666666666666,-2.7366604267405994,29.95654010772705,9.0,2.5051948051948045,1.0,32.45959814633736,0.0
subject-03,1,9,0.883802175521851,elephant,elephant,0,0_elephant_00_elephant-0021-sketch-27.png,True,-0.2522222791228918,2.214268207550049,0.1428571428571428,-3.2858787141376267,2.5420875549316406,0.1666666666666666,-2.7366604267405994,29.95654010772705,9.0,2.5051948051948045,1.0,32.45959814633736,0.0
subject-04,1,174,0.947211027145386,elephant,elephant,0,0_elephant_00_elephant-0021-sketch-27.png,True,0.9412655004079878,2.214268207550049,0.1428571428571428,-3.2858787141376267,2.5420875549316406,0.1666666666666666,-2.7366604267405994,29.95654010772705,9.0,2.5051948051948045,1.0,32.45959814633736,0.0
subject-01,1,7,0.771556854248047,oven,oven,0,0_oven_00_oven-0004-sketch-11.png,True,0.28042992150070006,2.3511722087860107,0.1428571428571428,-3.469981720902322,2.632139205932617,0.0625,-5.038853841013809,29.950198650360107,5.0,1.1074175824175823,6.0,38.46056567568801,6.0
subject-05,1,677,0.657850980758667,oven,oven,0,0_oven_00_oven-0004-sketch-11.png,True,-0.6729256516676493,2.3511722087860107,0.1428571428571428,-3.469981720902322,2.632139205932617,0.0625,-5.038853841013809,29.950198650360107,5.0,1.1074175824175823,6.0,38.46056567568801,6.0
subject-02,1,480,0.557241916656494,oven,oven,0,0_oven_00_oven-0004-sketch-11.png,True,-1.0648693469375141,2.3511722087860107,0.1428571428571428,-3.469981720902322,2.632139205932617,0.0625,-5.038853841013809,29.950198650360107,5.0,1.1074175824175823,6.0,38.46056567568801,6.0
subject-06,1,36,0.567521810531616,oven,oven,0,0_oven_00_oven-0004-sketch-11.png,True,-1.0748028090810176,2.3511722087860107,0.1428571428571428,-3.469981720902322,2.632139205932617,0.0625,-5.038853841013809,29.950198650360107,5.0,1.1074175824175823,6.0,38.46056567568801,6.0
subject-07,1,109,0.612776041030884,oven,oven,0,0_oven_00_oven-0004-sketch-11.png,True,-0.7294560473532572,2.3511722087860107,0.1428571428571428,-3.469981720902322,2.632139205932617,0.0625,-5.038853841013809,29.950198650360107,5.0,1.1074175824175823,6.0,38.46056567568801,6.0
subject-03,1,537,0.702308893203735,oven,oven,0,0_oven_00_oven-0004-sketch-11.png,True,-1.3120392636450704,2.3511722087860107,0.1428571428571428,-3.469981720902322,2.632139205932617,0.0625,-5.038853841013809,29.950198650360107,5.0,1.1074175824175823,6.0,38.46056567568801,6.0
subject-04,1,649,0.618754863739014,oven,oven,0,0_oven_00_oven-0004-sketch-11.png,True,-1.006331445948111,2.3511722087860107,0.1428571428571428,-3.469981720902322,2.632139205932617,0.0625,-5.038853841013809,29.950198650360107,5.0,1.1074175824175823,6.0,38.46056567568801,6.0
subject-01,1,8,0.609380960464478,oven,oven,0,0_oven_00_oven-0002-sketch-1.png,True,-0.6125585515031775,1.245067834854126,0.1,-5.271583172042041,2.548027515411377,0.0625,-4.265225398450982,28.43682861328125,10.0,0.7373376623376622,9.0,41.737010765831904,6.0
subject-05,1,719,1.0239679813385,oven,oven,0,0_oven_00_oven-0002-sketch-1.png,True,0.8154029057170242,1.245067834854126,0.1,-5.271583172042041,2.548027515411377,0.0625,-4.265225398450982,28.43682861328125,10.0,0.7373376623376622,9.0,41.737010765831904,6.0
subject-02,1,741,0.733748912811279,oven,oven,0,0_oven_00_oven-0002-sketch-1.png,True,0.03809456293392746,1.245067834854126,0.1,-5.271583172042041,2.548027515411377,0.0625,-4.265225398450982,28.43682861328125,10.0,0.7373376623376622,9.0,41.737010765831904,6.0
subject-06,1,524,0.974024057388306,bird,oven,0,0_oven_00_oven-0002-sketch-1.png,False,0.7987185612528418,1.245067834854126,0.1,-5.271583172042041,2.548027515411377,0.0625,-4.265225398450982,28.43682861328125,10.0,0.7373376623376622,9.0,41.737010765831904,6.0
subject-07,1,474,0.58749794960022,oven,oven,0,0_oven_00_oven-0002-sketch-1.png,True,-0.8424901807485659,1.245067834854126,0.1,-5.271583172042041,2.548027515411377,0.0625,-4.265225398450982,28.43682861328125,10.0,0.7373376623376622,9.0,41.737010765831904,6.0
subject-03,1,507,1.12980318069458,bird,oven,0,0_oven_00_oven-0002-sketch-1.png,False,1.1842829190949202,1.245067834854126,0.1,-5.271583172042041,2.548027515411377,0.0625,-4.265225398450982,28.43682861328125,10.0,0.7373376623376622,9.0,41.737010765831904,6.0
subject-04,1,360,1.02875518798828,oven,oven,0,0_oven_00_oven-0002-sketch-1.png,True,1.4247856055073762,1.245067834854126,0.1,-5.271583172042041,2.548027515411377,0.0625,-4.265225398450982,28.43682861328125,10.0,0.7373376623376622,9.0,41.737010765831904,6.0
subject-01,1,9,0.720973968505859,knife,knife,0,0_knife_00_knife-0044-sketch-48.png,True,0.0019055807665135124,0.0098191751167178,1.0,-0.0009244183463177487,2.553476333618164,0.5,-1.96392583905528,21.180047044472303,9.0,6.953968253968254,5.0,17.361583105017008,5.0
subject-05,1,601,1.4022741317749,knife,knife,0,0_knife_00_knife-0044-sketch-48.png,True,2.353282453066759,0.0098191751167178,1.0,-0.0009244183463177487,2.553476333618164,0.5,-1.96392583905528,21.180047044472303,9.0,6.953968253968254,5.0,17.361583105017008,5.0
subject-02,1,646,0.705613851547241,knife,knife,0,0_knife_00_knife-0044-sketch-48.png,True,-0.13771692245922318,0.0098191751167178,1.0,-0.0009244183463177487,2.553476333618164,0.5,-1.96392583905528,21.180047044472303,9.0,6.953968253968254,5.0,17.361583105017008,5.0
subject-06,1,118,0.512141942977905,knife,knife,0,0_knife_00_knife-0044-sketch-48.png,True,-1.3300421494547365,0.0098191751167178,1.0,-0.0009244183463177487,2.553476333618164,0.5,-1.96392583905528,21.180047044472303,9.0,6.953968253968254,5.0,17.361583105017008,5.0
subject-07,1,456,1.04271602630615,knife,knife,0,0_knife_00_knife-0044-sketch-48.png,True,1.193074131829054,0.0098191751167178,1.0,-0.0009244183463177487,2.553476333618164,0.5,-1.96392583905528,21.180047044472303,9.0,6.953968253968254,5.0,17.361583105017008,5.0
subject-03,1,792,0.954322099685669,knife,knife,0,0_knife_00_knife-0044-sketch-48.png,True,0.1595737522312126,0.0098191751167178,1.0,-0.0009244183463177487,2.553476333618164,0.5,-1.96392583905528,21.180047044472303,9.0,6.953968253968254,5.0,17.361583105017008,5.0
subject-04,1,430,0.915933847427368,knife,knife,0,0_knife_00_knife-0044-sketch-48.png,True,0.7558059277280347,0.0098191751167178,1.0,-0.0009244183463177487,2.553476333618164,0.5,-1.96392583905528,21.180047044472303,9.0,6.953968253968254,5.0,17.361583105017008,5.0
subject-01,1,10,1.30277895927429,keyboard,keyboard,0,0_keyboard_00_keyboard-0052-sketch-0.png,True,3.2054960662038408,0.6660459041595459,1.0,-0.15835777038991192,2.5469231605529785,0.0833333333333333,-3.2920987526212033,27.64699411392212,10.0,4.306060606060606,6.0,28.511103535088772,9.0
subject-05,1,50,0.660315036773682,keyboard,keyboard,0,0_keyboard_00_keyboard-0052-sketch-0.png,True,-0.6629088402976933,0.6660459041595459,1.0,-0.15835777038991192,2.5469231605529785,0.0833333333333333,-3.2920987526212033,27.64699411392212,10.0,4.306060606060606,6.0,28.511103535088772,9.0
subject-02,1,711,0.695308923721313,keyboard,keyboard,0,0_keyboard_00_keyboard-0052-sketch-0.png,True,-0.20211076368612454,0.6660459041595459,1.0,-0.15835777038991192,2.5469231605529785,0.0833333333333333,-3.2920987526212033,27.64699411392212,10.0,4.306060606060606,6.0,28.511103535088772,9.0
subject-06,1,402,0.629381895065308,keyboard,keyboard,0,0_keyboard_00_keyboard-0052-sketch-0.png,True,-0.789696905631019,0.6660459041595459,1.0,-0.15835777038991192,2.5469231605529785,0.0833333333333333,-3.2920987526212033,27.64699411392212,10.0,4.306060606060606,6.0,28.511103535088772,9.0
subject-07,1,653,0.50055193901062,keyboard,keyboard,0,0_keyboard_00_keyboard-0052-sketch-0.png,True,-1.2312800933941415,0.6660459041595459,1.0,-0.15835777038991192,2.5469231605529785,0.0833333333333333,-3.2920987526212033,27.64699411392212,10.0,4.306060606060606,6.0,28.511103535088772,9.0
subject-03,1,567,0.778656005859375,keyboard,keyboard,0,0_keyboard_00_keyboard-0052-sketch-0.png,True,-0.8662157836892016,0.6660459041595459,1.0,-0.15835777038991192,2.5469231605529785,0.0833333333333333,-3.2920987526212033,27.64699411392212,10.0,4.306060606060606,6.0,28.511103535088772,9.0
subject-04,1,352,0.722194910049438,keyboard,keyboard,0,0_keyboard_00_keyboard-0052-sketch-0.png,True,-0.3929786129983274,0.6660459041595459,1.0,-0.15835777038991192,2.5469231605529785,0.0833333333333333,-3.2920987526212033,27.64699411392212,10.0,4.306060606060606,6.0,28.511103535088772,9.0
subject-01,1,11,0.46082592010498,oven,oven,0,0_oven_00_oven-0015-sketch-21.png,True,-1.430546573969053,2.294565200805664,0.1111111111111111,-3.581199500527927,2.5786356925964355,0.0625,-5.367296703082571,29.552833080291748,9.0,0.8849206349206347,6.0,40.88207254440308,6.0
subject-05,1,770,0.6964271068573,oven,oven,0,0_oven_00_oven-0015-sketch-21.png,True,-0.5161070663112218,2.294565200805664,0.1111111111111111,-3.581199500527927,2.5786356925964355,0.0625,-5.367296703082571,29.552833080291748,9.0,0.8849206349206347,6.0,40.88207254440308,6.0
subject-02,1,721,0.57923698425293,oven,oven,0,0_oven_00_oven-0015-sketch-21.png,True,-0.9274256972094461,2.294565200805664,0.1111111111111111,-3.581199500527927,2.5786356925964355,0.0625,-5.367296703082571,29.552833080291748,9.0,0.8849206349206347,6.0,40.88207254440308,6.0
subject-06,1,27,1.46922898292542,bird,oven,0,0_oven_00_oven-0015-sketch-21.png,False,3.0810602158500253,2.294565200805664,0.1111111111111111,-3.581199500527927,2.5786356925964355,0.0625,-5.367296703082571,29.552833080291748,9.0,0.8849206349206347,6.0,40.88207254440308,6.0
subject-07,1,705,0.616919994354248,oven,oven,0,0_oven_00_oven-0015-sketch-21.png,True,-0.7109258440733983,2.294565200805664,0.1111111111111111,-3.581199500527927,2.5786356925964355,0.0625,-5.367296703082571,29.552833080291748,9.0,0.8849206349206347,6.0,40.88207254440308,6.0
subject-03,1,314,0.721734046936035,oven,oven,0,0_oven_00_oven-0015-sketch-21.png,True,-1.198607473831707,2.294565200805664,0.1111111111111111,-3.581199500527927,2.5786356925964355,0.0625,-5.367296703082571,29.552833080291748,9.0,0.8849206349206347,6.0,40.88207254440308,6.0
subject-04,1,420,0.602109909057617,oven,oven,0,0_oven_00_oven-0015-sketch-21.png,True,-1.1050285219095592,2.294565200805664,0.1111111111111111,-3.581199500527927,2.5786356925964355,0.0625,-5.367296703082571,29.552833080291748,9.0,0.8849206349206347,6.0,40.88207254440308,6.0
subject-01,1,12,0.752594947814941,bicycle,bicycle,0,0_bicycle_00_bicycle-0039-sketch-43.png,True,0.17602005221680217,0.0507646985352039,1.0,-0.005775767667096052,2.524155616760254,0.5,-1.8931563532446105,25.94916968420148,9.0,8.333333333333332,6.0,19.472551298788794,9.0
subject-05,1,328,0.539266109466553,bicycle,bicycle,0,0_bicycle_00_bicycle-0039-sketch-43.png,True,-1.1549935429109413,0.0507646985352039,1.0,-0.005775767667096052,2.524155616760254,0.5,-1.8931563532446105,25.94916968420148,9.0,8.333333333333332,6.0,19.472551298788794,9.0
subject-02,1,71,0.897284030914307,bicycle,bicycle,0,0_bicycle_00_bicycle-0039-sketch-43.png,True,1.0599992873564557,0.0507646985352039,1.0,-0.005775767667096052,2.524155616760254,0.5,-1.8931563532446105,25.94916968420148,9.0,8.333333333333332,6.0,19.472551298788794,9.0
subject-06,1,690,0.550750970840454,bicycle,bicycle,0,0_bicycle_00_bicycle-0039-sketch-43.png,True,-1.1520976501373634,0.0507646985352039,1.0,-0.005775767667096052,2.524155616760254,0.5,-1.8931563532446105,25.94916968420148,9.0,8.333333333333332,6.0,19.472551298788794,9.0
subject-07,1,623,0.593657970428467,bicycle,bicycle,0,0_bicycle_00_bicycle-0039-sketch-43.png,True,-0.814944880585069,0.0507646985352039,1.0,-0.005775767667096052,2.524155616760254,0.5,-1.8931563532446105,25.94916968420148,9.0,8.333333333333332,6.0,19.472551298788794,9.0
subject-03,1,557,0.878965854644775,car,bicycle,0,0_bicycle_00_bicycle-0039-sketch-43.png,False,-0.2804636274673468,0.0507646985352039,1.0,-0.005775767667096052,2.524155616760254,0.5,-1.8931563532446105,25.94916968420148,9.0,8.333333333333332,6.0,19.472551298788794,9.0
subject-04,1,450,0.850343942642212,bicycle,bicycle,0,0_bicycle_00_bicycle-0039-sketch-43.png,True,0.36688736719150566,0.0507646985352039,1.0,-0.005775767667096052,2.524155616760254,0.5,-1.8931563532446105,25.94916968420148,9.0,8.333333333333332,6.0,19.472551298788794,9.0
subject-01,1,13,0.792433977127075,elephant,elephant,0,0_elephant_00_elephant-0065-sketch-20.png,True,0.39538553941354154,1.8668402433395384,0.0833333333333333,-4.183687787276427,2.3986704349517822,0.1428571428571428,-2.9208392237306793,28.268977761268616,9.0,2.319047619047619,1.0,34.576895120368256,0.0
subject-05,1,186,0.988050937652588,elephant,elephant,0,0_elephant_00_elephant-0065-sketch-20.png,True,0.6693939475699974,1.8668402433395384,0.0833333333333333,-4.183687787276427,2.3986704349517822,0.1428571428571428,-2.9208392237306793,28.268977761268616,9.0,2.319047619047619,1.0,34.576895120368256,0.0
subject-02,1,255,0.756417989730835,elephant,elephant,0,0_elephant_00_elephant-0065-sketch-20.png,True,0.17974998882109067,1.8668402433395384,0.0833333333333333,-4.183687787276427,2.3986704349517822,0.1428571428571428,-2.9208392237306793,28.268977761268616,9.0,2.319047619047619,1.0,34.576895120368256,0.0
subject-06,1,427,0.603216171264648,elephant,elephant,0,0_elephant_00_elephant-0065-sketch-20.png,True,-0.9102916700876892,1.8668402433395384,0.0833333333333333,-4.183687787276427,2.3986704349517822,0.1428571428571428,-2.9208392237306793,28.268977761268616,9.0,2.319047619047619,1.0,34.576895120368256,0.0
subject-07,1,629,1.45045399665833,elephant,elephant,0,0_elephant_00_elephant-0065-sketch-20.png,True,3.0163252367448488,1.8668402433395384,0.0833333333333333,-4.183687787276427,2.3986704349517822,0.1428571428571428,-2.9208392237306793,28.268977761268616,9.0,2.319047619047619,1.0,34.576895120368256,0.0
subject-03,1,771,1.00604510307312,elephant,elephant,0,0_elephant_00_elephant-0065-sketch-20.png,True,0.46160651498899463,1.8668402433395384,0.0833333333333333,-4.183687787276427,2.3986704349517822,0.1428571428571428,-2.9208392237306793,28.268977761268616,9.0,2.319047619047619,1.0,34.576895120368256,0.0
subject-04,1,746,0.814950942993164,elephant,elephant,0,0_elephant_00_elephant-0065-sketch-20.png,True,0.1570228381657999,1.8668402433395384,0.0833333333333333,-4.183687787276427,2.3986704349517822,0.1428571428571428,-2.9208392237306793,28.268977761268616,9.0,2.319047619047619,1.0,34.576895120368256,0.0
subject-01,1,14,0.764175176620483,airplane,airplane,0,0_airplane_00_airplane-0045-sketch-49.png,True,0.2397842196083937,0.7936957478523254,1.0,-0.15931143074659765,2.526569128036499,0.3333333333333333,-2.4345190974302113,27.761330664157867,10.0,3.889102564102564,8.0,29.392899934857013,9.0
subject-05,1,787,0.933269023895264,airplane,airplane,0,0_airplane_00_airplane-0045-sketch-49.png,True,0.44669604896359016,0.7936957478523254,1.0,-0.15931143074659765,2.526569128036499,0.3333333333333333,-2.4345190974302113,27.761330664157867,10.0,3.889102564102564,8.0,29.392899934857013,9.0
subject-02,1,134,0.669266939163208,airplane,airplane,0,0_airplane_00_airplane-0045-sketch-49.png,True,-0.36484294844230686,0.7936957478523254,1.0,-0.15931143074659765,2.526569128036499,0.3333333333333333,-2.4345190974302113,27.761330664157867,10.0,3.889102564102564,8.0,29.392899934857013,9.0
subject-06,1,541,0.472676992416382,airplane,airplane,0,0_airplane_00_airplane-0045-sketch-49.png,True,-1.5119314965073476,0.7936957478523254,1.0,-0.15931143074659765,2.526569128036499,0.3333333333333333,-2.4345190974302113,27.761330664157867,10.0,3.889102564102564,8.0,29.392899934857013,9.0
subject-07,1,656,0.605829954147339,airplane,airplane,0,0_airplane_00_airplane-0045-sketch-49.png,True,-0.7605163397619474,0.7936957478523254,1.0,-0.15931143074659765,2.526569128036499,0.3333333333333333,-2.4345190974302113,27.761330664157867,10.0,3.889102564102564,8.0,29.392899934857013,9.0
subject-03,1,274,0.931241035461426,airplane,airplane,0,0_airplane_00_airplane-0045-sketch-49.png,True,0.02479353572256989,0.7936957478523254,1.0,-0.15931143074659765,2.526569128036499,0.3333333333333333,-2.4345190974302113,27.761330664157867,10.0,3.889102564102564,8.0,29.392899934857013,9.0
subject-04,1,596,0.868492126464844,airplane,airplane,0,0_airplane_00_airplane-0045-sketch-49.png,True,0.47449791414640397,0.7936957478523254,1.0,-0.15931143074659765,2.526569128036499,0.3333333333333333,-2.4345190974302113,27.761330664157867,10.0,3.889102564102564,8.0,29.392899934857013,9.0
subject-01,1,15,0.812115907669067,bird,bird,0,0_bird_00_bird-0749-sketch-4.png,True,0.5037600745581882,0.4300894141197204,1.0,-0.07382015065387487,2.521122694015503,0.0714285714285714,-3.629273510503752,27.264287292957306,10.0,2.5773199023199025,9.0,35.202989633194896,9.0
subject-05,1,280,0.810522079467773,bird,bird,0,0_bird_00_bird-0749-sketch-4.png,True,-0.052291385200392816,0.4300894141197204,1.0,-0.07382015065387487,2.521122694015503,0.0714285714285714,-3.629273510503752,27.264287292957306,10.0,2.5773199023199025,9.0,35.202989633194896,9.0
subject-02,1,3,0.793958187103271,bird,bird,0,0_bird_00_bird-0749-sketch-4.png,True,0.41433266131152185,0.4300894141197204,1.0,-0.07382015065387487,2.521122694015503,0.0714285714285714,-3.629273510503752,27.264287292957306,10.0,2.5773199023199025,9.0,35.202989633194896,9.0
subject-06,1,659,0.6944420337677,bird,bird,0,0_bird_00_bird-0749-sketch-4.png,True,-0.4898423263307757,0.4300894141197204,1.0,-0.07382015065387487,2.521122694015503,0.0714285714285714,-3.629273510503752,27.264287292957306,10.0,2.5773199023199025,9.0,35.202989633194896,9.0
subject-07,1,187,0.825318098068237,bird,bird,0,0_bird_00_bird-0749-sketch-4.png,True,0.22095222588093444,0.4300894141197204,1.0,-0.07382015065387487,2.521122694015503,0.0714285714285714,-3.629273510503752,27.264287292957306,10.0,2.5773199023199025,9.0,35.202989633194896,9.0
subject-03,1,735,0.768486022949219,bird,bird,0,0_bird_00_bird-0749-sketch-4.png,True,-0.9256026683320818,0.4300894141197204,1.0,-0.07382015065387487,2.521122694015503,0.0714285714285714,-3.629273510503752,27.264287292957306,10.0,2.5773199023199025,9.0,35.202989633194896,9.0
subject-04,1,104,1.03392887115479,bird,bird,0,0_bird_00_bird-0749-sketch-4.png,True,1.455463213843325,0.4300894141197204,1.0,-0.07382015065387487,2.521122694015503,0.0714285714285714,-3.629273510503752,27.264287292957306,10.0,2.5773199023199025,9.0,35.202989633194896,9.0
subject-01,1,16,0.821708917617798,airplane,airplane,0,0_airplane_00_airplane-0038-sketch-42.png,True,0.5565820267347584,2.298186779022217,0.1,-3.9050305750958416,2.5375990867614746,0.2,-2.642232662201799,29.722960472106934,10.0,1.0357142857142856,3.0,36.77460840473308,3.0
subject-05,1,717,0.742727994918823,airplane,airplane,0,0_airplane_00_airplane-0038-sketch-42.png,True,-0.3278859953828056,2.298186779022217,0.1,-3.9050305750958416,2.5375990867614746,0.2,-2.642232662201799,29.722960472106934,10.0,1.0357142857142856,3.0,36.77460840473308,3.0
subject-02,1,257,0.693898916244507,airplane,airplane,0,0_airplane_00_airplane-0038-sketch-42.png,True,-0.21092167426443503,2.298186779022217,0.1,-3.9050305750958416,2.5375990867614746,0.2,-2.642232662201799,29.722960472106934,10.0,1.0357142857142856,3.0,36.77460840473308,3.0
subject-06,1,611,0.615739107131958,airplane,airplane,0,0_airplane_00_airplane-0038-sketch-42.png,True,-0.8525749215379645,2.298186779022217,0.1,-3.9050305750958416,2.5375990867614746,0.2,-2.642232662201799,29.722960472106934,10.0,1.0357142857142856,3.0,36.77460840473308,3.0
subject-07,1,173,0.538303852081299,airplane,airplane,0,0_airplane_00_airplane-0038-sketch-42.png,True,-1.0624677133272367,2.298186779022217,0.1,-3.9050305750958416,2.5375990867614746,0.2,-2.642232662201799,29.722960472106934,10.0,1.0357142857142856,3.0,36.77460840473308,3.0
subject-03,1,138,1.22100019454956,airplane,airplane,0,0_airplane_00_airplane-0038-sketch-42.png,True,1.7168213303613122,2.298186779022217,0.1,-3.9050305750958416,2.5375990867614746,0.2,-2.642232662201799,29.722960472106934,10.0,1.0357142857142856,3.0,36.77460840473308,3.0
subject-04,1,326,0.637240886688232,airplane,airplane,0,0_airplane_00_airplane-0038-sketch-42.png,True,-0.8967176653060296,2.298186779022217,0.1,-3.9050305750958416,2.5375990867614746,0.2,-2.642232662201799,29.722960472106934,10.0,1.0357142857142856,3.0,36.77460840473308,3.0
subject-01,1,17,0.965553998947144,truck,truck,0,0_truck_00_truck-0029-sketch-34.png,True,1.3486356206975965,1.5844194889068604,1.0,-0.5364630411510143,2.552619218826294,0.1666666666666666,-2.6946517054018884,28.766641855239868,10.0,4.296825396825397,8.0,27.041861578008508,0.0
subject-05,1,442,0.637977123260498,truck,truck,0,0_truck_00_truck-0029-sketch-34.png,True,-0.7537162995017386,1.5844194889068604,1.0,-0.5364630411510143,2.552619218826294,0.1666666666666666,-2.6946517054018884,28.766641855239868,10.0,4.296825396825397,8.0,27.041861578008508,0.0
subject-02,1,216,0.765375137329102,truck,truck,0,0_truck_00_truck-0029-sketch-34.png,True,0.23572176756926347,1.5844194889068604,1.0,-0.5364630411510143,2.552619218826294,0.1666666666666666,-2.6946517054018884,28.766641855239868,10.0,4.296825396825397,8.0,27.041861578008508,0.0
subject-06,1,190,0.979768037796021,truck,truck,0,0_truck_00_truck-0029-sketch-34.png,True,0.8251918959707847,1.5844194889068604,1.0,-0.5364630411510143,2.552619218826294,0.1666666666666666,-2.6946517054018884,28.766641855239868,10.0,4.296825396825397,8.0,27.041861578008508,0.0
subject-07,1,6,0.600226879119873,truck,truck,0,0_truck_00_truck-0029-sketch-34.png,True,-0.7855711874277892,1.5844194889068604,1.0,-0.5364630411510143,2.552619218826294,0.1666666666666666,-2.6946517054018884,28.766641855239868,10.0,4.296825396825397,8.0,27.041861578008508,0.0
subject-03,1,404,0.965970039367676,truck,truck,0,0_truck_00_truck-0029-sketch-34.png,True,0.22759105927425538,1.5844194889068604,1.0,-0.5364630411510143,2.552619218826294,0.1666666666666666,-2.6946517054018884,28.766641855239868,10.0,4.296825396825397,8.0,27.041861578008508,0.0
subject-04,1,66,1.03495597839355,truck,truck,0,0_truck_00_truck-0029-sketch-34.png,True,1.4615534966410153,1.5844194889068604,1.0,-0.5364630411510143,2.552619218826294,0.1666666666666666,-2.6946517054018884,28.766641855239868,10.0,4.296825396825397,8.0,27.041861578008508,0.0
subject-01,1,18,1.02355599403381,oven,oven,0,0_oven_00_oven-0047-sketch-50.png,True,1.6680117734366904,1.4125993251800537,0.125,-5.24667151603119,2.536571502685547,0.0625,-5.053965496250151,28.56192946434021,10.0,0.6574175824175821,7.0,42.72810784219094,6.0
subject-05,1,536,1.47865295410156,oven,oven,0,0_oven_00_oven-0047-sketch-50.png,True,2.663775498372342,1.4125993251800537,0.125,-5.24667151603119,2.536571502685547,0.0625,-5.053965496250151,28.56192946434021,10.0,0.6574175824175821,7.0,42.72810784219094,6.0
subject-02,1,596,0.607534170150757,oven,oven,0,0_oven_00_oven-0047-sketch-50.png,True,-0.7506011209821309,1.4125993251800537,0.125,-5.24667151603119,2.536571502685547,0.0625,-5.053965496250151,28.56192946434021,10.0,0.6574175824175821,7.0,42.72810784219094,6.0
subject-06,1,367,0.740024089813232,oven,oven,0,0_oven_00_oven-0047-sketch-50.png,True,-0.279759954670068,1.4125993251800537,0.125,-5.24667151603119,2.536571502685547,0.0625,-5.053965496250151,28.56192946434021,10.0,0.6574175824175821,7.0,42.72810784219094,6.0
subject-07,1,518,0.553388833999634,oven,oven,0,0_oven_00_oven-0047-sketch-50.png,True,-0.9950133383361539,1.4125993251800537,0.125,-5.24667151603119,2.536571502685547,0.0625,-5.053965496250151,28.56192946434021,10.0,0.6574175824175821,7.0,42.72810784219094,6.0
subject-03,1,341,0.939910173416138,bottle,oven,0,0_oven_00_oven-0047-sketch-50.png,False,0.07541634406136967,1.4125993251800537,0.125,-5.24667151603119,2.536571502685547,0.0625,-5.053965496250151,28.56192946434021,10.0,0.6574175824175821,7.0,42.72810784219094,6.0
subject-04,1,581,0.719526052474976,oven,oven,0,0_oven_00_oven-0047-sketch-50.png,True,-0.4088037350127091,1.4125993251800537,0.125,-5.24667151603119,2.536571502685547,0.0625,-5.053965496250151,28.56192946434021,10.0,0.6574175824175821,7.0,42.72810784219094,6.0
subject-01,1,19,0.681785106658936,keyboard,keyboard,0,0_keyboard_00_keyboard-0043-sketch-47.png,True,-0.2138798919261568,1.9612921476364136,0.25,-2.834952435102133,2.557277202606201,0.1111111111111111,-2.880439996717913,29.616819024086,10.0,3.170707070707071,5.0,32.03229103282865,5.0
subject-05,1,439,0.622539043426514,keyboard,keyboard,0,0_keyboard_00_keyboard-0043-sketch-47.png,True,-0.8164747484448728,1.9612921476364136,0.25,-2.834952435102133,2.557277202606201,0.1111111111111111,-2.880439996717913,29.616819024086,10.0,3.170707070707071,5.0,32.03229103282865,5.0
subject-02,1,450,1.13058090209961,keyboard,keyboard,0,0_keyboard_00_keyboard-0043-sketch-47.png,True,2.51783401804138,1.9612921476364136,0.25,-2.834952435102133,2.557277202606201,0.1111111111111111,-2.880439996717913,29.616819024086,10.0,3.170707070707071,5.0,32.03229103282865,5.0
subject-06,1,234,1.00949096679688,keyboard,keyboard,0,0_keyboard_00_keyboard-0043-sketch-47.png,True,0.9621814036613968,1.9612921476364136,0.25,-2.834952435102133,2.557277202606201,0.1111111111111111,-2.880439996717913,29.616819024086,10.0,3.170707070707071,5.0,32.03229103282865,5.0
subject-07,1,395,0.686172008514404,keyboard,keyboard,0,0_keyboard_00_keyboard-0043-sketch-47.png,True,-0.40125683967312326,1.9612921476364136,0.25,-2.834952435102133,2.557277202606201,0.1111111111111111,-2.880439996717913,29.616819024086,10.0,3.170707070707071,5.0,32.03229103282865,5.0
subject-03,1,672,0.870421171188354,keyboard,keyboard,0,0_keyboard_00_keyboard-0043-sketch-47.png,True,-0.3303596927035675,1.9612921476364136,0.25,-2.834952435102133,2.557277202606201,0.1111111111111111,-2.880439996717913,29.616819024086,10.0,3.170707070707071,5.0,32.03229103282865,5.0
subject-04,1,258,0.675503015518188,keyboard,keyboard,0,0_keyboard_00_keyboard-0043-sketch-47.png,True,-0.6698404939432577,1.9612921476364136,0.25,-2.834952435102133,2.557277202606201,0.1111111111111111,-2.880439996717913,29.616819024086,10.0,3.170707070707071,5.0,32.03229103282865,5.0
subject-01,1,20,1.15126895904541,bicycle,bicycle,0,0_bicycle_00_bicycle-0047-sketch-50.png,True,2.371237160069713,0.3083409070968628,1.0,-0.04759412870658942,2.46951675415039,0.5,-1.8797970601596412,25.649172082543373,9.0,8.416666666666666,6.0,18.616078519584452,8.0
subject-05,1,392,0.669315099716187,chair,bicycle,0,0_bicycle_00_bicycle-0047-sketch-50.png,False,-0.6263220369687698,0.3083409070968628,1.0,-0.04759412870658942,2.46951675415039,0.5,-1.8797970601596412,25.649172082543373,9.0,8.416666666666666,6.0,18.616078519584452,8.0
subject-02,1,636,0.543812036514282,bicycle,bicycle,0,0_bicycle_00_bicycle-0047-sketch-50.png,True,-1.1487905139929506,0.3083409070968628,1.0,-0.04759412870658942,2.46951675415039,0.5,-1.8797970601596412,25.649172082543373,9.0,8.416666666666666,6.0,18.616078519584452,8.0
subject-06,1,403,0.635251045227051,bicycle,bicycle,0,0_bicycle_00_bicycle-0047-sketch-50.png,True,-0.7626466781384251,0.3083409070968628,1.0,-0.04759412870658942,2.46951675415039,0.5,-1.8797970601596412,25.649172082543373,9.0,8.416666666666666,6.0,18.616078519584452,8.0
subject-07,1,89,0.822804927825928,bicycle,bicycle,0,0_bicycle_00_bicycle-0047-sketch-50.png,True,0.20971427220893862,0.3083409070968628,1.0,-0.04759412870658942,2.46951675415039,0.5,-1.8797970601596412,25.649172082543373,9.0,8.416666666666666,6.0,18.616078519584452,8.0
subject-03,1,681,0.864474058151245,bicycle,bicycle,0,0_bicycle_00_bicycle-0047-sketch-50.png,True,-0.3650874320727525,0.3083409070968628,1.0,-0.04759412870658942,2.46951675415039,0.5,-1.8797970601596412,25.649172082543373,9.0,8.416666666666666,6.0,18.616078519584452,8.0
subject-04,1,506,0.787513971328735,bicycle,bicycle,0,0_bicycle_00_bicycle-0047-sketch-50.png,True,-0.005666032326754708,0.3083409070968628,1.0,-0.04759412870658942,2.46951675415039,0.5,-1.8797970601596412,25.649172082543373,9.0,8.416666666666666,6.0,18.616078519584452,8.0
subject-01,1,21,0.950965166091919,bird,bird,0,0_bird_00_bird-2262-sketch-28.png,True,1.268305188903077,0.9647679924964904,1.0,-0.22373938780708524,2.5164408683776855,0.0833333333333333,-3.5422256037515942,26.867080986499786,9.0,3.4837301587301583,8.0,32.696138858966194,8.0
subject-05,1,302,0.5886549949646,bird,bird,0,0_bird_00_bird-2262-sketch-28.png,True,-0.954219231453867,0.9647679924964904,1.0,-0.22373938780708524,2.5164408683776855,0.0833333333333333,-3.5422256037515942,26.867080986499786,9.0,3.4837301587301583,8.0,32.696138858966194,8.0
subject-02,1,304,0.816812992095947,bird,bird,0,0_bird_00_bird-2262-sketch-28.png,True,0.5571486721395884,0.9647679924964904,1.0,-0.22373938780708524,2.5164408683776855,0.0833333333333333,-3.5422256037515942,26.867080986499786,9.0,3.4837301587301583,8.0,32.696138858966194,8.0
subject-06,1,397,0.732584953308105,bird,bird,0,0_bird_00_bird-2262-sketch-28.png,True,-0.31404606582187083,0.9647679924964904,1.0,-0.22373938780708524,2.5164408683776855,0.0833333333333333,-3.5422256037515942,26.867080986499786,9.0,3.4837301587301583,8.0,32.696138858966194,8.0
subject-07,1,174,0.913747072219849,bird,bird,0,0_bird_00_bird-2262-sketch-28.png,True,0.6163733947488652,0.9647679924964904,1.0,-0.22373938780708524,2.5164408683776855,0.0833333333333333,-3.5422256037515942,26.867080986499786,9.0,3.4837301587301583,8.0,32.696138858966194,8.0
subject-03,1,130,0.800819158554077,bird,bird,0,0_bird_00_bird-2262-sketch-28.png,True,-0.7367956456191154,0.9647679924964904,1.0,-0.22373938780708524,2.5164408683776855,0.0833333333333333,-3.5422256037515942,26.867080986499786,9.0,3.4837301587301583,8.0,32.696138858966194,8.0
subject-04,1,648,0.811058044433594,bird,bird,0,0_bird_00_bird-2262-sketch-28.png,True,0.1339397050363655,0.9647679924964904,1.0,-0.22373938780708524,2.5164408683776855,0.0833333333333333,-3.5422256037515942,26.867080986499786,9.0,3.4837301587301583,8.0,32.696138858966194,8.0
subject-01,1,22,0.584779977798462,bear,bear,0,0_bear_00_bear-0030-sketch-35.png,True,-0.7480188436143975,0.502951979637146,1.0,-0.09122775614826688,2.475647449493408,1.0,-1.3506839825909274,26.939241766929626,9.0,8.283333333333333,4.0,18.875525569458244,9.0
subject-05,1,678,0.937835931777954,bear,bear,0,0_bear_00_bear-0030-sketch-35.png,True,0.4652613147392518,0.502951979637146,1.0,-0.09122775614826688,2.475647449493408,1.0,-1.3506839825909274,26.939241766929626,9.0,8.283333333333333,4.0,18.875525569458244,9.0
subject-02,1,557,0.796594858169556,bear,bear,0,0_bear_00_bear-0030-sketch-35.png,True,0.43080879592187066,0.502951979637146,1.0,-0.09122775614826688,2.475647449493408,1.0,-1.3506839825909274,26.939241766929626,9.0,8.283333333333333,4.0,18.875525569458244,9.0
subject-06,1,6,0.601299047470093,bear,bear,0,0_bear_00_bear-0030-sketch-35.png,True,-0.9191274697085966,0.502951979637146,1.0,-0.09122775614826688,2.475647449493408,1.0,-1.3506839825909274,26.939241766929626,9.0,8.283333333333333,4.0,18.875525569458244,9.0
subject-07,1,129,1.01911807060242,bear,bear,0,0_bear_00_bear-0030-sketch-35.png,True,1.0875529345429225,0.502951979637146,1.0,-0.09122775614826688,2.475647449493408,1.0,-1.3506839825909274,26.939241766929626,9.0,8.283333333333333,4.0,18.875525569458244,9.0
subject-03,1,253,,na,bear,0,0_bear_00_bear-0030-sketch-35.png,False,,0.502951979637146,1.0,-0.09122775614826688,2.475647449493408,1.0,-1.3506839825909274,26.939241766929626,9.0,8.283333333333333,4.0,18.875525569458244,9.0
subject-04,1,546,0.60193920135498,bear,bear,0,0_bear_00_bear-0030-sketch-35.png,True,-1.1060407416131786,0.502951979637146,1.0,-0.09122775614826688,2.475647449493408,1.0,-1.3506839825909274,26.939241766929626,9.0,8.283333333333333,4.0,18.875525569458244,9.0
subject-01,1,23,0.860413074493408,bicycle,bicycle,0,0_bicycle_00_bicycle-0040-sketch-44.png,True,0.7696985703893816,0.0643098056316375,1.0,-0.007640087983435227,2.584284543991089,0.5,-2.146494117725298,26.16158340871334,9.0,6.708333333333333,7.0,21.991934278699226,9.0
subject-05,1,409,0.697979927062988,bicycle,bicycle,0,0_bicycle_00_bicycle-0040-sketch-44.png,True,-0.5097945851837432,0.0643098056316375,1.0,-0.007640087983435227,2.584284543991089,0.5,-2.146494117725298,26.16158340871334,9.0,6.708333333333333,7.0,21.991934278699226,9.0
subject-02,1,42,0.67686915397644,bicycle,bicycle,0,0_bicycle_00_bicycle-0040-sketch-44.png,True,-0.3173379273567298,0.0643098056316375,1.0,-0.007640087983435227,2.584284543991089,0.5,-2.146494117725298,26.16158340871334,9.0,6.708333333333333,7.0,21.991934278699226,9.0
subject-06,1,630,1.0805070400238,bicycle,bicycle,0,0_bicycle_00_bicycle-0040-sketch-44.png,True,1.2894861894446217,0.0643098056316375,1.0,-0.007640087983435227,2.584284543991089,0.5,-2.146494117725298,26.16158340871334,9.0,6.708333333333333,7.0,21.991934278699226,9.0
subject-07,1,233,0.612748861312866,bicycle,bicycle,0,0_bicycle_00_bicycle-0040-sketch-44.png,True,-0.7295775848467235,0.0643098056316375,1.0,-0.007640087983435227,2.584284543991089,0.5,-2.146494117725298,26.16158340871334,9.0,6.708333333333333,7.0,21.991934278699226,9.0
subject-03,1,397,1.0397961139679,bicycle,bicycle,0,0_bicycle_00_bicycle-0040-sketch-44.png,True,0.6586931186043538,0.0643098056316375,1.0,-0.007640087983435227,2.584284543991089,0.5,-2.146494117725298,26.16158340871334,9.0,6.708333333333333,7.0,21.991934278699226,9.0
subject-04,1,168,0.784507989883423,bicycle,bicycle,0,0_bicycle_00_bicycle-0040-sketch-44.png,True,-0.02349014688431785,0.0643098056316375,1.0,-0.007640087983435227,2.584284543991089,0.5,-2.146494117725298,26.16158340871334,9.0,6.708333333333333,7.0,21.991934278699226,9.0
subject-01,1,24,0.668322801589966,boat,boat,0,0_boat_00_boat-0233-sketch-34.png,True,-0.28800732829284215,2.4299116134643555,1.0,-1.405603682596367,2.4660606384277344,0.5,-2.289115548345288,29.775445461273193,9.0,4.534523809523809,8.0,27.225552920409633,9.0
subject-05,1,479,0.650953054428101,boat,boat,0,0_boat_00_boat-0233-sketch-34.png,True,-0.7009669082284147,2.4299116134643555,1.0,-1.405603682596367,2.4660606384277344,0.5,-2.289115548345288,29.775445461273193,9.0,4.534523809523809,8.0,27.225552920409633,9.0
subject-02,1,61,0.834932088851929,boat,boat,0,0_boat_00_boat-0233-sketch-34.png,True,0.6703720017337966,2.4299116134643555,1.0,-1.405603682596367,2.4660606384277344,0.5,-2.289115548345288,29.775445461273193,9.0,4.534523809523809,8.0,27.225552920409633,9.0
subject-06,1,686,0.803468942642212,boat,boat,0,0_boat_00_boat-0233-sketch-34.png,True,0.012649960728717043,2.4299116134643555,1.0,-1.405603682596367,2.4660606384277344,0.5,-2.289115548345288,29.775445461273193,9.0,4.534523809523809,8.0,27.225552920409633,9.0
subject-07,1,670,0.557244062423706,boat,boat,0,0_boat_00_boat-0233-sketch-34.png,True,-0.9777742043947629,2.4299116134643555,1.0,-1.405603682596367,2.4660606384277344,0.5,-2.289115548345288,29.775445461273193,9.0,4.534523809523809,8.0,27.225552920409633,9.0
subject-03,1,624,0.917862176895142,boat,boat,0,0_boat_00_boat-0233-sketch-34.png,True,-0.053331347804606646,2.4299116134643555,1.0,-1.405603682596367,2.4660606384277344,0.5,-2.289115548345288,29.775445461273193,9.0,4.534523809523809,8.0,27.225552920409633,9.0
subject-04,1,783,0.531718969345093,boat,boat,0,0_boat_00_boat-0233-sketch-34.png,True,-1.5224150547530113,2.4299116134643555,1.0,-1.405603682596367,2.4660606384277344,0.5,-2.289115548345288,29.775445461273193,9.0,4.534523809523809,8.0,27.225552920409633,9.0
subject-01,1,25,1.12427806854248,knife,knife,0,0_knife_00_knife-0037-sketch-41.png,True,2.222617328028632,0.66571444272995,1.0,-0.18005507374905017,2.5308053493499756,0.3333333333333333,-2.1700732395565487,25.275014340877533,9.0,6.648412698412699,5.0,20.235747409123856,5.0
subject-05,1,594,0.723356008529663,knife,knife,0,0_knife_00_knife-0037-sketch-41.png,True,-0.40663645086723266,0.66571444272995,1.0,-0.18005507374905017,2.5308053493499756,0.3333333333333333,-2.1700732395565487,25.275014340877533,9.0,6.648412698412699,5.0,20.235747409123856,5.0
subject-02,1,463,0.774218082427979,knife,knife,0,0_knife_00_knife-0037-sketch-41.png,True,0.2909799132151318,0.66571444272995,1.0,-0.18005507374905017,2.5308053493499756,0.3333333333333333,-2.1700732395565487,25.275014340877533,9.0,6.648412698412699,5.0,20.235747409123856,5.0
subject-06,1,152,0.913738965988159,knife,knife,0,0_knife_00_knife-0037-sketch-41.png,True,0.5208716171730378,0.66571444272995,1.0,-0.18005507374905017,2.5308053493499756,0.3333333333333333,-2.1700732395565487,25.275014340877533,9.0,6.648412698412699,5.0,20.235747409123856,5.0
subject-07,1,559,0.576077222824097,knife,knife,0,0_knife_00_knife-0037-sketch-41.png,True,-0.8935593826075979,0.66571444272995,1.0,-0.18005507374905017,2.5308053493499756,0.3333333333333333,-2.1700732395565487,25.275014340877533,9.0,6.648412698412699,5.0,20.235747409123856,5.0
subject-03,1,678,0.921044111251831,knife,knife,0,0_knife_00_knife-0037-sketch-41.png,True,-0.034750670703055014,0.66571444272995,1.0,-0.18005507374905017,2.5308053493499756,0.3333333333333333,-2.1700732395565487,25.275014340877533,9.0,6.648412698412699,5.0,20.235747409123856,5.0
subject-04,1,498,0.784893989562988,knife,knife,0,0_knife_00_knife-0037-sketch-41.png,True,-0.021201342833820882,0.66571444272995,1.0,-0.18005507374905017,2.5308053493499756,0.3333333333333333,-2.1700732395565487,25.275014340877533,9.0,6.648412698412699,5.0,20.235747409123856,5.0
subject-01,1,26,0.671607971191406,truck,truck,0,0_truck_00_truck-0112-sketch-17.png,True,-0.26991821210234535,0.8070027828216553,1.0,-0.1755968060189459,2.5157790184020996,0.2,-2.5539360787490515,26.188667714595795,9.0,4.176190476190476,9.0,25.721934293902518,9.0
subject-05,1,456,0.703248023986816,truck,truck,0,0_truck_00_truck-0112-sketch-17.png,True,-0.4883788653936596,0.8070027828216553,1.0,-0.1755968060189459,2.5157790184020996,0.2,-2.5539360787490515,26.188667714595795,9.0,4.176190476190476,9.0,25.721934293902518,9.0
subject-02,1,404,0.82495903968811,truck,truck,0,0_truck_00_truck-0112-sketch-17.png,True,0.6080520170380073,0.8070027828216553,1.0,-0.1755968060189459,2.5157790184020996,0.2,-2.5539360787490515,26.188667714595795,9.0,4.176190476190476,9.0,25.721934293902518,9.0
subject-06,1,775,0.57867693901062,truck,truck,0,0_truck_00_truck-0112-sketch-17.png,True,-1.0233901250040172,0.8070027828216553,1.0,-0.1755968060189459,2.5157790184020996,0.2,-2.5539360787490515,26.188667714595795,9.0,4.176190476190476,9.0,25.721934293902518,9.0
subject-07,1,240,0.751485109329224,truck,truck,0,0_truck_00_truck-0112-sketch-17.png,True,-0.10920117675990225,0.8070027828216553,1.0,-0.1755968060189459,2.5157790184020996,0.2,-2.5539360787490515,26.188667714595795,9.0,4.176190476190476,9.0,25.721934293902518,9.0
subject-03,1,487,0.963729858398438,truck,truck,0,0_truck_00_truck-0112-sketch-17.png,True,0.21450968342784615,0.8070027828216553,1.0,-0.1755968060189459,2.5157790184020996,0.2,-2.5539360787490515,26.188667714595795,9.0,4.176190476190476,9.0,25.721934293902518,9.0
subject-04,1,205,0.740002870559692,truck,truck,0,0_truck_00_truck-0112-sketch-17.png,True,-0.28738543687731605,0.8070027828216553,1.0,-0.1755968060189459,2.5157790184020996,0.2,-2.5539360787490515,26.188667714595795,9.0,4.176190476190476,9.0,25.721934293902518,9.0
subject-01,1,27,0.665903091430664,bird,bird,0,0_bird_00_bird-0479-sketch-26.png,True,-0.30133096863084946,0.183988943696022,1.0,-0.02656255269065095,2.4887218475341797,0.0833333333333333,-3.641169884194713,25.304733470082283,9.0,3.9912087912087912,7.0,32.18634489723593,8.0
subject-05,1,313,0.770519018173218,bird,bird,0,0_bird_00_bird-0479-sketch-26.png,True,-0.2149107074749762,0.183988943696022,1.0,-0.02656255269065095,2.4887218475341797,0.0833333333333333,-3.641169884194713,25.304733470082283,9.0,3.9912087912087912,7.0,32.18634489723593,8.0
subject-02,1,186,0.65890908241272,bird,bird,0,0_bird_00_bird-0479-sketch-26.png,True,-0.42956753402977116,0.183988943696022,1.0,-0.02656255269065095,2.4887218475341797,0.0833333333333333,-3.641169884194713,25.304733470082283,9.0,3.9912087912087912,7.0,32.18634489723593,8.0
subject-06,1,761,0.693229913711548,bird,bird,0,0_bird_00_bird-0479-sketch-26.png,True,-0.49542884607616755,0.183988943696022,1.0,-0.02656255269065095,2.4887218475341797,0.0833333333333333,-3.641169884194713,25.304733470082283,9.0,3.9912087912087912,7.0,32.18634489723593,8.0
subject-07,1,681,0.691237211227417,bird,bird,0,0_bird_00_bird-0479-sketch-26.png,True,-0.3786071550358384,0.183988943696022,1.0,-0.02656255269065095,2.4887218475341797,0.0833333333333333,-3.641169884194713,25.304733470082283,9.0,3.9912087912087912,7.0,32.18634489723593,8.0
subject-03,1,419,0.825361013412476,bird,bird,0,0_bird_00_bird-0479-sketch-26.png,True,-0.59348524713825,0.183988943696022,1.0,-0.02656255269065095,2.4887218475341797,0.0833333333333333,-3.641169884194713,25.304733470082283,9.0,3.9912087912087912,7.0,32.18634489723593,8.0
subject-04,1,335,0.749860048294067,bird,bird,0,0_bird_00_bird-0479-sketch-26.png,True,-0.22893681756671966,0.183988943696022,1.0,-0.02656255269065095,2.4887218475341797,0.0833333333333333,-3.641169884194713,25.304733470082283,9.0,3.9912087912087912,7.0,32.18634489723593,8.0
subject-01,1,28,0.912215948104858,airplane,airplane,0,0_airplane_00_airplane-0012-sketch-19.png,True,1.0549405254313362,2.2321841716766357,1.0,-1.2147550503591285,2.4960150718688965,0.3333333333333333,-2.357740307390425,29.64249014854431,9.0,3.208333333333333,9.0,30.7603864246572,3.0
subject-05,1,750,0.492741107940674,airplane,airplane,0,0_airplane_00_airplane-0012-sketch-19.png,True,-1.3441256736059544,2.2321841716766357,1.0,-1.2147550503591285,2.4960150718688965,0.3333333333333333,-2.357740307390425,29.64249014854431,9.0,3.208333333333333,9.0,30.7603864246572,3.0
subject-02,1,759,0.870043039321899,airplane,airplane,0,0_airplane_00_airplane-0012-sketch-19.png,True,0.8897746999458286,2.2321841716766357,1.0,-1.2147550503591285,2.4960150718688965,0.3333333333333333,-2.357740307390425,29.64249014854431,9.0,3.208333333333333,9.0,30.7603864246572,3.0
subject-06,1,696,0.735620021820068,airplane,airplane,0,0_airplane_00_airplane-0012-sketch-19.png,True,-0.30005778959078094,2.2321841716766357,1.0,-1.2147550503591285,2.4960150718688965,0.3333333333333333,-2.357740307390425,29.64249014854431,9.0,3.208333333333333,9.0,30.7603864246572,3.0
subject-07,1,619,0.660676002502441,airplane,airplane,0,0_airplane_00_airplane-0012-sketch-19.png,True,-0.5152654052528747,2.2321841716766357,1.0,-1.2147550503591285,2.4960150718688965,0.3333333333333333,-2.357740307390425,29.64249014854431,9.0,3.208333333333333,9.0,30.7603864246572,3.0
subject-03,1,497,0.827913045883179,airplane,airplane,0,0_airplane_00_airplane-0012-sketch-19.png,True,-0.578582836850896,2.2321841716766357,1.0,-1.2147550503591285,2.4960150718688965,0.3333333333333333,-2.357740307390425,29.64249014854431,9.0,3.208333333333333,9.0,30.7603864246572,3.0
subject-04,1,509,0.764838933944702,airplane,airplane,0,0_airplane_00_airplane-0012-sketch-19.png,True,-0.140118779718239,2.2321841716766357,1.0,-1.2147550503591285,2.4960150718688965,0.3333333333333333,-2.357740307390425,29.64249014854431,9.0,3.208333333333333,9.0,30.7603864246572,3.0
subject-01,1,29,0.827598094940186,chair,chair,0,0_chair_00_chair-0083-sketch-37.png,True,0.5890095801872258,0.1157954856753349,1.0,-0.015460237458121558,2.4517111778259277,0.125,-3.0143046595701284,26.899384133517742,10.0,4.044444444444444,8.0,27.89534878264113,9.0
subject-05,1,130,,na,chair,0,0_chair_00_chair-0083-sketch-37.png,False,,0.1157954856753349,1.0,-0.015460237458121558,2.4517111778259277,0.125,-3.0143046595701284,26.899384133517742,10.0,4.044444444444444,8.0,27.89534878264113,9.0
subject-02,1,718,0.673763036727905,chair,chair,0,0_chair_00_chair-0083-sketch-37.png,True,-0.33674755586776567,0.1157954856753349,1.0,-0.015460237458121558,2.4517111778259277,0.125,-3.0143046595701284,26.899384133517742,10.0,4.044444444444444,8.0,27.89534878264113,9.0
subject-06,1,156,0.613107919692993,chair,chair,0,0_chair_00_chair-0083-sketch-37.png,True,-0.8647017570828435,0.1157954856753349,1.0,-0.015460237458121558,2.4517111778259277,0.125,-3.0143046595701284,26.899384133517742,10.0,4.044444444444444,8.0,27.89534878264113,9.0
subject-07,1,181,0.692461013793945,chair,chair,0,0_chair_00_chair-0083-sketch-37.png,True,-0.3731347694748526,0.1157954856753349,1.0,-0.015460237458121558,2.4517111778259277,0.125,-3.0143046595701284,26.899384133517742,10.0,4.044444444444444,8.0,27.89534878264113,9.0
subject-03,1,211,0.747286081314087,chair,chair,0,0_chair_00_chair-0083-sketch-37.png,True,-1.049398204612099,0.1157954856753349,1.0,-0.015460237458121558,2.4517111778259277,0.125,-3.0143046595701284,26.899384133517742,10.0,4.044444444444444,8.0,27.89534878264113,9.0
subject-04,1,147,0.678242921829224,chair,chair,0,0_chair_00_chair-0083-sketch-37.png,True,-0.6535940849572485,0.1157954856753349,1.0,-0.015460237458121558,2.4517111778259277,0.125,-3.0143046595701284,26.899384133517742,10.0,4.044444444444444,8.0,27.89534878264113,9.0
subject-01,1,30,0.727412939071655,dog,dog,0,0_dog_00_dog-4909-sketch-37.png,True,0.0373604585484151,0.953857123851776,1.0,-0.21390899255602874,2.5793519020080566,0.1428571428571428,-2.767567499037409,27.431736886501312,10.0,3.1278138528138526,9.0,30.078717019436095,9.0
subject-05,1,370,0.767552852630615,dog,dog,0,0_dog_00_dog-4909-sketch-37.png,True,-0.22696868040711213,0.953857123851776,1.0,-0.21390899255602874,2.5793519020080566,0.1428571428571428,-2.767567499037409,27.431736886501312,10.0,3.1278138528138526,9.0,30.078717019436095,9.0
subject-02,1,387,0.938282012939453,dog,dog,0,0_dog_00_dog-4909-sketch-37.png,True,1.3161891015643856,0.953857123851776,1.0,-0.21390899255602874,2.5793519020080566,0.1428571428571428,-2.767567499037409,27.431736886501312,10.0,3.1278138528138526,9.0,30.078717019436095,9.0
subject-06,1,793,0.741391897201538,dog,dog,0,0_dog_00_dog-4909-sketch-37.png,True,-0.27345589019734373,0.953857123851776,1.0,-0.21390899255602874,2.5793519020080566,0.1428571428571428,-2.767567499037409,27.431736886501312,10.0,3.1278138528138526,9.0,30.078717019436095,9.0
subject-07,1,342,0.844306945800781,dog,dog,0,0_dog_00_dog-4909-sketch-37.png,True,0.30586322295960916,0.953857123851776,1.0,-0.21390899255602874,2.5793519020080566,0.1428571428571428,-2.767567499037409,27.431736886501312,10.0,3.1278138528138526,9.0,30.078717019436095,9.0
subject-03,1,30,1.29130482673645,dog,dog,0,0_dog_00_dog-4909-sketch-37.png,True,2.12736017968165,0.953857123851776,1.0,-0.21390899255602874,2.5793519020080566,0.1428571428571428,-2.767567499037409,27.431736886501312,10.0,3.1278138528138526,9.0,30.078717019436095,9.0
subject-04,1,460,0.754000186920166,cat,dog,0,0_dog_00_dog-4909-sketch-37.png,False,-0.20438766232463887,0.953857123851776,1.0,-0.21390899255602874,2.5793519020080566,0.1428571428571428,-2.767567499037409,27.431736886501312,10.0,3.1278138528138526,9.0,30.078717019436095,9.0
subject-01,1,31,0.949219942092896,chair,chair,0,0_chair_00_chair-0135-sketch-39.png,True,1.2586954690021828,0.0457767844200134,1.0,-0.005165843541098012,2.6383633613586426,0.0769230769230769,-3.1931062472875578,24.998039305210114,9.0,3.801165501165501,8.0,27.69133544745795,9.0
subject-05,1,648,0.673561096191406,chair,chair,0,0_chair_00_chair-0135-sketch-39.png,True,-0.6090613312418713,0.0457767844200134,1.0,-0.005165843541098012,2.6383633613586426,0.0769230769230769,-3.1931062472875578,24.998039305210114,9.0,3.801165501165501,8.0,27.69133544745795,9.0
subject-02,1,451,0.662401914596558,chair,chair,0,0_chair_00_chair-0135-sketch-39.png,True,-0.4077413859113566,0.0457767844200134,1.0,-0.005165843541098012,2.6383633613586426,0.0769230769230769,-3.1931062472875578,24.998039305210114,9.0,3.801165501165501,8.0,27.69133544745795,9.0
subject-06,1,123,0.69756007194519,chair,chair,0,0_chair_00_chair-0135-sketch-39.png,True,-0.47547165260334645,0.0457767844200134,1.0,-0.005165843541098012,2.6383633613586426,0.0769230769230769,-3.1931062472875578,24.998039305210114,9.0,3.801165501165501,8.0,27.69133544745795,9.0
subject-07,1,119,0.597144842147827,chair,chair,0,0_chair_00_chair-0135-sketch-39.png,True,-0.7993528995156297,0.0457767844200134,1.0,-0.005165843541098012,2.6383633613586426,0.0769230769230769,-3.1931062472875578,24.998039305210114,9.0,3.801165501165501,8.0,27.69133544745795,9.0
subject-03,1,689,0.735070943832397,chair,chair,0,0_chair_00_chair-0135-sketch-39.png,True,-1.1207276224617222,0.0457767844200134,1.0,-0.005165843541098012,2.6383633613586426,0.0769230769230769,-3.1931062472875578,24.998039305210114,9.0,3.801165501165501,8.0,27.69133544745795,9.0
subject-04,1,598,0.818716049194336,chair,chair,0,0_chair_00_chair-0135-sketch-39.png,True,0.17934822023219388,0.0457767844200134,1.0,-0.005165843541098012,2.6383633613586426,0.0769230769230769,-3.1931062472875578,24.998039305210114,9.0,3.801165501165501,8.0,27.69133544745795,9.0
subject-01,1,32,0.64490008354187,clock,clock,0,0_clock_00_clock-0021-sketch-27.png,True,-0.41697974666769183,0.0212695840746164,1.0,-0.0022244141236464916,2.4527833461761475,0.5,-2.2708164170784713,24.591949129477143,9.0,5.393589743589743,6.0,27.62474779118011,4.0
subject-05,1,474,0.587837934494019,clock,clock,0,0_clock_00_clock-0021-sketch-27.png,True,-0.9575407227518675,0.0212695840746164,1.0,-0.0022244141236464916,2.4527833461761475,0.5,-2.2708164170784713,24.591949129477143,9.0,5.393589743589743,6.0,27.62474779118011,4.0
subject-02,1,763,0.755368947982788,clock,clock,0,0_clock_00_clock-0021-sketch-27.png,True,0.17319469518825575,0.0212695840746164,1.0,-0.0022244141236464916,2.4527833461761475,0.5,-2.2708164170784713,24.591949129477143,9.0,5.393589743589743,6.0,27.62474779118011,4.0
subject-06,1,339,0.77121901512146,clock,clock,0,0_clock_00_clock-0021-sketch-27.png,True,-0.1359861879495659,0.0212695840746164,1.0,-0.0022244141236464916,2.4527833461761475,0.5,-2.2708164170784713,24.591949129477143,9.0,5.393589743589743,6.0,27.62474779118011,4.0
subject-07,1,523,0.690799951553345,clock,clock,0,0_clock_00_clock-0021-sketch-27.png,True,-0.3805624161149044,0.0212695840746164,1.0,-0.0022244141236464916,2.4527833461761475,0.5,-2.2708164170784713,24.591949129477143,9.0,5.393589743589743,6.0,27.62474779118011,4.0
subject-03,1,438,0.75206184387207,clock,clock,0,0_clock_00_clock-0021-sketch-27.png,True,-1.02151048222178,0.0212695840746164,1.0,-0.0022244141236464916,2.4527833461761475,0.5,-2.2708164170784713,24.591949129477143,9.0,5.393589743589743,6.0,27.62474779118011,4.0
subject-04,1,461,0.571868181228638,clock,clock,0,0_clock_00_clock-0021-sketch-27.png,True,-1.284348331778315,0.0212695840746164,1.0,-0.0022244141236464916,2.4527833461761475,0.5,-2.2708164170784713,24.591949129477143,9.0,5.393589743589743,6.0,27.62474779118011,4.0
subject-01,1,33,0.608633041381836,airplane,airplane,0,0_airplane_00_airplane-0024-sketch-3.png,True,-0.6166768153459542,1.6529691219329834,0.3333333333333333,-2.609937526861838,2.4769020080566406,0.1111111111111111,-3.1610137356755406,28.54937219619751,10.0,1.2932539682539679,9.0,36.439184630314074,3.0
subject-05,1,448,0.670654058456421,airplane,airplane,0,0_airplane_00_airplane-0024-sketch-3.png,True,-0.6208789394696259,1.6529691219329834,0.3333333333333333,-2.609937526861838,2.4769020080566406,0.1111111111111111,-3.1610137356755406,28.54937219619751,10.0,1.2932539682539679,9.0,36.439184630314074,3.0
subject-02,1,652,0.582488059997559,airplane,airplane,0,0_airplane_00_airplane-0024-sketch-3.png,True,-0.9071102463055074,1.6529691219329834,0.3333333333333333,-2.609937526861838,2.4769020080566406,0.1111111111111111,-3.1610137356755406,28.54937219619751,10.0,1.2932539682539679,9.0,36.439184630314074,3.0
subject-06,1,618,0.560167074203491,airplane,airplane,0,0_airplane_00_airplane-0024-sketch-3.png,True,-1.108699929676198,1.6529691219329834,0.3333333333333333,-2.609937526861838,2.4769020080566406,0.1111111111111111,-3.1610137356755406,28.54937219619751,10.0,1.2932539682539679,9.0,36.439184630314074,3.0
subject-07,1,86,1.09092593193054,airplane,airplane,0,0_airplane_00_airplane-0024-sketch-3.png,True,1.4086507278022808,1.6529691219329834,0.3333333333333333,-2.609937526861838,2.4769020080566406,0.1111111111111111,-3.1610137356755406,28.54937219619751,10.0,1.2932539682539679,9.0,36.439184630314074,3.0
subject-03,1,344,1.08333492279053,airplane,airplane,0,0_airplane_00_airplane-0024-sketch-3.png,True,0.9129348651126848,1.6529691219329834,0.3333333333333333,-2.609937526861838,2.4769020080566406,0.1111111111111111,-3.1610137356755406,28.54937219619751,10.0,1.2932539682539679,9.0,36.439184630314074,3.0
subject-04,1,777,0.822589874267578,airplane,airplane,0,0_airplane_00_airplane-0024-sketch-3.png,True,0.20231825618804034,1.6529691219329834,0.3333333333333333,-2.609937526861838,2.4769020080566406,0.1111111111111111,-3.1610137356755406,28.54937219619751,10.0,1.2932539682539679,9.0,36.439184630314074,3.0
subject-01,1,34,0.69701099395752,bear,bear,0,0_bear_00_bear-0026-sketch-31.png,True,-0.13004164980715952,0.1920085251331329,1.0,-0.02680778645793747,2.4318790435791016,1.0,-1.344458971871341,25.58645126223564,9.0,8.75,7.0,17.476264687685784,9.0
subject-05,1,488,0.611377000808716,bear,bear,0,0_bear_00_bear-0026-sketch-31.png,True,-0.8618503708838833,0.1920085251331329,1.0,-0.02680778645793747,2.4318790435791016,1.0,-1.344458971871341,25.58645126223564,9.0,8.75,7.0,17.476264687685784,9.0
subject-02,1,522,0.865295886993408,bear,bear,0,0_bear_00_bear-0026-sketch-31.png,True,0.8601105064177932,0.1920085251331329,1.0,-0.02680778645793747,2.4318790435791016,1.0,-1.344458971871341,25.58645126223564,9.0,8.75,7.0,17.476264687685784,9.0
subject-06,1,245,0.653491020202637,bear,bear,0,0_bear_00_bear-0026-sketch-31.png,True,-0.6785807641727324,0.1920085251331329,1.0,-0.02680778645793747,2.4318790435791016,1.0,-1.344458971871341,25.58645126223564,9.0,8.75,7.0,17.476264687685784,9.0
subject-07,1,515,0.603924036026001,bear,bear,0,0_bear_00_bear-0026-sketch-31.png,True,-0.7690388899615451,0.1920085251331329,1.0,-0.02680778645793747,2.4318790435791016,1.0,-1.344458971871341,25.58645126223564,9.0,8.75,7.0,17.476264687685784,9.0
subject-03,1,459,1.2741539478302,bear,bear,0,0_bear_00_bear-0026-sketch-31.png,True,2.0272088543424167,0.1920085251331329,1.0,-0.02680778645793747,2.4318790435791016,1.0,-1.344458971871341,25.58645126223564,9.0,8.75,7.0,17.476264687685784,9.0
subject-04,1,359,0.823096036911011,elephant,bear,0,0_bear_00_bear-0026-sketch-31.png,False,0.20531957243215018,0.1920085251331329,1.0,-0.02680778645793747,2.4318790435791016,1.0,-1.344458971871341,25.58645126223564,9.0,8.75,7.0,17.476264687685784,9.0
subject-01,1,35,0.713838815689087,car,car,0,0_car_00_car-0151-sketch-7.png,True,-0.037382682549622466,0.0929232537746429,1.0,-0.013157238270859878,2.5891425609588623,0.1428571428571428,-2.801736597942596,25.015701323747635,9.0,3.5578754578754577,8.0,32.042068518095554,8.0
subject-05,1,533,0.774890899658203,car,car,0,0_car_00_car-0151-sketch-7.png,True,-0.1971382575387551,0.0929232537746429,1.0,-0.013157238270859878,2.5891425609588623,0.1428571428571428,-2.801736597942596,25.015701323747635,9.0,3.5578754578754577,8.0,32.042068518095554,8.0
subject-02,1,64,0.714375972747803,car,car,0,0_car_00_car-0151-sketch-7.png,True,-0.08296383239097271,0.0929232537746429,1.0,-0.013157238270859878,2.5891425609588623,0.1428571428571428,-2.801736597942596,25.015701323747635,9.0,3.5578754578754577,8.0,32.042068518095554,8.0
subject-06,1,764,0.590802907943726,car,car,0,0_car_00_car-0151-sketch-7.png,True,-0.9675029506824745,0.0929232537746429,1.0,-0.013157238270859878,2.5891425609588623,0.1428571428571428,-2.801736597942596,25.015701323747635,9.0,3.5578754578754577,8.0,32.042068518095554,8.0
subject-07,1,694,0.52065896987915,car,car,0,0_car_00_car-0151-sketch-7.png,True,-1.1413690011896105,0.0929232537746429,1.0,-0.013157238270859878,2.5891425609588623,0.1428571428571428,-2.801736597942596,25.015701323747635,9.0,3.5578754578754577,8.0,32.042068518095554,8.0
subject-03,1,3,0.794683933258057,car,car,0,0_car_00_car-0151-sketch-7.png,True,-0.7726218530111625,0.0929232537746429,1.0,-0.013157238270859878,2.5891425609588623,0.1428571428571428,-2.801736597942596,25.015701323747635,9.0,3.5578754578754577,8.0,32.042068518095554,8.0
subject-04,1,443,0.673175811767578,car,car,0,0_car_00_car-0151-sketch-7.png,True,-0.6836397628357367,0.0929232537746429,1.0,-0.013157238270859878,2.5891425609588623,0.1428571428571428,-2.801736597942596,25.015701323747635,9.0,3.5578754578754577,8.0,32.042068518095554,8.0
subject-01,1,36,0.748553991317749,bicycle,bicycle,0,0_bicycle_00_bicycle-0099-sketch-6.png,True,0.15376934967578046,1.2266960144042969,1.0,-0.5472720639664254,2.538090229034424,1.0,-1.6297297527387378,27.873419284820557,10.0,7.866666666666666,8.0,21.835679258435057,8.0
subject-05,1,296,0.71347188949585,bicycle,bicycle,0,0_bicycle_00_bicycle-0099-sketch-6.png,True,-0.4468170942116147,1.2266960144042969,1.0,-0.5472720639664254,2.538090229034424,1.0,-1.6297297527387378,27.873419284820557,10.0,7.866666666666666,8.0,21.835679258435057,8.0
subject-02,1,102,0.569424152374268,bicycle,bicycle,0,0_bicycle_00_bicycle-0099-sketch-6.png,True,-0.9887445097867614,1.2266960144042969,1.0,-0.5472720639664254,2.538090229034424,1.0,-1.6297297527387378,27.873419284820557,10.0,7.866666666666666,8.0,21.835679258435057,8.0
subject-06,1,448,0.824687957763672,bicycle,bicycle,0,0_bicycle_00_bicycle-0099-sketch-6.png,True,0.1104459227311305,1.2266960144042969,1.0,-0.5472720639664254,2.538090229034424,1.0,-1.6297297527387378,27.873419284820557,10.0,7.866666666666666,8.0,21.835679258435057,8.0
subject-07,1,230,0.681453943252563,bicycle,bicycle,0,0_bicycle_00_bicycle-0099-sketch-6.png,True,-0.4223542559728273,1.2266960144042969,1.0,-0.5472720639664254,2.538090229034424,1.0,-1.6297297527387378,27.873419284820557,10.0,7.866666666666666,8.0,21.835679258435057,8.0
subject-03,1,212,0.722795009613037,bicycle,bicycle,0,0_bicycle_00_bicycle-0099-sketch-6.png,True,-1.1924120584936344,1.2266960144042969,1.0,-0.5472720639664254,2.538090229034424,1.0,-1.6297297527387378,27.873419284820557,10.0,7.866666666666666,8.0,21.835679258435057,8.0
subject-04,1,315,0.703042030334473,bicycle,bicycle,0,0_bicycle_00_bicycle-0099-sketch-6.png,True,-0.5065465535720007,1.2266960144042969,1.0,-0.5472720639664254,2.538090229034424,1.0,-1.6297297527387378,27.873419284820557,10.0,7.866666666666666,8.0,21.835679258435057,8.0
subject-01,1,37,0.969815969467163,elephant,elephant,0,0_elephant_00_elephant-0101-sketch-8.png,True,1.3721032918654112,1.5050355195999146,0.2,-3.6333888412107402,2.586024761199951,0.1,-3.160687869032613,28.478158354759216,10.0,1.127020202020202,1.0,38.95992553989703,1.0
subject-05,1,176,1.17404699325562,elephant,elephant,0,0_elephant_00_elephant-0101-sketch-8.png,True,1.4254998936923702,1.5050355195999146,0.2,-3.6333888412107402,2.586024761199951,0.1,-3.160687869032613,28.478158354759216,10.0,1.127020202020202,1.0,38.95992553989703,1.0
subject-02,1,423,0.67591118812561,elephant,elephant,0,0_elephant_00_elephant-0101-sketch-8.png,True,-0.3233241023150763,1.5050355195999146,0.2,-3.6333888412107402,2.586024761199951,0.1,-3.160687869032613,28.478158354759216,10.0,1.127020202020202,1.0,38.95992553989703,1.0
subject-06,1,570,0.913419008255005,elephant,elephant,0,0_elephant_00_elephant-0101-sketch-8.png,True,0.5193969693566904,1.5050355195999146,0.2,-3.6333888412107402,2.586024761199951,0.1,-3.160687869032613,28.478158354759216,10.0,1.127020202020202,1.0,38.95992553989703,1.0
subject-07,1,258,0.705931901931763,elephant,elephant,0,0_elephant_00_elephant-0101-sketch-8.png,True,-0.31289801580616766,1.5050355195999146,0.2,-3.6333888412107402,2.586024761199951,0.1,-3.160687869032613,28.478158354759216,10.0,1.127020202020202,1.0,38.95992553989703,1.0
subject-03,1,574,1.15735387802124,elephant,elephant,0,0_elephant_00_elephant-0101-sketch-8.png,True,1.3451632370289217,1.5050355195999146,0.2,-3.6333888412107402,2.586024761199951,0.1,-3.160687869032613,28.478158354759216,10.0,1.127020202020202,1.0,38.95992553989703,1.0
subject-04,1,542,0.838781833648682,elephant,elephant,0,0_elephant_00_elephant-0101-sketch-8.png,True,0.2983292742767582,1.5050355195999146,0.2,-3.6333888412107402,2.586024761199951,0.1,-3.160687869032613,28.478158354759216,10.0,1.127020202020202,1.0,38.95992553989703,1.0
subject-01,1,38,0.533783197402954,boat,boat,0,0_boat_00_boat-0010-sketch-17.png,True,-1.028822210816883,0.2117694914340973,1.0,-0.032121623736649424,2.4428293704986572,0.25,-2.549309662986826,27.115792900323868,10.0,3.227777777777778,9.0,27.28915755603109,9.0
subject-05,1,709,1.39583802223206,boat,boat,0,0_boat_00_boat-0010-sketch-17.png,True,2.3271185611527154,0.2117694914340973,1.0,-0.032121623736649424,2.4428293704986572,0.25,-2.549309662986826,27.115792900323868,10.0,3.227777777777778,9.0,27.28915755603109,9.0
subject-02,1,21,0.510345935821533,boat,boat,0,0_boat_00_boat-0010-sketch-17.png,True,-1.3579148097565958,0.2117694914340973,1.0,-0.032121623736649424,2.4428293704986572,0.25,-2.549309662986826,27.115792900323868,10.0,3.227777777777778,9.0,27.28915755603109,9.0
subject-06,1,773,0.873398065567017,boat,boat,0,0_boat_00_boat-0010-sketch-17.png,True,0.3349451195412432,0.2117694914340973,1.0,-0.032121623736649424,2.4428293704986572,0.25,-2.549309662986826,27.115792900323868,10.0,3.227777777777778,9.0,27.28915755603109,9.0
subject-07,1,374,0.638120174407959,boat,boat,0,0_boat_00_boat-0010-sketch-17.png,True,-0.6161265991711985,0.2117694914340973,1.0,-0.032121623736649424,2.4428293704986572,0.25,-2.549309662986826,27.115792900323868,10.0,3.227777777777778,9.0,27.28915755603109,9.0
subject-03,1,169,0.900812149047852,boat,boat,0,0_boat_00_boat-0010-sketch-17.png,True,-0.15289376062968138,0.2117694914340973,1.0,-0.032121623736649424,2.4428293704986572,0.25,-2.549309662986826,27.115792900323868,10.0,3.227777777777778,9.0,27.28915755603109,9.0
subject-04,1,26,0.577020168304443,boat,boat,0,0_boat_00_boat-0010-sketch-17.png,True,-1.253799371477364,0.2117694914340973,1.0,-0.032121623736649424,2.4428293704986572,0.25,-2.549309662986826,27.115792900323868,10.0,3.227777777777778,9.0,27.28915755603109,9.0
subject-01,1,39,0.997997999191284,dog,dog,0,0_dog_00_dog-0607-sketch-8.png,True,1.527281889019179,0.5468946695327759,1.0,-0.09633316094763399,2.543542861938477,0.1666666666666666,-2.738126285262974,27.579627752304077,10.0,3.675,8.0,29.125597942610135,9.0
subject-05,1,572,0.925403833389282,dog,dog,0,0_dog_00_dog-0607-sketch-8.png,True,0.4147226972186982,0.5468946695327759,1.0,-0.09633316094763399,2.543542861938477,0.1666666666666666,-2.738126285262974,27.579627752304077,10.0,3.675,8.0,29.125597942610135,9.0
subject-02,1,735,0.677120923995972,dog,dog,0,0_dog_00_dog-0607-sketch-8.png,True,-0.3157646568848447,0.5468946695327759,1.0,-0.09633316094763399,2.543542861938477,0.1666666666666666,-2.738126285262974,27.579627752304077,10.0,3.675,8.0,29.125597942610135,9.0
subject-06,1,746,0.911977052688599,dog,dog,0,0_dog_00_dog-0607-sketch-8.png,True,0.5127511645926986,0.5468946695327759,1.0,-0.09633316094763399,2.543542861938477,0.1666666666666666,-2.738126285262974,27.579627752304077,10.0,3.675,8.0,29.125597942610135,9.0
subject-07,1,630,0.886642932891846,dog,dog,0,0_dog_00_dog-0607-sketch-8.png,True,0.4951738608058064,0.5468946695327759,1.0,-0.09633316094763399,2.543542861938477,0.1666666666666666,-2.738126285262974,27.579627752304077,10.0,3.675,8.0,29.125597942610135,9.0
subject-03,1,158,0.787301063537598,dog,dog,0,0_dog_00_dog-0607-sketch-8.png,True,-0.8157335903951523,0.5468946695327759,1.0,-0.09633316094763399,2.543542861938477,0.1666666666666666,-2.738126285262974,27.579627752304077,10.0,3.675,8.0,29.125597942610135,9.0
subject-04,1,36,0.842802047729492,dog,dog,0,0_dog_00_dog-0607-sketch-8.png,True,0.3221673310398953,0.5468946695327759,1.0,-0.09633316094763399,2.543542861938477,0.1666666666666666,-2.738126285262974,27.579627752304077,10.0,3.675,8.0,29.125597942610135,9.0
subject-01,1,40,0.803601026535034,dog,cat,0,0_cat_00_cat-0233-sketch-35.png,False,0.45687461874662844,1.2635855674743652,0.3333333333333333,-2.933914629894888,2.547703266143799,0.0714285714285714,-3.76351502297135,27.22551202774048,9.0,0.8309274059274057,10.0,41.885470469308885,7.0
subject-05,1,386,0.652379035949707,cat,cat,0,0_cat_00_cat-0233-sketch-35.png,True,-0.6951700481603276,1.2635855674743652,0.3333333333333333,-2.933914629894888,2.547703266143799,0.0714285714285714,-3.76351502297135,27.22551202774048,9.0,0.8309274059274057,10.0,41.885470469308885,7.0
subject-02,1,444,0.587877035140991,cat,cat,0,0_cat_00_cat-0233-sketch-35.png,True,-0.8734354049457499,1.2635855674743652,0.3333333333333333,-2.933914629894888,2.547703266143799,0.0714285714285714,-3.76351502297135,27.22551202774048,9.0,0.8309274059274057,10.0,41.885470469308885,7.0
subject-06,1,531,0.754750967025757,dog,cat,0,0_cat_00_cat-0233-sketch-35.png,False,-0.21188549791294367,1.2635855674743652,0.3333333333333333,-2.933914629894888,2.547703266143799,0.0714285714285714,-3.76351502297135,27.22551202774048,9.0,0.8309274059274057,10.0,41.885470469308885,7.0
subject-07,1,737,0.608614206314087,cat,cat,0,0_cat_00_cat-0233-sketch-35.png,True,-0.7480662095103967,1.2635855674743652,0.3333333333333333,-2.933914629894888,2.547703266143799,0.0714285714285714,-3.76351502297135,27.22551202774048,9.0,0.8309274059274057,10.0,41.885470469308885,7.0
subject-03,1,236,1.23632597923279,oven,cat,0,0_cat_00_cat-0233-sketch-35.png,False,1.806315149090909,1.2635855674743652,0.3333333333333333,-2.933914629894888,2.547703266143799,0.0714285714285714,-3.76351502297135,27.22551202774048,9.0,0.8309274059274057,10.0,41.885470469308885,7.0
subject-04,1,228,0.889611959457397,dog,cat,0,0_cat_00_cat-0233-sketch-35.png,False,0.5997290007464039,1.2635855674743652,0.3333333333333333,-2.933914629894888,2.547703266143799,0.0714285714285714,-3.76351502297135,27.22551202774048,9.0,0.8309274059274057,10.0,41.885470469308885,7.0
subject-01,1,41,0.77295994758606,dog,dog,0,0_dog_00_dog-2454-sketch-21.png,True,0.28815576871610854,1.7293484210968018,1.0,-0.5828396838399811,2.5327165126800537,0.2,-2.4941804905619174,27.335917234420776,9.0,3.5,9.0,27.581441354002166,9.0
subject-05,1,748,,na,dog,0,0_dog_00_dog-2454-sketch-21.png,False,,1.7293484210968018,1.0,-0.5828396838399811,2.5327165126800537,0.2,-2.4941804905619174,27.335917234420776,9.0,3.5,9.0,27.581441354002166,9.0
subject-02,1,235,0.79978609085083,dog,dog,0,0_dog_00_dog-2454-sketch-21.png,True,0.45075029712084197,1.7293484210968018,1.0,-0.5828396838399811,2.5327165126800537,0.2,-2.4941804905619174,27.335917234420776,9.0,3.5,9.0,27.581441354002166,9.0
subject-06,1,601,1.07135105133057,dog,dog,0,0_dog_00_dog-2454-sketch-21.png,True,1.2472873071113857,1.7293484210968018,1.0,-0.5828396838399811,2.5327165126800537,0.2,-2.4941804905619174,27.335917234420776,9.0,3.5,9.0,27.581441354002166,9.0
subject-07,1,269,0.681852102279663,dog,dog,0,0_dog_00_dog-2454-sketch-21.png,True,-0.4205738383054093,1.7293484210968018,1.0,-0.5828396838399811,2.5327165126800537,0.2,-2.4941804905619174,27.335917234420776,9.0,3.5,9.0,27.581441354002166,9.0
subject-03,1,676,1.14985203742981,dog,dog,0,0_dog_00_dog-2454-sketch-21.png,True,1.301356777790172,1.7293484210968018,1.0,-0.5828396838399811,2.5327165126800537,0.2,-2.4941804905619174,27.335917234420776,9.0,3.5,9.0,27.581441354002166,9.0
subject-04,1,87,0.850988864898682,dog,dog,0,0_dog_00_dog-2454-sketch-21.png,True,0.37071146537347205,1.7293484210968018,1.0,-0.5828396838399811,2.5327165126800537,0.2,-2.4941804905619174,27.335917234420776,9.0,3.5,9.0,27.581441354002166,9.0
subject-01,1,42,0.846967935562134,knife,knife,0,0_knife_00_knife-0030-sketch-35.png,True,0.6956656558577907,0.5071695446968079,1.0,-0.09660734429635315,2.508819103240967,0.5,-2.3087973312478764,26.768819391727448,10.0,6.087301587301587,7.0,23.145658249720302,5.0
subject-05,1,39,0.808457136154175,knife,knife,0,0_knife_00_knife-0030-sketch-35.png,True,-0.060685734815791904,0.5071695446968079,1.0,-0.09660734429635315,2.508819103240967,0.5,-2.3087973312478764,26.768819391727448,10.0,6.087301587301587,7.0,23.145658249720302,5.0
subject-02,1,251,0.72296404838562,knife,knife,0,0_knife_00_knife-0030-sketch-35.png,True,-0.02929832512999278,0.5071695446968079,1.0,-0.09660734429635315,2.508819103240967,0.5,-2.3087973312478764,26.768819391727448,10.0,6.087301587301587,7.0,23.145658249720302,5.0
subject-06,1,98,1.22979092597961,knife,knife,0,0_knife_00_knife-0030-sketch-35.png,True,1.9775181812660465,0.5071695446968079,1.0,-0.09660734429635315,2.508819103240967,0.5,-2.3087973312478764,26.768819391727448,10.0,6.087301587301587,7.0,23.145658249720302,5.0
subject-07,1,790,0.548872947692871,knife,knife,0,0_knife_00_knife-0030-sketch-35.png,True,-1.0152066862634221,0.5071695446968079,1.0,-0.09660734429635315,2.508819103240967,0.5,-2.3087973312478764,26.768819391727448,10.0,6.087301587301587,7.0,23.145658249720302,5.0
subject-03,1,283,0.821307182312012,cat,knife,0,0_knife_00_knife-0030-sketch-35.png,False,-0.6171573026423512,0.5071695446968079,1.0,-0.09660734429635315,2.508819103240967,0.5,-2.3087973312478764,26.768819391727448,10.0,6.087301587301587,7.0,23.145658249720302,5.0
subject-04,1,562,1.02693605422974,knife,knife,0,0_knife_00_knife-0030-sketch-35.png,True,1.4139989625763922,0.5071695446968079,1.0,-0.09660734429635315,2.508819103240967,0.5,-2.3087973312478764,26.768819391727448,10.0,6.087301587301587,7.0,23.145658249720302,5.0
subject-01,1,43,0.550930023193359,clock,clock,0,0_clock_00_clock-0137-sketch-4.png,True,-0.9344067127905747,0.6253710985183716,1.0,-0.12108450460982373,2.4662485122680664,0.3333333333333333,-2.3936000493108622,23.64340642094612,9.0,5.21991341991342,6.0,26.067385688541716,6.0
subject-05,1,118,0.861445188522339,clock,clock,0,0_clock_00_clock-0137-sketch-4.png,True,0.15471980880778669,0.6253710985183716,1.0,-0.12108450460982373,2.4662485122680664,0.3333333333333333,-2.3936000493108622,23.64340642094612,9.0,5.21991341991342,6.0,26.067385688541716,6.0
subject-02,1,476,0.689454078674316,clock,clock,0,0_clock_00_clock-0137-sketch-4.png,True,-0.23869675135464943,0.6253710985183716,1.0,-0.12108450460982373,2.4662485122680664,0.3333333333333333,-2.3936000493108622,23.64340642094612,9.0,5.21991341991342,6.0,26.067385688541716,6.0
subject-06,1,111,0.673353910446167,clock,clock,0,0_clock_00_clock-0137-sketch-4.png,True,-0.587035023317409,0.6253710985183716,1.0,-0.12108450460982373,2.4662485122680664,0.3333333333333333,-2.3936000493108622,23.64340642094612,9.0,5.21991341991342,6.0,26.067385688541716,6.0
subject-07,1,399,0.813411951065063,clock,clock,0,0_clock_00_clock-0137-sketch-4.png,True,0.16771240703336243,0.6253710985183716,1.0,-0.12108450460982373,2.4662485122680664,0.3333333333333333,-2.3936000493108622,23.64340642094612,9.0,5.21991341991342,6.0,26.067385688541716,6.0
subject-03,1,619,0.655025959014893,clock,clock,0,0_clock_00_clock-0137-sketch-4.png,True,-1.588144561270057,0.6253710985183716,1.0,-0.12108450460982373,2.4662485122680664,0.3333333333333333,-2.3936000493108622,23.64340642094612,9.0,5.21991341991342,6.0,26.067385688541716,6.0
subject-04,1,126,0.809903860092163,clock,clock,0,0_clock_00_clock-0137-sketch-4.png,True,0.12709591231958242,0.6253710985183716,1.0,-0.12108450460982373,2.4662485122680664,0.3333333333333333,-2.3936000493108622,23.64340642094612,9.0,5.21991341991342,6.0,26.067385688541716,6.0
subject-01,1,44,1.00850391387939,car,car,0,0_car_00_car-0030-sketch-35.png,True,1.5851305648979823,0.6687120795249939,0.3333333333333333,-3.4254920401482165,2.5289857387542725,0.125,-3.1087020960100635,26.99763721227646,9.0,1.3928571428571426,8.0,39.929907235936525,0.0
subject-05,1,237,0.808694124221802,car,car,0,0_car_00_car-0030-sketch-35.png,True,-0.05972233757324377,0.6687120795249939,0.3333333333333333,-3.4254920401482165,2.5289857387542725,0.125,-3.1087020960100635,26.99763721227646,9.0,1.3928571428571426,8.0,39.929907235936525,0.0
subject-02,1,364,0.726774930953979,car,car,0,0_car_00_car-0030-sketch-35.png,True,-0.005484731169262611,0.6687120795249939,0.3333333333333333,-3.4254920401482165,2.5289857387542725,0.125,-3.1087020960100635,26.99763721227646,9.0,1.3928571428571426,8.0,39.929907235936525,0.0
subject-06,1,786,0.840640783309937,car,car,0,0_car_00_car-0030-sketch-35.png,True,0.18397063214970402,0.6687120795249939,0.3333333333333333,-3.4254920401482165,2.5289857387542725,0.125,-3.1087020960100635,26.99763721227646,9.0,1.3928571428571426,8.0,39.929907235936525,0.0
subject-07,1,713,0.802978038787842,car,car,0,0_car_00_car-0030-sketch-35.png,True,0.12105586908178,0.6687120795249939,0.3333333333333333,-3.4254920401482165,2.5289857387542725,0.125,-3.1087020960100635,26.99763721227646,9.0,1.3928571428571426,8.0,39.929907235936525,0.0
subject-03,1,623,0.914077997207642,car,car,0,0_car_00_car-0030-sketch-35.png,True,-0.0754287932531207,0.6687120795249939,0.3333333333333333,-3.4254920401482165,2.5289857387542725,0.125,-3.1087020960100635,26.99763721227646,9.0,1.3928571428571426,8.0,39.929907235936525,0.0
subject-04,1,704,0.752317905426025,car,car,0,0_car_00_car-0030-sketch-35.png,True,-0.21436283303515738,0.6687120795249939,0.3333333333333333,-3.4254920401482165,2.5289857387542725,0.125,-3.1087020960100635,26.99763721227646,9.0,1.3928571428571426,8.0,39.929907235936525,0.0
subject-01,1,45,0.696192979812622,bottle,bottle,0,0_bottle_00_bottle-0019-sketch-25.png,True,-0.13454587780989158,0.9130542278289796,0.3333333333333333,-3.1853863292377174,2.610095262527466,0.0909090909090909,-2.9270020744955167,28.32492232322693,10.0,0.8535825285825285,9.0,38.163773662450275,0.0
subject-05,1,569,0.782238006591797,bottle,bottle,0,0_bottle_00_bottle-0019-sketch-25.png,True,-0.16727100459472674,0.9130542278289796,0.3333333333333333,-3.1853863292377174,2.610095262527466,0.0909090909090909,-2.9270020744955167,28.32492232322693,10.0,0.8535825285825285,9.0,38.163773662450275,0.0
subject-02,1,77,1.06601500511169,bottle,bottle,0,0_bottle_00_bottle-0019-sketch-25.png,True,2.114372083174485,0.9130542278289796,0.3333333333333333,-3.1853863292377174,2.610095262527466,0.0909090909090909,-2.9270020744955167,28.32492232322693,10.0,0.8535825285825285,9.0,38.163773662450275,0.0
subject-06,1,296,0.699832916259766,bottle,bottle,0,0_bottle_00_bottle-0019-sketch-25.png,True,-0.46499637865904003,0.9130542278289796,0.3333333333333333,-3.1853863292377174,2.610095262527466,0.0909090909090909,-2.9270020744955167,28.32492232322693,10.0,0.8535825285825285,9.0,38.163773662450275,0.0
subject-07,1,90,0.832322120666504,bottle,bottle,0,0_bottle_00_bottle-0019-sketch-25.png,True,0.25227158505201075,0.9130542278289796,0.3333333333333333,-3.1853863292377174,2.610095262527466,0.0909090909090909,-2.9270020744955167,28.32492232322693,10.0,0.8535825285825285,9.0,38.163773662450275,0.0
subject-03,1,257,0.846522092819214,bottle,bottle,0,0_bottle_00_bottle-0019-sketch-25.png,True,-0.4699166440492705,0.9130542278289796,0.3333333333333333,-3.1853863292377174,2.610095262527466,0.0909090909090909,-2.9270020744955167,28.32492232322693,10.0,0.8535825285825285,9.0,38.163773662450275,0.0
subject-04,1,271,0.703504085540771,bottle,bottle,0,0_bottle_00_bottle-0019-sketch-25.png,True,-0.5038067745418211,0.9130542278289796,0.3333333333333333,-3.1853863292377174,2.610095262527466,0.0909090909090909,-2.9270020744955167,28.32492232322693,10.0,0.8535825285825285,9.0,38.163773662450275,0.0
subject-01,1,46,0.800153017044067,chair,chair,0,0_chair_00_chair-0014-sketch-20.png,True,0.4378888579260312,0.2101567089557647,1.0,-0.03459382994549509,2.4709291458129883,0.1111111111111111,-3.1220178901004245,26.857574492692947,10.0,4.516666666666667,7.0,27.045421328704904,6.0
subject-05,1,274,0.639452934265137,chair,chair,0,0_chair_00_chair-0014-sketch-20.png,True,-0.7477168740174586,0.2101567089557647,1.0,-0.03459382994549509,2.4709291458129883,0.1111111111111111,-3.1220178901004245,26.857574492692947,10.0,4.516666666666667,7.0,27.045421328704904,6.0
subject-02,1,356,0.647968053817749,chair,chair,0,0_chair_00_chair-0014-sketch-20.png,True,-0.49793626694130927,0.2101567089557647,1.0,-0.03459382994549509,2.4709291458129883,0.1111111111111111,-3.1220178901004245,26.857574492692947,10.0,4.516666666666667,7.0,27.045421328704904,6.0
subject-06,1,628,0.61843204498291,chair,chair,0,0_chair_00_chair-0014-sketch-20.png,True,-0.8401634855575916,0.2101567089557647,1.0,-0.03459382994549509,2.4709291458129883,0.1111111111111111,-3.1220178901004245,26.857574492692947,10.0,4.516666666666667,7.0,27.045421328704904,6.0
subject-07,1,648,0.575559139251709,chair,chair,0,0_chair_00_chair-0014-sketch-20.png,True,-0.8958760578119683,0.2101567089557647,1.0,-0.03459382994549509,2.4709291458129883,0.1111111111111111,-3.1220178901004245,26.857574492692947,10.0,4.516666666666667,7.0,27.045421328704904,6.0
subject-03,1,516,0.820268154144287,chair,chair,0,0_chair_00_chair-0014-sketch-20.png,True,-0.6232246329891674,0.2101567089557647,1.0,-0.03459382994549509,2.4709291458129883,0.1111111111111111,-3.1220178901004245,26.857574492692947,10.0,4.516666666666667,7.0,27.045421328704904,6.0
subject-04,1,133,0.686410903930664,chair,chair,0,0_chair_00_chair-0014-sketch-20.png,True,-0.6051616340825965,0.2101567089557647,1.0,-0.03459382994549509,2.4709291458129883,0.1111111111111111,-3.1220178901004245,26.857574492692947,10.0,4.516666666666667,7.0,27.045421328704904,6.0
subject-01,1,47,0.71805214881897,clock,clock,0,0_clock_00_clock-0073-sketch-28.png,True,-0.014182823247894378,0.2581559419631958,1.0,-0.041025624718029396,2.530857801437378,0.1666666666666666,-2.731743763505668,26.953696131706238,10.0,2.5408119658119657,9.0,34.06600381752732,9.0
subject-05,1,269,0.624469041824341,clock,clock,0,0_clock_00_clock-0073-sketch-28.png,True,-0.8086289731144636,0.2581559419631958,1.0,-0.041025624718029396,2.530857801437378,0.1666666666666666,-2.731743763505668,26.953696131706238,10.0,2.5408119658119657,9.0,34.06600381752732,9.0
subject-02,1,401,0.781988143920898,clock,clock,0,0_clock_00_clock-0073-sketch-28.png,True,0.3395337812819596,0.2581559419631958,1.0,-0.041025624718029396,2.530857801437378,0.1666666666666666,-2.731743763505668,26.953696131706238,10.0,2.5408119658119657,9.0,34.06600381752732,9.0
subject-06,1,210,0.608187198638916,clock,clock,0,0_clock_00_clock-0073-sketch-28.png,True,-0.8873807856086445,0.2581559419631958,1.0,-0.041025624718029396,2.530857801437378,0.1666666666666666,-2.731743763505668,26.953696131706238,10.0,2.5408119658119657,9.0,34.06600381752732,9.0
subject-07,1,527,0.653747081756592,clock,clock,0,0_clock_00_clock-0073-sketch-28.png,True,-0.5462489371393735,0.2581559419631958,1.0,-0.041025624718029396,2.530857801437378,0.1666666666666666,-2.731743763505668,26.953696131706238,10.0,2.5408119658119657,9.0,34.06600381752732,9.0
subject-03,1,241,0.685209035873413,clock,clock,0,0_clock_00_clock-0073-sketch-28.png,True,-1.4118926521568083,0.2581559419631958,1.0,-0.041025624718029396,2.530857801437378,0.1666666666666666,-2.731743763505668,26.953696131706238,10.0,2.5408119658119657,9.0,34.06600381752732,9.0
subject-04,1,467,0.532670021057129,clock,clock,0,0_clock_00_clock-0073-sketch-28.png,True,-1.5167757469349497,0.2581559419631958,1.0,-0.041025624718029396,2.530857801437378,0.1666666666666666,-2.731743763505668,26.953696131706238,10.0,2.5408119658119657,9.0,34.06600381752732,9.0
subject-01,1,48,0.742405891418457,boat,boat,0,0_boat_00_boat-0128-sketch-31.png,True,0.11991609187736224,2.5359649658203125,0.125,-3.1197738987992927,2.560842990875244,1.0,-1.868557644398973,29.442021131515503,5.0,2.7539682539682535,4.0,31.730300609010637,0.0
subject-05,1,614,0.647573947906494,boat,boat,0,0_boat_00_boat-0128-sketch-31.png,True,-0.7147035572411279,2.5359649658203125,0.125,-3.1197738987992927,2.560842990875244,1.0,-1.868557644398973,29.442021131515503,5.0,2.7539682539682535,4.0,31.730300609010637,0.0
subject-02,1,13,0.593961954116821,boat,boat,0,0_boat_00_boat-0128-sketch-31.png,True,-0.8354117221963883,2.5359649658203125,0.125,-3.1197738987992927,2.560842990875244,1.0,-1.868557644398973,29.442021131515503,5.0,2.7539682539682535,4.0,31.730300609010637,0.0
subject-06,1,750,1.26751899719238,boat,boat,0,0_boat_00_boat-0128-sketch-31.png,True,2.151402454293254,2.5359649658203125,0.125,-3.1197738987992927,2.560842990875244,1.0,-1.868557644398973,29.442021131515503,5.0,2.7539682539682535,4.0,31.730300609010637,0.0
subject-07,1,455,0.512963056564331,boat,boat,0,0_boat_00_boat-0128-sketch-31.png,True,-1.1757822358522054,2.5359649658203125,0.125,-3.1197738987992927,2.560842990875244,1.0,-1.868557644398973,29.442021131515503,5.0,2.7539682539682535,4.0,31.730300609010637,0.0
subject-03,1,317,0.987029075622559,car,boat,0,0_boat_00_boat-0128-sketch-31.png,False,0.3505637887082505,2.5359649658203125,0.125,-3.1197738987992927,2.560842990875244,1.0,-1.868557644398973,29.442021131515503,5.0,2.7539682539682535,4.0,31.730300609010637,0.0
subject-04,1,111,0.705214977264404,boat,boat,0,0_boat_00_boat-0128-sketch-31.png,True,-0.49366195807092167,2.5359649658203125,0.125,-3.1197738987992927,2.560842990875244,1.0,-1.868557644398973,29.442021131515503,5.0,2.7539682539682535,4.0,31.730300609010637,0.0
subject-01,1,49,0.705662965774536,car,truck,0,0_truck_00_truck-0135-sketch-38.png,False,-0.08240133211814105,1.8602432012557983,0.1666666666666666,-3.5355320948941857,2.5439462661743164,0.1666666666666666,-2.6567163428513245,28.77466070652008,10.0,2.2579365079365075,0.0,34.155922241735226,0.0
subject-05,1,736,0.768992900848389,truck,truck,0,0_truck_00_truck-0135-sketch-38.png,True,-0.22111463680047938,1.8602432012557983,0.1666666666666666,-3.5355320948941857,2.5439462661743164,0.1666666666666666,-2.6567163428513245,28.77466070652008,10.0,2.2579365079365075,0.0,34.155922241735226,0.0
subject-02,1,400,0.989850044250488,truck,truck,0,0_truck_00_truck-0135-sketch-38.png,True,1.6384294584809695,1.8602432012557983,0.1666666666666666,-3.5355320948941857,2.5439462661743164,0.1666666666666666,-2.6567163428513245,28.77466070652008,10.0,2.2579365079365075,0.0,34.155922241735226,0.0
subject-06,1,592,0.769223928451538,car,truck,0,0_truck_00_truck-0135-sketch-38.png,False,-0.14518130935583162,1.8602432012557983,0.1666666666666666,-3.5355320948941857,2.5439462661743164,0.1666666666666666,-2.6567163428513245,28.77466070652008,10.0,2.2579365079365075,0.0,34.155922241735226,0.0
subject-07,1,625,0.961292028427124,truck,truck,0,0_truck_00_truck-0135-sketch-38.png,True,0.8289765866056665,1.8602432012557983,0.1666666666666666,-3.5355320948941857,2.5439462661743164,0.1666666666666666,-2.6567163428513245,28.77466070652008,10.0,2.2579365079365075,0.0,34.155922241735226,0.0
subject-03,1,479,0.970103979110718,car,truck,0,0_truck_00_truck-0135-sketch-38.png,False,0.2517309034420846,1.8602432012557983,0.1666666666666666,-3.5355320948941857,2.5439462661743164,0.1666666666666666,-2.6567163428513245,28.77466070652008,10.0,2.2579365079365075,0.0,34.155922241735226,0.0
subject-04,1,457,0.78851580619812,car,truck,0,0_truck_00_truck-0135-sketch-38.png,False,0.0002743967159886287,1.8602432012557983,0.1666666666666666,-3.5355320948941857,2.5439462661743164,0.1666666666666666,-2.6567163428513245,28.77466070652008,10.0,2.2579365079365075,0.0,34.155922241735226,0.0
subject-01,1,50,0.585545063018799,car,car,0,0_car_00_car-0112-sketch-17.png,True,-0.7438060579365311,0.1695394814014434,1.0,-0.02408927674407592,2.5052874088287354,0.1666666666666666,-2.8087099955761015,25.03533247113228,9.0,4.330357142857142,7.0,30.49690035740844,8.0
subject-05,1,769,1.12307405471802,car,car,0,0_car_00_car-0112-sketch-17.png,True,1.2182861342679943,0.1695394814014434,1.0,-0.02408927674407592,2.5052874088287354,0.1666666666666666,-2.8087099955761015,25.03533247113228,9.0,4.330357142857142,7.0,30.49690035740844,8.0
subject-02,1,194,0.655440092086792,car,car,0,0_car_00_car-0112-sketch-17.png,True,-0.45124469820198565,0.1695394814014434,1.0,-0.02408927674407592,2.5052874088287354,0.1666666666666666,-2.8087099955761015,25.03533247113228,9.0,4.330357142857142,7.0,30.49690035740844,8.0
subject-06,1,500,0.568573951721191,car,car,0,0_car_00_car-0112-sketch-17.png,True,-1.0699536132437997,0.1695394814014434,1.0,-0.02408927674407592,2.5052874088287354,0.1666666666666666,-2.8087099955761015,25.03533247113228,9.0,4.330357142857142,7.0,30.49690035740844,8.0
subject-07,1,627,0.602832078933716,car,car,0,0_car_00_car-0112-sketch-17.png,True,-0.773921712067393,0.1695394814014434,1.0,-0.02408927674407592,2.5052874088287354,0.1666666666666666,-2.8087099955761015,25.03533247113228,9.0,4.330357142857142,7.0,30.49690035740844,8.0
subject-03,1,231,0.875149965286255,car,car,0,0_car_00_car-0112-sketch-17.png,True,-0.30274623926191685,0.1695394814014434,1.0,-0.02408927674407592,2.5052874088287354,0.1666666666666666,-2.8087099955761015,25.03533247113228,9.0,4.330357142857142,7.0,30.49690035740844,8.0
subject-04,1,161,0.7798011302948,car,car,0,0_car_00_car-0112-sketch-17.png,True,-0.05139970189664774,0.1695394814014434,1.0,-0.02408927674407592,2.5052874088287354,0.1666666666666666,-2.8087099955761015,25.03533247113228,9.0,4.330357142857142,7.0,30.49690035740844,8.0
subject-01,1,51,0.665243864059448,boat,boat,0,0_boat_00_boat-0197-sketch-48.png,True,-0.3049608696589893,2.2405872344970703,1.0,-1.1640127305300918,2.553572654724121,0.5,-2.035742449133526,30.447296380996704,10.0,3.9928571428571424,10.0,27.65519931299016,10.0
subject-05,1,15,0.758634090423584,boat,boat,0,0_boat_00_boat-0197-sketch-48.png,True,-0.26322498226751423,2.2405872344970703,1.0,-1.1640127305300918,2.553572654724121,0.5,-2.035742449133526,30.447296380996704,10.0,3.9928571428571424,10.0,27.65519931299016,10.0
subject-02,1,273,0.469092130661011,boat,boat,0,0_boat_00_boat-0197-sketch-48.png,True,-1.6157032217072598,2.2405872344970703,1.0,-1.1640127305300918,2.553572654724121,0.5,-2.035742449133526,30.447296380996704,10.0,3.9928571428571424,10.0,27.65519931299016,10.0
subject-06,1,204,0.70514702796936,boat,boat,0,0_boat_00_boat-0197-sketch-48.png,True,-0.44050425855576336,2.2405872344970703,1.0,-1.1640127305300918,2.553572654724121,0.5,-2.035742449133526,30.447296380996704,10.0,3.9928571428571424,10.0,27.65519931299016,10.0
subject-07,1,532,0.746716976165771,boat,boat,0,0_boat_00_boat-0197-sketch-48.png,True,-0.13052247791599092,2.2405872344970703,1.0,-1.1640127305300918,2.553572654724121,0.5,-2.035742449133526,30.447296380996704,10.0,3.9928571428571424,10.0,27.65519931299016,10.0
subject-03,1,243,0.734961032867432,boat,boat,0,0_boat_00_boat-0197-sketch-48.png,True,-1.1213694396461786,2.2405872344970703,1.0,-1.1640127305300918,2.553572654724121,0.5,-2.035742449133526,30.447296380996704,10.0,3.9928571428571424,10.0,27.65519931299016,10.0
subject-04,1,208,0.751015901565552,boat,boat,0,0_boat_00_boat-0197-sketch-48.png,True,-0.22208312884724626,2.2405872344970703,1.0,-1.1640127305300918,2.553572654724121,0.5,-2.035742449133526,30.447296380996704,10.0,3.9928571428571424,10.0,27.65519931299016,10.0
subject-01,1,52,0.707170009613037,knife,knife,0,0_knife_00_knife-0039-sketch-43.png,True,-0.07410310267912908,0.0085534825921058,1.0,-0.0008010495524528628,2.463584899902344,0.2,-2.249541647362635,21.047830965777393,8.0,6.584523809523809,5.0,17.89701490587381,5.0
subject-05,1,325,1.02636003494263,knife,knife,0,0_knife_00_knife-0039-sketch-43.png,True,0.8251270149066636,0.0085534825921058,1.0,-0.0008010495524528628,2.463584899902344,0.2,-2.249541647362635,21.047830965777393,8.0,6.584523809523809,5.0,17.89701490587381,5.0
subject-02,1,447,0.613085031509399,knife,knife,0,0_knife_00_knife-0039-sketch-43.png,True,-0.7159146786276694,0.0085534825921058,1.0,-0.0008010495524528628,2.463584899902344,0.2,-2.249541647362635,21.047830965777393,8.0,6.584523809523809,5.0,17.89701490587381,5.0
subject-06,1,82,0.623059034347534,knife,knife,0,0_knife_00_knife-0039-sketch-43.png,True,-0.8188382320763076,0.0085534825921058,1.0,-0.0008010495524528628,2.463584899902344,0.2,-2.249541647362635,21.047830965777393,8.0,6.584523809523809,5.0,17.89701490587381,5.0
subject-07,1,271,0.741611003875732,knife,knife,0,0_knife_00_knife-0039-sketch-43.png,True,-0.1533544687934708,0.0085534825921058,1.0,-0.0008010495524528628,2.463584899902344,0.2,-2.249541647362635,21.047830965777393,8.0,6.584523809523809,5.0,17.89701490587381,5.0
subject-03,1,18,1.40555310249329,knife,knife,0,0_knife_00_knife-0039-sketch-43.png,True,2.7945047789359796,0.0085534825921058,1.0,-0.0008010495524528628,2.463584899902344,0.2,-2.249541647362635,21.047830965777393,8.0,6.584523809523809,5.0,17.89701490587381,5.0
subject-04,1,81,0.722678899765015,knife,knife,0,0_knife_00_knife-0039-sketch-43.png,True,-0.3901087722185117,0.0085534825921058,1.0,-0.0008010495524528628,2.463584899902344,0.2,-2.249541647362635,21.047830965777393,8.0,6.584523809523809,5.0,17.89701490587381,5.0
