subject_id,Session,trial,rt,object_response,category,condition,item_id,response_correct,rt_zscore,output_entropy,output_rank_correct,output_logprob_correct,midpoint_entropy,midpoint_rank_correct,midpoint_logprob_correct,auc_entropy,layer_biggest_change_entropy,auc_rank_correct,layer_biggest_change_rank_correct,auc_logprob_correct,layer_biggest_change_logprob_correct
subject-01,1,1,1.15696287155151,keyboard,chair,0,0_chair_20_n03376595_3070.png,False,1.0180962828316347,1.6157557964324951,1.0,-0.5929003732053568,2.538558006286621,0.0714285714285714,-3.7186181824559457,29.876922369003296,10.0,2.8968253968253963,10.0,30.96417886218206,10.0
subject-02,1,1097,0.686343908309937,chair,chair,0,0_chair_20_n03376595_3070.png,True,-0.9323045358623464,1.6157557964324951,1.0,-0.5929003732053568,2.538558006286621,0.0714285714285714,-3.7186181824559457,29.876922369003296,10.0,2.8968253968253963,10.0,30.96417886218206,10.0
subject-03,1,480,0.943114995956421,chair,chair,0,0_chair_20_n03376595_3070.png,True,0.0395831171714375,1.6157557964324951,1.0,-0.5929003732053568,2.538558006286621,0.0714285714285714,-3.7186181824559457,29.876922369003296,10.0,2.8968253968253963,10.0,30.96417886218206,10.0
subject-04,1,1177,0.768394947052002,chair,chair,0,0_chair_20_n03376595_3070.png,True,-0.18104055614824197,1.6157557964324951,1.0,-0.5929003732053568,2.538558006286621,0.0714285714285714,-3.7186181824559457,29.876922369003296,10.0,2.8968253968253963,10.0,30.96417886218206,10.0
subject-01,1,2,0.752756118774414,car,car,180,180_car_20_n02814533_29367.png,True,-0.9480407467808324,1.0838037729263306,1.0,-0.43478086886703327,2.5284876823425293,0.0909090909090909,-3.4068481391134235,28.581618666648865,10.0,3.10261544011544,8.0,35.49222561101777,9.0
subject-02,1,1124,0.746771097183228,car,car,180,180_car_20_n02814533_29367.png,True,-0.6875384540505007,1.0838037729263306,1.0,-0.43478086886703327,2.5284876823425293,0.0909090909090909,-3.4068481391134235,28.581618666648865,10.0,3.10261544011544,8.0,35.49222561101777,9.0
subject-03,1,1079,1.01011300086975,car,car,180,180_car_20_n02814533_29367.png,True,0.36356720015720895,1.0838037729263306,1.0,-0.43478086886703327,2.5284876823425293,0.0909090909090909,-3.4068481391134235,28.581618666648865,10.0,3.10261544011544,8.0,35.49222561101777,9.0
subject-04,1,185,1.08721494674683,car,car,180,180_car_20_n02814533_29367.png,True,1.287018928709813,1.0838037729263306,1.0,-0.43478086886703327,2.5284876823425293,0.0909090909090909,-3.4068481391134235,28.581618666648865,10.0,3.10261544011544,8.0,35.49222561101777,9.0
subject-01,1,3,0.856472969055176,car,car,270,270_car_20_n02814533_31083.png,True,-0.44354264393930676,2.452481746673584,0.1666666666666666,-2.8838850579702506,2.5196564197540283,0.0666666666666666,-4.016463323540279,30.887293577194214,10.0,0.3685897435897433,8.0,44.604748528546985,7.0
subject-02,1,678,1.10047507286072,car,car,270,270_car_20_n02814533_31083.png,True,0.7451731756331087,2.452481746673584,0.1666666666666666,-2.8838850579702506,2.5196564197540283,0.0666666666666666,-4.016463323540279,30.887293577194214,10.0,0.3685897435897433,8.0,44.604748528546985,7.0
subject-03,1,1145,0.991118907928467,car,car,270,270_car_20_n02814533_31083.png,True,0.27171694593413387,2.452481746673584,0.1666666666666666,-2.8838850579702506,2.5196564197540283,0.0666666666666666,-4.016463323540279,30.887293577194214,10.0,0.3685897435897433,8.0,44.604748528546985,7.0
subject-04,1,1132,1.12273693084717,car,car,270,270_car_20_n02814533_31083.png,True,1.4505857869037695,2.452481746673584,0.1666666666666666,-2.8838850579702506,2.5196564197540283,0.0666666666666666,-4.016463323540279,30.887293577194214,10.0,0.3685897435897433,8.0,44.604748528546985,7.0
subject-01,1,4,0.968296051025391,car,car,180,180_car_20_n03100240_1703.png,True,0.10038568164280857,1.296266794204712,0.5,-2.34757012944334,2.4962592124938965,0.125,-3.1052794558078403,29.026896476745605,10.0,2.5386904761904763,8.0,37.30887522101228,5.0
subject-02,1,227,0.86363697052002,truck,car,180,180_car_20_n03100240_1703.png,False,-0.21416210728469232,1.296266794204712,0.5,-2.34757012944334,2.4962592124938965,0.125,-3.1052794558078403,29.026896476745605,10.0,2.5386904761904763,8.0,37.30887522101228,5.0
subject-03,1,576,0.818952083587646,car,car,180,180_car_20_n03100240_1703.png,True,-0.5608348707474422,1.296266794204712,0.5,-2.34757012944334,2.4962592124938965,0.125,-3.1052794558078403,29.026896476745605,10.0,2.5386904761904763,8.0,37.30887522101228,5.0
subject-04,1,562,1.24196696281433,car,car,180,180_car_20_n03100240_1703.png,True,1.9996002134669153,1.296266794204712,0.5,-2.34757012944334,2.4962592124938965,0.125,-3.1052794558078403,29.026896476745605,10.0,2.5386904761904763,8.0,37.30887522101228,5.0
subject-01,1,5,0.645937919616699,bottle,bottle,180,180_bottle_20_n04591713_2359.png,True,-1.4676243889579337,0.1526586562395095,1.0,-0.02049832192570432,2.609671115875244,0.1,-2.9280393596811294,25.125765189528465,9.0,3.829700854700855,8.0,26.73058390688579,0.0
subject-02,1,8,0.694914102554321,bottle,bottle,180,180_bottle_20_n04591713_2359.png,True,-0.8975901481061507,0.1526586562395095,1.0,-0.02049832192570432,2.609671115875244,0.1,-2.9280393596811294,25.125765189528465,9.0,3.829700854700855,8.0,26.73058390688579,0.0
subject-03,1,1167,0.865003108978271,bottle,bottle,180,180_bottle_20_n04591713_2359.png,True,-0.3381446689864064,0.1526586562395095,1.0,-0.02049832192570432,2.609671115875244,0.1,-2.9280393596811294,25.125765189528465,9.0,3.829700854700855,8.0,26.73058390688579,0.0
subject-04,1,655,0.582857131958008,bottle,bottle,180,180_bottle_20_n04591713_2359.png,True,-1.0353801506194116,0.1526586562395095,1.0,-0.02049832192570432,2.609671115875244,0.1,-2.9280393596811294,25.125765189528465,9.0,3.829700854700855,8.0,26.73058390688579,0.0
subject-01,1,6,0.930321931838989,bicycle,dog,90,90_dog_20_n02111500_8796.png,False,-0.08432751621035889,1.1994415521621704,1.0,-0.3051462942497211,2.464320182800293,0.1428571428571428,-2.9420887789188224,29.194995999336243,10.0,3.625793650793651,8.0,29.732988712855903,9.0
subject-02,1,226,0.959599018096924,dog,dog,90,90_dog_20_n02111500_8796.png,True,0.17454130298469708,1.1994415521621704,1.0,-0.3051462942497211,2.464320182800293,0.1428571428571428,-2.9420887789188224,29.194995999336243,10.0,3.625793650793651,8.0,29.732988712855903,9.0
subject-03,1,174,1.09246492385864,dog,dog,90,90_dog_20_n02111500_8796.png,True,0.7617986443052165,1.1994415521621704,1.0,-0.3051462942497211,2.464320182800293,0.1428571428571428,-2.9420887789188224,29.194995999336243,10.0,3.625793650793651,8.0,29.732988712855903,9.0
subject-04,1,337,0.73731803894043,dog,dog,90,90_dog_20_n02111500_8796.png,True,-0.32413932585191535,1.1994415521621704,1.0,-0.3051462942497211,2.464320182800293,0.1428571428571428,-2.9420887789188224,29.194995999336243,10.0,3.625793650793651,8.0,29.732988712855903,9.0
subject-01,1,7,1.11369395256042,bear,bear,180,180_bear_20_n02132136_4512.png,True,0.8076281912542574,0.9872057437896729,0.5,-3.175204529710737,2.456728458404541,1.0,-1.6182007345317246,28.997468948364258,10.0,8.833333333333334,3.0,23.384083150398492,3.0
subject-02,1,872,0.813860893249512,bear,bear,180,180_bear_20_n02132136_4512.png,True,-0.4157848474557319,0.9872057437896729,0.5,-3.175204529710737,2.456728458404541,1.0,-1.6182007345317246,28.997468948364258,10.0,8.833333333333334,3.0,23.384083150398492,3.0
subject-03,1,652,1.00167894363403,elephant,bear,180,180_bear_20_n02132136_4512.png,False,0.3227823991336694,0.9872057437896729,0.5,-3.175204529710737,2.456728458404541,1.0,-1.6182007345317246,28.997468948364258,10.0,8.833333333333334,3.0,23.384083150398492,3.0
subject-04,1,751,0.84385085105896,cat,bear,180,180_bear_20_n02132136_4512.png,False,0.1664086492716984,0.9872057437896729,0.5,-3.175204529710737,2.456728458404541,1.0,-1.6182007345317246,28.997468948364258,10.0,8.833333333333334,3.0,23.384083150398492,3.0
subject-01,1,8,0.56744909286499,chair,chair,90,90_chair_20_n03376595_4820.png,True,-1.8494086803561376,0.0583045855164527,1.0,-0.006834563689753222,2.5341765880584717,0.1,-3.0791606097389885,25.742336250841618,9.0,4.727777777777778,8.0,23.97206342154639,9.0
subject-02,1,6,0.775089979171753,chair,chair,90,90_chair_20_n03376595_4820.png,True,-0.5728301263115106,0.0583045855164527,1.0,-0.006834563689753222,2.5341765880584717,0.1,-3.0791606097389885,25.742336250841618,9.0,4.727777777777778,8.0,23.97206342154639,9.0
subject-03,1,1036,0.892501831054688,chair,chair,90,90_chair_20_n03376595_4820.png,True,-0.20516834727751765,0.0583045855164527,1.0,-0.006834563689753222,2.5341765880584717,0.1,-3.0791606097389885,25.742336250841618,9.0,4.727777777777778,8.0,23.97206342154639,9.0
subject-04,1,381,0.634891033172607,chair,chair,90,90_chair_20_n03376595_4820.png,True,-0.7957814357164009,0.0583045855164527,1.0,-0.006834563689753222,2.5341765880584717,0.1,-3.0791606097389885,25.742336250841618,9.0,4.727777777777778,8.0,23.97206342154639,9.0
subject-01,1,9,0.725367069244385,bottle,bottle,270,270_bottle_20_n04591713_6111.png,True,-1.0812661917218187,0.0037728077732026,1.0,-0.0003277004202484709,2.54891586303711,0.1111111111111111,-2.9883552975869017,22.76630731159821,8.0,4.499145299145299,7.0,24.848202503556752,7.0
subject-02,1,1239,0.772720098495483,bottle,bottle,270,270_bottle_20_n04591713_6111.png,True,-0.5824295536273927,0.0037728077732026,1.0,-0.0003277004202484709,2.54891586303711,0.1111111111111111,-2.9883552975869017,22.76630731159821,8.0,4.499145299145299,7.0,24.848202503556752,7.0
subject-03,1,154,0.728760004043579,bottle,bottle,270,270_bottle_20_n04591713_6111.png,True,-0.9969791741705866,0.0037728077732026,1.0,-0.0003277004202484709,2.54891586303711,0.1111111111111111,-2.9883552975869017,22.76630731159821,8.0,4.499145299145299,7.0,24.848202503556752,7.0
subject-04,1,457,0.768598794937134,bottle,bottle,270,270_bottle_20_n04591713_6111.png,True,-0.1801019048041518,0.0037728077732026,1.0,-0.0003277004202484709,2.54891586303711,0.1111111111111111,-2.9883552975869017,22.76630731159821,8.0,4.499145299145299,7.0,24.848202503556752,7.0
subject-01,1,10,1.0814688205719,chair,bottle,270,270_bottle_20_n04560804_14111.png,False,0.6508791393112334,1.7498648166656494,0.2,-3.4821315145091805,2.503593921661377,0.1666666666666666,-2.8374217813783176,29.926517009735107,10.0,0.9885031635031631,9.0,35.498918501660015,0.0
subject-02,1,827,1.25644588470459,bottle,bottle,270,270_bottle_20_n04560804_14111.png,True,1.3769477990081624,1.7498648166656494,0.2,-3.4821315145091805,2.503593921661377,0.1666666666666666,-2.8374217813783176,29.926517009735107,10.0,0.9885031635031631,9.0,35.498918501660015,0.0
subject-03,1,210,1.223717212677,chair,bottle,270,270_bottle_20_n04560804_14111.png,False,1.3964989236286092,1.7498648166656494,0.2,-3.4821315145091805,2.503593921661377,0.1666666666666666,-2.8374217813783176,29.926517009735107,10.0,0.9885031635031631,9.0,35.498918501660015,0.0
subject-04,1,569,1.50014495849609,chair,bottle,270,270_bottle_20_n04560804_14111.png,False,3.1884235485934616,1.7498648166656494,0.2,-3.4821315145091805,2.503593921661377,0.1666666666666666,-2.8374217813783176,29.926517009735107,10.0,0.9885031635031631,9.0,35.498918501660015,0.0
subject-01,1,11,0.81303596496582,cat,dog,0,0_dog_20_n02099601_8656.png,False,-0.6548283327823318,1.1941442489624023,1.0,-0.32916080455958113,2.425333023071289,0.1666666666666666,-2.6541687290767353,28.635282039642334,10.0,4.287301587301587,8.0,27.835253159868046,10.0
subject-02,1,1257,1.42153286933899,dog,dog,0,0_dog_20_n02099601_8656.png,True,2.045648348223265,1.1941442489624023,1.0,-0.32916080455958113,2.425333023071289,0.1666666666666666,-2.6541687290767353,28.635282039642334,10.0,4.287301587301587,8.0,27.835253159868046,10.0
subject-03,1,889,1.1789128780365,cat,dog,0,0_dog_20_n02099601_8656.png,False,1.1798373783920264,1.1941442489624023,1.0,-0.32916080455958113,2.425333023071289,0.1666666666666666,-2.6541687290767353,28.635282039642334,10.0,4.287301587301587,8.0,27.835253159868046,10.0
subject-04,1,122,1.42531108856201,chair,dog,0,0_dog_20_n02099601_8656.png,False,2.8438386020702886,1.1941442489624023,1.0,-0.32916080455958113,2.425333023071289,0.1666666666666666,-2.6541687290767353,28.635282039642334,10.0,4.287301587301587,8.0,27.835253159868046,10.0
subject-01,1,12,0.713118076324463,cat,cat,0,0_cat_20_n02125311_14054.png,True,-1.1408475777077192,0.0333237051963806,1.0,-0.003592977706178077,2.4792277812957764,0.1428571428571428,-3.026203971669433,24.89469430781901,9.0,4.727355977355977,7.0,26.623803528945217,9.0
subject-02,1,941,0.618127822875977,cat,cat,0,0_cat_20_n02125311_14054.png,True,-1.208620284775045,0.0333237051963806,1.0,-0.003592977706178077,2.4792277812957764,0.1428571428571428,-3.026203971669433,24.89469430781901,9.0,4.727355977355977,7.0,26.623803528945217,9.0
subject-03,1,836,0.693774938583374,cat,cat,0,0_cat_20_n02125311_14054.png,True,-1.1661574111342772,0.0333237051963806,1.0,-0.003592977706178077,2.4792277812957764,0.1428571428571428,-3.026203971669433,24.89469430781901,9.0,4.727355977355977,7.0,26.623803528945217,9.0
subject-04,1,409,0.447651863098145,cat,cat,0,0_cat_20_n02125311_14054.png,True,-1.6579552009377665,0.0333237051963806,1.0,-0.003592977706178077,2.4792277812957764,0.1428571428571428,-3.026203971669433,24.89469430781901,9.0,4.727355977355977,7.0,26.623803528945217,9.0
subject-01,1,13,0.938475131988525,bear,bear,0,0_bear_20_n02132136_10385.png,True,-0.04466883012036043,0.1336595714092254,1.0,-0.01772583967649499,2.3355908393859863,0.3333333333333333,-1.766853081989618,25.234435975551605,9.0,8.0,5.0,17.91194346359918,9.0
subject-02,1,1130,1.38745999336243,bird,bear,0,0_bear_20_n02132136_10385.png,False,1.907632919997217,0.1336595714092254,1.0,-0.01772583967649499,2.3355908393859863,0.3333333333333333,-1.766853081989618,25.234435975551605,9.0,8.0,5.0,17.91194346359918,9.0
subject-03,1,638,0.775047063827515,bear,bear,0,0_bear_20_n02132136_10385.png,True,-0.7731475744445085,0.1336595714092254,1.0,-0.01772583967649499,2.3355908393859863,0.3333333333333333,-1.766853081989618,25.234435975551605,9.0,8.0,5.0,17.91194346359918,9.0
subject-04,1,37,0.579553842544556,boat,bear,0,0_bear_20_n02132136_10385.png,False,-1.0505906937449725,0.1336595714092254,1.0,-0.01772583967649499,2.3355908393859863,0.3333333333333333,-1.766853081989618,25.234435975551605,9.0,8.0,5.0,17.91194346359918,9.0
subject-01,1,14,0.710515022277832,bottle,bottle,90,90_bottle_20_n02823428_10417.png,True,-1.1535093180571836,0.0779284313321113,1.0,-0.009379005948313545,2.5621683597564697,0.1428571428571428,-2.780016394292089,26.199171639978886,9.0,4.331684981684981,7.0,26.43579139275227,9.0
subject-02,1,846,0.818840980529785,bottle,bottle,90,90_bottle_20_n02823428_10417.png,True,-0.39561252977222283,0.0779284313321113,1.0,-0.009379005948313545,2.5621683597564697,0.1428571428571428,-2.780016394292089,26.199171639978886,9.0,4.331684981684981,7.0,26.43579139275227,9.0
subject-03,1,601,0.854120016098022,bottle,bottle,90,90_bottle_20_n02823428_10417.png,True,-0.3907723385926543,0.0779284313321113,1.0,-0.009379005948313545,2.5621683597564697,0.1428571428571428,-2.780016394292089,26.199171639978886,9.0,4.331684981684981,7.0,26.43579139275227,9.0
subject-04,1,48,0.726992845535278,bottle,bottle,90,90_bottle_20_n02823428_10417.png,True,-0.37168338872731965,0.0779284313321113,1.0,-0.009379005948313545,2.5621683597564697,0.1428571428571428,-2.780016394292089,26.199171639978886,9.0,4.331684981684981,7.0,26.43579139275227,9.0
subject-01,1,15,1.19635391235352,keyboard,keyboard,0,0_keyboard_20_n03085013_23566.png,True,1.209701651677408,0.0481380149722099,1.0,-0.005464556199630605,2.5232625007629395,0.0909090909090909,-3.33411627787395,26.07236646860838,9.0,3.6997474747474746,8.0,29.31505282209141,9.0
subject-02,1,1034,0.878476858139038,keyboard,keyboard,0,0_keyboard_20_n03085013_23566.png,True,-0.1540517295762128,0.0481380149722099,1.0,-0.005464556199630605,2.5232625007629395,0.0909090909090909,-3.33411627787395,26.07236646860838,9.0,3.6997474747474746,8.0,29.31505282209141,9.0
subject-03,1,541,1.0230860710144,keyboard,keyboard,0,0_keyboard_20_n03085013_23566.png,True,0.426301429926614,0.0481380149722099,1.0,-0.005464556199630605,2.5232625007629395,0.0909090909090909,-3.33411627787395,26.07236646860838,9.0,3.6997474747474746,8.0,29.31505282209141,9.0
subject-04,1,973,0.805768013000488,keyboard,keyboard,0,0_keyboard_20_n03085013_23566.png,True,-0.008950085047251878,0.0481380149722099,1.0,-0.005464556199630605,2.5232625007629395,0.0909090909090909,-3.33411627787395,26.07236646860838,9.0,3.6997474747474746,8.0,29.31505282209141,9.0
subject-01,1,16,0.956080913543701,truck,truck,90,90_truck_20_n03417042_12560.png,True,0.04096897482246971,1.7185609340667725,1.0,-0.5962160718099996,2.5290188789367676,0.25,-2.4037928061325378,29.994476318359375,10.0,3.202380952380952,9.0,28.188403744063482,10.0
subject-02,1,1217,1.09492111206055,truck,truck,90,90_truck_20_n03417042_12560.png,True,0.7226763286186837,1.7185609340667725,1.0,-0.5962160718099996,2.5290188789367676,0.25,-2.4037928061325378,29.994476318359375,10.0,3.202380952380952,9.0,28.188403744063482,10.0
subject-03,1,58,1.01318502426147,truck,truck,90,90_truck_20_n03417042_12560.png,True,0.37842266761127324,1.7185609340667725,1.0,-0.5962160718099996,2.5290188789367676,0.25,-2.4037928061325378,29.994476318359375,10.0,3.202380952380952,9.0,28.188403744063482,10.0
subject-04,1,1125,0.688392162322998,truck,truck,90,90_truck_20_n03417042_12560.png,True,-0.549426626811602,1.7185609340667725,1.0,-0.5962160718099996,2.5290188789367676,0.25,-2.4037928061325378,29.994476318359375,10.0,3.202380952380952,9.0,28.188403744063482,10.0
subject-01,1,17,0.975800037384033,truck,truck,180,180_truck_20_n04467665_69063.png,True,0.1368864707762575,1.975928544998169,0.1428571428571428,-3.4876167130321067,2.4362540245056152,0.2,-2.589624893280725,29.845556020736694,10.0,1.419047619047619,9.0,32.343468208646094,0.0
subject-02,1,1201,0.889904975891113,truck,truck,180,180_truck_20_n04467665_69063.png,True,-0.10776105054884264,1.975928544998169,0.1428571428571428,-3.4876167130321067,2.4362540245056152,0.2,-2.589624893280725,29.845556020736694,10.0,1.419047619047619,9.0,32.343468208646094,0.0
subject-03,1,534,0.836392879486084,truck,truck,180,180_truck_20_n04467665_69063.png,True,-0.47649593747611335,1.975928544998169,0.1428571428571428,-3.4876167130321067,2.4362540245056152,0.2,-2.589624893280725,29.845556020736694,10.0,1.419047619047619,9.0,32.343468208646094,0.0
subject-04,1,838,1.03369688987732,truck,truck,180,180_truck_20_n04467665_69063.png,True,1.0405861733191184,1.975928544998169,0.1428571428571428,-3.4876167130321067,2.4362540245056152,0.2,-2.589624893280725,29.845556020736694,10.0,1.419047619047619,9.0,32.343468208646094,0.0
subject-01,1,18,0.949490070343018,oven,oven,180,180_oven_20_n04111531_9712.png,True,0.008909884309505524,0.0248199477791786,1.0,-0.002585830824870557,2.4842052459716797,0.0625,-4.9661552218254785,25.647509045898914,9.0,2.7626123876123874,9.0,33.762098457911165,9.0
subject-02,1,724,0.716595888137817,oven,oven,180,180_oven_20_n04111531_9712.png,True,-0.8097660112745498,0.0248199477791786,1.0,-0.002585830824870557,2.4842052459716797,0.0625,-4.9661552218254785,25.647509045898914,9.0,2.7626123876123874,9.0,33.762098457911165,9.0
subject-03,1,397,0.817574977874756,oven,oven,180,180_oven_20_n04111531_9712.png,True,-0.5674941784707441,0.0248199477791786,1.0,-0.002585830824870557,2.4842052459716797,0.0625,-4.9661552218254785,25.647509045898914,9.0,2.7626123876123874,9.0,33.762098457911165,9.0
subject-04,1,1146,1.23819518089294,cat,oven,180,180_oven_20_n04111531_9712.png,False,1.9822324190066778,0.0248199477791786,1.0,-0.002585830824870557,2.4842052459716797,0.0625,-4.9661552218254785,25.647509045898914,9.0,2.7626123876123874,9.0,33.762098457911165,9.0
subject-01,1,19,0.707451105117798,oven,oven,180,180_oven_20_n04111531_10375.png,True,-1.1684127825406927,0.0322751887142658,1.0,-0.00369874362380786,2.550996780395508,0.0769230769230769,-3.6338530864245837,25.429754447191954,9.0,5.096800421800422,6.0,25.428449857963276,6.0
subject-02,1,494,0.8020179271698,oven,oven,180,180_oven_20_n04111531_10375.png,True,-0.46375590913195963,0.0322751887142658,1.0,-0.00369874362380786,2.550996780395508,0.0769230769230769,-3.6338530864245837,25.429754447191954,9.0,5.096800421800422,6.0,25.428449857963276,6.0
subject-03,1,924,1.2885320186615,oven,oven,180,180_oven_20_n04111531_10375.png,True,1.7099256519013972,0.0322751887142658,1.0,-0.00369874362380786,2.550996780395508,0.0769230769230769,-3.6338530864245837,25.429754447191954,9.0,5.096800421800422,6.0,25.428449857963276,6.0
subject-04,1,548,0.702559947967529,truck,oven,180,180_oven_20_n04111531_10375.png,False,-0.4841887116406649,0.0322751887142658,1.0,-0.00369874362380786,2.550996780395508,0.0769230769230769,-3.6338530864245837,25.429754447191954,9.0,5.096800421800422,6.0,25.428449857963276,6.0
subject-01,1,20,0.743339061737061,keyboard,keyboard,0,0_keyboard_20_n04505470_1744.png,True,-0.9938470684810607,0.0750116556882858,1.0,-0.009300131030686075,2.5523769855499268,0.1666666666666666,-2.4673012775611767,24.404962012544274,9.0,5.380303030303031,6.0,24.7265216198399,4.0
subject-02,1,664,0.682941913604736,keyboard,keyboard,0,0_keyboard_20_n04505470_1744.png,True,-0.9460846393201251,0.0750116556882858,1.0,-0.009300131030686075,2.5523769855499268,0.1666666666666666,-2.4673012775611767,24.404962012544274,9.0,5.380303030303031,6.0,24.7265216198399,4.0
subject-03,1,1051,1.29140305519104,keyboard,keyboard,0,0_keyboard_20_n04505470_1744.png,True,1.7238092016943352,0.0750116556882858,1.0,-0.009300131030686075,2.5523769855499268,0.1666666666666666,-2.4673012775611767,24.404962012544274,9.0,5.380303030303031,6.0,24.7265216198399,4.0
subject-04,1,629,0.745192766189575,keyboard,keyboard,0,0_keyboard_20_n04505470_1744.png,True,-0.28787884018651444,0.0750116556882858,1.0,-0.009300131030686075,2.5523769855499268,0.1666666666666666,-2.4673012775611767,24.404962012544274,9.0,5.380303030303031,6.0,24.7265216198399,4.0
subject-01,1,21,0.669005155563354,boat,boat,90,90_boat_20_n04273569_7296.png,True,-1.3554210512998492,2.3137452602386475,0.3333333333333333,-2.090722768673465,2.4980685710906982,0.5,-2.0027462886899277,30.457759618759155,10.0,1.9634920634920632,4.0,31.324566064700083,10.0
subject-02,1,102,0.707365989685059,boat,boat,90,90_boat_20_n04273569_7296.png,True,-0.8471525937372887,2.3137452602386475,0.3333333333333333,-2.090722768673465,2.4980685710906982,0.5,-2.0027462886899277,30.457759618759155,10.0,1.9634920634920632,4.0,31.324566064700083,10.0
subject-03,1,976,0.731828927993774,boat,boat,90,90_boat_20_n04273569_7296.png,True,-0.9821386947705921,2.3137452602386475,0.3333333333333333,-2.090722768673465,2.4980685710906982,0.5,-2.0027462886899277,30.457759618759155,10.0,1.9634920634920632,4.0,31.324566064700083,10.0
subject-04,1,958,0.480633020401001,boat,boat,90,90_boat_20_n04273569_7296.png,True,-1.506088000491123,2.3137452602386475,0.3333333333333333,-2.090722768673465,2.4980685710906982,0.5,-2.0027462886899277,30.457759618759155,10.0,1.9634920634920632,4.0,31.324566064700083,10.0
subject-01,1,22,0.766723155975342,dog,dog,0,0_dog_20_n02101006_4807.png,True,-0.8801024729987929,1.5140910148620603,1.0,-0.40193901183792974,2.3697774410247803,0.1666666666666666,-2.7674481822692765,26.682153940200806,9.0,4.083333333333333,8.0,27.123345686907673,9.0
subject-02,1,323,1.50004506111145,dog,dog,0,0_dog_20_n02101006_4807.png,True,2.3636694561536933,1.5140910148620603,1.0,-0.40193901183792974,2.3697774410247803,0.1666666666666666,-2.7674481822692765,26.682153940200806,9.0,4.083333333333333,8.0,27.123345686907673,9.0
subject-03,1,334,0.984952926635742,dog,dog,0,0_dog_20_n02101006_4807.png,True,0.24189994172012458,1.5140910148620603,1.0,-0.40193901183792974,2.3697774410247803,0.1666666666666666,-2.7674481822692765,26.682153940200806,9.0,4.083333333333333,8.0,27.123345686907673,9.0
subject-04,1,699,0.965987920761108,dog,dog,0,0_dog_20_n02101006_4807.png,True,0.7288090124880481,1.5140910148620603,1.0,-0.40193901183792974,2.3697774410247803,0.1666666666666666,-2.7674481822692765,26.682153940200806,9.0,4.083333333333333,8.0,27.123345686907673,9.0
subject-01,1,23,0.586733818054199,clock,clock,90,90_clock_20_n02708093_1986.png,True,-1.755604180456272,0.0339320935308933,1.0,-0.003695273749940986,2.54133939743042,0.25,-2.3419164444486857,23.965275041759014,9.0,5.367832167832168,6.0,25.9854737036723,6.0
subject-02,1,1229,0.786499977111816,clock,clock,90,90_clock_20_n02708093_1986.png,True,-0.5266128433078849,0.0339320935308933,1.0,-0.003695273749940986,2.54133939743042,0.25,-2.3419164444486857,23.965275041759014,9.0,5.367832167832168,6.0,25.9854737036723,6.0
subject-03,1,755,0.569189071655273,clock,clock,90,90_clock_20_n02708093_1986.png,True,-1.768620691972329,0.0339320935308933,1.0,-0.003695273749940986,2.54133939743042,0.25,-2.3419164444486857,23.965275041759014,9.0,5.367832167832168,6.0,25.9854737036723,6.0
subject-04,1,764,0.679446935653687,clock,clock,90,90_clock_20_n02708093_1986.png,True,-0.5906164043307581,0.0339320935308933,1.0,-0.003695273749940986,2.54133939743042,0.25,-2.3419164444486857,23.965275041759014,9.0,5.367832167832168,6.0,25.9854737036723,6.0
subject-01,1,24,0.766526937484741,bottle,bottle,0,0_bottle_20_n04560804_15562.png,True,-0.881056916331604,0.0894135981798172,1.0,-0.011003370809598203,2.57059907913208,0.1111111111111111,-2.965332776059735,25.68331252038479,9.0,4.386446886446887,7.0,26.6105297842234,9.0
subject-02,1,313,0.836967945098877,bottle,bottle,0,0_bottle_20_n04560804_15562.png,True,-0.32218753391444127,0.0894135981798172,1.0,-0.011003370809598203,2.57059907913208,0.1111111111111111,-2.965332776059735,25.68331252038479,9.0,4.386446886446887,7.0,26.6105297842234,9.0
subject-03,1,944,0.842602968215942,bottle,bottle,0,0_bottle_20_n04560804_15562.png,True,-0.4464656417231862,0.0894135981798172,1.0,-0.011003370809598203,2.57059907913208,0.1111111111111111,-2.965332776059735,25.68331252038479,9.0,4.386446886446887,7.0,26.6105297842234,9.0
subject-04,1,760,0.684509038925171,bottle,bottle,0,0_bottle_20_n04560804_15562.png,True,-0.5673071115381275,0.0894135981798172,1.0,-0.011003370809598203,2.57059907913208,0.1111111111111111,-2.965332776059735,25.68331252038479,9.0,4.386446886446887,7.0,26.6105297842234,9.0
subject-01,1,25,0.514270067214966,cat,cat,0,0_cat_20_n02124075_13594.png,True,-2.1080813789463133,0.1339696645736694,1.0,-0.017621916327303068,2.5324039459228516,0.0833333333333333,-3.499419908854749,24.872851215302944,9.0,4.135714285714285,7.0,29.025273138724128,9.0
subject-02,1,390,0.837478876113892,cat,cat,0,0_cat_20_n02124075_13594.png,True,-0.3201179591923137,0.1339696645736694,1.0,-0.017621916327303068,2.5324039459228516,0.0833333333333333,-3.499419908854749,24.872851215302944,9.0,4.135714285714285,7.0,29.025273138724128,9.0
subject-03,1,16,0.654875993728638,cat,cat,0,0_cat_20_n02124075_13594.png,True,-1.3542621016273588,0.1339696645736694,1.0,-0.017621916327303068,2.5324039459228516,0.0833333333333333,-3.499419908854749,24.872851215302944,9.0,4.135714285714285,7.0,29.025273138724128,9.0
subject-04,1,580,0.50444483757019,cat,cat,0,0_cat_20_n02124075_13594.png,True,-1.396442545123221,0.1339696645736694,1.0,-0.017621916327303068,2.5324039459228516,0.0833333333333333,-3.499419908854749,24.872851215302944,9.0,4.135714285714285,7.0,29.025273138724128,9.0
subject-01,1,26,0.754002094268799,bear,bear,90,90_bear_20_n02134418_4365.png,True,-0.9419800896031153,0.7957007884979248,1.0,-0.2111889238993932,2.464085340499878,1.0,-1.642931078935047,27.661481618881226,9.0,9.75,4.0,18.546312189901496,9.0
subject-02,1,609,1.2790789604187,cat,bear,90,90_bear_20_n02134418_4365.png,False,1.4686252270862732,0.7957007884979248,1.0,-0.2111889238993932,2.464085340499878,1.0,-1.642931078935047,27.661481618881226,9.0,9.75,4.0,18.546312189901496,9.0
subject-03,1,747,0.820727109909058,bear,bear,90,90_bear_20_n02134418_4365.png,True,-0.5522513274648894,0.7957007884979248,1.0,-0.2111889238993932,2.464085340499878,1.0,-1.642931078935047,27.661481618881226,9.0,9.75,4.0,18.546312189901496,9.0
subject-04,1,1165,0.726894855499268,bear,bear,90,90_bear_20_n02134418_4365.png,True,-0.37213460007517646,0.7957007884979248,1.0,-0.2111889238993932,2.464085340499878,1.0,-1.642931078935047,27.661481618881226,9.0,9.75,4.0,18.546312189901496,9.0
subject-01,1,27,1.1221330165863,oven,bear,180,180_bear_20_n02132136_8650.png,False,0.848677372552085,2.01904296875,1.0,-0.8633477651853882,2.4034552574157715,1.0,-1.6426185622864855,29.545597076416016,10.0,7.666666666666666,4.0,20.323702228998318,10.0
subject-02,1,225,1.10588693618774,bear,bear,180,180_bear_20_n02132136_8650.png,True,0.7670944433034204,2.01904296875,1.0,-0.8633477651853882,2.4034552574157715,1.0,-1.6426185622864855,29.545597076416016,10.0,7.666666666666666,4.0,20.323702228998318,10.0
subject-03,1,671,0.940099000930786,bear,bear,180,180_bear_20_n02132136_8650.png,True,0.02499858761814626,2.01904296875,1.0,-0.8633477651853882,2.4034552574157715,1.0,-1.6426185622864855,29.545597076416016,10.0,7.666666666666666,4.0,20.323702228998318,10.0
subject-04,1,536,1.42077112197876,boat,bear,180,180_bear_20_n02132136_8650.png,False,2.822933574123929,2.01904296875,1.0,-0.8633477651853882,2.4034552574157715,1.0,-1.6426185622864855,29.545597076416016,10.0,7.666666666666666,4.0,20.323702228998318,10.0
subject-01,1,28,0.965617895126343,bird,bird,90,90_bird_20_n02009912_12219.png,True,0.08735863187677696,0.2642119526863098,1.0,-0.038831155861865835,2.5556039810180664,0.0769230769230769,-3.5691812622008134,26.717475295066833,9.0,3.4660464535464532,8.0,32.491897262542565,9.0
subject-02,1,986,0.999397993087769,bird,bird,90,90_bird_20_n02009912_12219.png,True,0.3357508404507448,0.2642119526863098,1.0,-0.038831155861865835,2.5556039810180664,0.0769230769230769,-3.5691812622008134,26.717475295066833,9.0,3.4660464535464532,8.0,32.491897262542565,9.0
subject-03,1,1093,0.739584922790527,bird,bird,90,90_bird_20_n02009912_12219.png,True,-0.9446328188102688,0.2642119526863098,1.0,-0.038831155861865835,2.5556039810180664,0.0769230769230769,-3.5691812622008134,26.717475295066833,9.0,3.4660464535464532,8.0,32.491897262542565,9.0
subject-04,1,320,1.21880197525024,bird,bird,90,90_bird_20_n02009912_12219.png,True,1.8929331921300072,0.2642119526863098,1.0,-0.038831155861865835,2.5556039810180664,0.0769230769230769,-3.5691812622008134,26.717475295066833,9.0,3.4660464535464532,8.0,32.491897262542565,9.0
subject-01,1,29,1.01562881469727,dog,dog,90,90_dog_20_n02100236_1662.png,True,0.3306210716500054,1.1875317096710205,1.0,-0.28611395203501594,2.477264881134033,0.1428571428571428,-2.892649123139911,29.33561611175537,10.0,3.132539682539682,9.0,30.31689381995012,10.0
subject-02,1,1185,1.15307784080505,dog,dog,90,90_dog_20_n02100236_1662.png,True,0.9582456955080543,1.1875317096710205,1.0,-0.28611395203501594,2.477264881134033,0.1428571428571428,-2.892649123139911,29.33561611175537,10.0,3.132539682539682,9.0,30.31689381995012,10.0
subject-03,1,241,0.871577024459839,dog,dog,90,90_dog_20_n02100236_1662.png,True,-0.3063550062691808,1.1875317096710205,1.0,-0.28611395203501594,2.477264881134033,0.1428571428571428,-2.892649123139911,29.33561611175537,10.0,3.132539682539682,9.0,30.31689381995012,10.0
subject-04,1,221,1.12426495552063,dog,dog,90,90_dog_20_n02100236_1662.png,True,1.4576218295520271,1.1875317096710205,1.0,-0.28611395203501594,2.477264881134033,0.1428571428571428,-2.892649123139911,29.33561611175537,10.0,3.132539682539682,9.0,30.31689381995012,10.0
subject-01,1,30,0.583348989486694,clock,clock,90,90_clock_20_n04548280_1947.png,True,-1.7720686178753364,0.1355558186769485,1.0,-0.01781715310863969,2.5942494869232178,0.1666666666666666,-2.4802708126124524,24.854280665516853,9.0,4.61025641025641,6.0,27.82853544902306,6.0
subject-02,1,481,0.532793045043945,clock,clock,90,90_clock_20_n04548280_1947.png,True,-1.5542769271190835,0.1355558186769485,1.0,-0.01781715310863969,2.5942494869232178,0.1666666666666666,-2.4802708126124524,24.854280665516853,9.0,4.61025641025641,6.0,27.82853544902306,6.0
subject-03,1,679,0.978777885437012,clock,clock,90,90_clock_20_n04548280_1947.png,True,0.2120391262710984,0.1355558186769485,1.0,-0.01781715310863969,2.5942494869232178,0.1666666666666666,-2.4802708126124524,24.854280665516853,9.0,4.61025641025641,6.0,27.82853544902306,6.0
subject-04,1,534,0.721281051635742,clock,clock,90,90_clock_20_n04548280_1947.png,True,-0.39798428960491367,0.1355558186769485,1.0,-0.01781715310863969,2.5942494869232178,0.1666666666666666,-2.4802708126124524,24.854280665516853,9.0,4.61025641025641,6.0,27.82853544902306,6.0
subject-01,1,31,1.14523601531982,dog,dog,270,270_dog_20_n02109047_66167.png,True,0.9610546670752002,1.2735412120819092,1.0,-0.3088479809648741,2.461343288421631,0.1666666666666666,-2.6618506527553345,28.45718765258789,9.0,3.202380952380952,9.0,28.733240964991328,9.0
subject-02,1,171,0.817969083786011,dog,dog,270,270_dog_20_n02109047_66167.png,True,-0.3991442305462831,1.2735412120819092,1.0,-0.3088479809648741,2.461343288421631,0.1666666666666666,-2.6618506527553345,28.45718765258789,9.0,3.202380952380952,9.0,28.733240964991328,9.0
subject-03,1,673,1.28177404403687,dog,dog,270,270_dog_20_n02109047_66167.png,True,1.6772459293569089,1.2735412120819092,1.0,-0.3088479809648741,2.461343288421631,0.1666666666666666,-2.6618506527553345,28.45718765258789,9.0,3.202380952380952,9.0,28.733240964991328,9.0
subject-04,1,314,0.885954856872559,dog,dog,270,270_dog_20_n02109047_66167.png,True,0.3602835164203654,1.2735412120819092,1.0,-0.3088479809648741,2.461343288421631,0.1666666666666666,-2.6618506527553345,28.45718765258789,9.0,3.202380952380952,9.0,28.733240964991328,9.0
subject-01,1,32,0.649070978164673,oven,oven,90,90_oven_20_n04111531_21055.png,True,-1.4523846078686935,0.0083046657964587,1.0,-0.0007960984146649847,2.5941433906555176,0.0625,-4.344763952187423,24.807968272827566,9.0,5.088690476190476,6.0,25.531009641071595,6.0
subject-02,1,877,0.883017063140869,oven,oven,90,90_oven_20_n04111531_21055.png,True,-0.13566119694278223,0.0083046657964587,1.0,-0.0007960984146649847,2.5941433906555176,0.0625,-4.344763952187423,24.807968272827566,9.0,5.088690476190476,6.0,25.531009641071595,6.0
subject-03,1,799,0.733067035675049,oven,oven,90,90_oven_20_n04111531_21055.png,True,-0.9761515436266966,0.0083046657964587,1.0,-0.0007960984146649847,2.5941433906555176,0.0625,-4.344763952187423,24.807968272827566,9.0,5.088690476190476,6.0,25.531009641071595,6.0
subject-04,1,786,0.509467840194702,oven,oven,90,90_oven_20_n04111531_21055.png,True,-1.3733132977345996,0.0083046657964587,1.0,-0.0007960984146649847,2.5941433906555176,0.0625,-4.344763952187423,24.807968272827566,9.0,5.088690476190476,6.0,25.531009641071595,6.0
subject-01,1,33,0.70674204826355,clock,clock,0,0_clock_20_n02708093_2012.png,True,-1.1718617673180605,0.2218037843704223,1.0,-0.03249124018561283,2.516467571258545,0.1666666666666666,-2.705198114450683,27.600017547607422,10.0,3.377355977355977,8.0,32.53185549598261,9.0
subject-02,1,380,0.767444849014282,clock,clock,0,0_clock_20_n02708093_2012.png,True,-0.6037974539081924,0.2218037843704223,1.0,-0.03249124018561283,2.516467571258545,0.1666666666666666,-2.705198114450683,27.600017547607422,10.0,3.377355977355977,8.0,32.53185549598261,9.0
subject-03,1,641,0.759828090667725,clock,clock,0,0_clock_20_n02708093_2012.png,True,-0.8467423787903714,0.2218037843704223,1.0,-0.03249124018561283,2.516467571258545,0.1666666666666666,-2.705198114450683,27.600017547607422,10.0,3.377355977355977,8.0,32.53185549598261,9.0
subject-04,1,456,0.651068925857544,clock,clock,0,0_clock_20_n02708093_2012.png,True,-0.7212876498062608,0.2218037843704223,1.0,-0.03249124018561283,2.516467571258545,0.1666666666666666,-2.705198114450683,27.600017547607422,10.0,3.377355977355977,8.0,32.53185549598261,9.0
subject-01,1,34,1.27048206329346,elephant,elephant,0,0_elephant_20_n02504458_6119.png,True,1.5702748026660338,0.0423859022557735,1.0,-0.004700305366796844,2.467741012573242,0.5,-1.9477894153775799,24.300077434629202,9.0,7.833333333333333,1.0,19.247621595505755,0.0
subject-02,1,449,0.866116046905518,elephant,elephant,0,0_elephant_20_n02504458_6119.png,True,-0.20412037235204458,0.0423859022557735,1.0,-0.004700305366796844,2.467741012573242,0.5,-1.9477894153775799,24.300077434629202,9.0,7.833333333333333,1.0,19.247621595505755,0.0
subject-03,1,742,1.10603809356689,elephant,elephant,0,0_elephant_20_n02504458_6119.png,True,0.8274347919312007,0.0423859022557735,1.0,-0.004700305366796844,2.467741012573242,0.5,-1.9477894153775799,24.300077434629202,9.0,7.833333333333333,1.0,19.247621595505755,0.0
subject-04,1,946,0.888978004455566,elephant,elephant,0,0_elephant_20_n02504458_6119.png,True,0.3742041000964434,0.0423859022557735,1.0,-0.004700305366796844,2.467741012573242,0.5,-1.9477894153775799,24.300077434629202,9.0,7.833333333333333,1.0,19.247621595505755,0.0
subject-01,1,35,0.766396999359131,chair,chair,0,0_chair_20_n04099969_12707.png,True,-0.8816889596078854,0.0476121306419372,1.0,-0.0053689104999944965,2.571261405944824,0.0909090909090909,-3.1403518752470876,24.22995440894738,9.0,4.932575757575758,7.0,23.45416397988136,6.0
subject-02,1,985,0.641517877578735,chair,chair,0,0_chair_20_n04099969_12707.png,True,-1.1138766412313468,0.0476121306419372,1.0,-0.0053689104999944965,2.571261405944824,0.0909090909090909,-3.1403518752470876,24.22995440894738,9.0,4.932575757575758,7.0,23.45416397988136,6.0
subject-03,1,350,0.720062971115112,chair,chair,0,0_chair_20_n04099969_12707.png,True,-1.0390356539369845,0.0476121306419372,1.0,-0.0053689104999944965,2.571261405944824,0.0909090909090909,-3.1403518752470876,24.22995440894738,9.0,4.932575757575758,7.0,23.45416397988136,6.0
subject-04,1,1067,0.817438125610352,chair,chair,0,0_chair_20_n04099969_12707.png,True,0.044786881023482515,0.0476121306419372,1.0,-0.0053689104999944965,2.571261405944824,0.0909090909090909,-3.1403518752470876,24.22995440894738,9.0,4.932575757575758,7.0,23.45416397988136,6.0
subject-01,1,36,1.00817179679871,keyboard,keyboard,270,270_keyboard_20_n03085013_19054.png,True,0.2943487458659603,0.0450498387217521,1.0,-0.005050337273945709,2.593130588531494,0.0833333333333333,-3.3937589113419633,26.409304790198803,9.0,4.3634421134421135,7.0,29.52997320693477,6.0
subject-02,1,492,0.778429985046387,keyboard,keyboard,270,270_keyboard_20_n03085013_19054.png,True,-0.5593011145139081,0.0450498387217521,1.0,-0.005050337273945709,2.593130588531494,0.0833333333333333,-3.3937589113419633,26.409304790198803,9.0,4.3634421134421135,7.0,29.52997320693477,6.0
subject-03,1,661,0.863913774490356,keyboard,keyboard,270,270_keyboard_20_n03085013_19054.png,True,-0.3434123935341521,0.0450498387217521,1.0,-0.005050337273945709,2.593130588531494,0.0833333333333333,-3.3937589113419633,26.409304790198803,9.0,4.3634421134421135,7.0,29.52997320693477,6.0
subject-04,1,201,0.714411020278931,keyboard,keyboard,270,270_keyboard_20_n03085013_19054.png,True,-0.4296184866574589,0.0450498387217521,1.0,-0.005050337273945709,2.593130588531494,0.0833333333333333,-3.3937589113419633,26.409304790198803,9.0,4.3634421134421135,7.0,29.52997320693477,6.0
subject-01,1,37,0.780220985412598,chair,chair,0,0_chair_20_n02791124_422.png,True,-0.8144465132859744,0.1516520977020263,1.0,-0.020834392455120306,2.4836502075195312,0.0769230769230769,-3.635229109909056,26.355222404003143,9.0,4.684737484737484,7.0,27.01109030513544,9.0
subject-02,1,512,0.680699825286865,chair,chair,0,0_chair_20_n02791124_422.png,True,-0.9551664315211844,0.1516520977020263,1.0,-0.020834392455120306,2.4836502075195312,0.0769230769230769,-3.635229109909056,26.355222404003143,9.0,4.684737484737484,7.0,27.01109030513544,9.0
subject-03,1,106,0.919541120529175,chair,chair,0,0_chair_20_n02791124_422.png,True,-0.07441371635513261,0.1516520977020263,1.0,-0.020834392455120306,2.4836502075195312,0.0769230769230769,-3.635229109909056,26.355222404003143,9.0,4.684737484737484,7.0,27.01109030513544,9.0
subject-04,1,937,0.692440986633301,chair,chair,0,0_chair_20_n02791124_422.png,True,-0.5307831447936809,0.1516520977020263,1.0,-0.020834392455120306,2.4836502075195312,0.0769230769230769,-3.635229109909056,26.355222404003143,9.0,4.684737484737484,7.0,27.01109030513544,9.0
subject-01,1,38,0.682131052017212,bicycle,bicycle,0,0_bicycle_20_n02835271_23830.png,True,-1.2915742429833617,0.024346325546503,1.0,-0.0025293004354687942,2.5552639961242676,0.5,-2.099167323660184,24.043782813474536,8.0,7.416666666666666,3.0,18.20472630767575,8.0
subject-02,1,1162,0.675475120544434,bicycle,bicycle,0,0_bicycle_20_n02835271_23830.png,True,-0.976329595525225,0.024346325546503,1.0,-0.0025293004354687942,2.5552639961242676,0.5,-2.099167323660184,24.043782813474536,8.0,7.416666666666666,3.0,18.20472630767575,8.0
subject-03,1,1174,0.635474920272827,bicycle,bicycle,0,0_bicycle_20_n02835271_23830.png,True,-1.4480804026447076,0.024346325546503,1.0,-0.0025293004354687942,2.5552639961242676,0.5,-2.099167323660184,24.043782813474536,8.0,7.416666666666666,3.0,18.20472630767575,8.0
subject-04,1,407,0.459997892379761,bicycle,bicycle,0,0_bicycle_20_n02835271_23830.png,True,-1.601105864620846,0.024346325546503,1.0,-0.0025293004354687942,2.5552639961242676,0.5,-2.099167323660184,24.043782813474536,8.0,7.416666666666666,3.0,18.20472630767575,8.0
subject-01,1,39,0.815639019012451,bird,bird,90,90_bird_20_n01534433_14735.png,True,-0.6421665924328674,0.48134246468544,1.0,-0.08381537343912543,2.5781140327453613,0.0666666666666666,-3.731317814121812,28.60269132256508,10.0,3.879899267399267,7.0,33.824326743380496,9.0
subject-02,1,516,0.91992712020874,bird,bird,90,90_bird_20_n01534433_14735.png,True,0.013846503422004993,0.48134246468544,1.0,-0.08381537343912543,2.5781140327453613,0.0666666666666666,-3.731317814121812,28.60269132256508,10.0,3.879899267399267,7.0,33.824326743380496,9.0
subject-03,1,82,1.07402396202087,bird,bird,90,90_bird_20_n01534433_14735.png,True,0.6726231812729306,0.48134246468544,1.0,-0.08381537343912543,2.5781140327453613,0.0666666666666666,-3.731317814121812,28.60269132256508,10.0,3.879899267399267,7.0,33.824326743380496,9.0
subject-04,1,1232,0.846200942993164,bird,bird,90,90_bird_20_n01534433_14735.png,True,0.17723003675554186,0.48134246468544,1.0,-0.08381537343912543,2.5781140327453613,0.0666666666666666,-3.731317814121812,28.60269132256508,10.0,3.879899267399267,7.0,33.824326743380496,9.0
subject-01,1,40,0.8075270652771,bird,bird,90,90_bird_20_n02011460_13994.png,True,-0.6816246482718601,0.1793049275875091,1.0,-0.025431252756181827,2.5120060443878174,0.1,-3.3323839958672172,26.09688836336136,9.0,3.432142857142857,8.0,32.196072808699284,9.0
subject-02,1,573,1.00395107269287,bird,bird,90,90_bird_20_n02011460_13994.png,True,0.3541935228905129,0.1793049275875091,1.0,-0.025431252756181827,2.5120060443878174,0.1,-3.3323839958672172,26.09688836336136,9.0,3.432142857142857,8.0,32.196072808699284,9.0
subject-03,1,1251,1.04047203063965,bird,bird,90,90_bird_20_n02011460_13994.png,True,0.5103751899333634,0.1793049275875091,1.0,-0.025431252756181827,2.5120060443878174,0.1,-3.3323839958672172,26.09688836336136,9.0,3.432142857142857,8.0,32.196072808699284,9.0
subject-04,1,693,0.983155012130737,bird,bird,90,90_bird_20_n02011460_13994.png,True,0.807857727552135,0.1793049275875091,1.0,-0.025431252756181827,2.5120060443878174,0.1,-3.3323839958672172,26.09688836336136,9.0,3.432142857142857,8.0,32.196072808699284,9.0
subject-01,1,41,0.749439001083374,boat,boat,270,270_boat_20_n04273569_17522.png,True,-0.9641758258687684,1.2043355703353882,1.0,-0.29806238589000483,2.576892137527466,1.0,-1.8483816762096663,28.6726735830307,9.0,6.291666666666666,3.0,25.454554004164784,9.0
subject-02,1,276,1.10220384597778,airplane,boat,270,270_boat_20_n04273569_17522.png,False,0.7521757357404759,1.2043355703353882,1.0,-0.29806238589000483,2.576892137527466,1.0,-1.8483816762096663,28.6726735830307,9.0,6.291666666666666,3.0,25.454554004164784,9.0
subject-03,1,51,0.740180969238281,boat,boat,270,270_boat_20_n04273569_17522.png,True,-0.9417505007167327,1.2043355703353882,1.0,-0.29806238589000483,2.576892137527466,1.0,-1.8483816762096663,28.6726735830307,9.0,6.291666666666666,3.0,25.454554004164784,9.0
subject-04,1,1244,0.457690000534058,boat,boat,270,270_boat_20_n04273569_17522.png,True,-1.6117329348088956,1.2043355703353882,1.0,-0.29806238589000483,2.576892137527466,1.0,-1.8483816762096663,28.6726735830307,9.0,6.291666666666666,3.0,25.454554004164784,9.0
subject-01,1,42,1.10510993003845,bear,bear,180,180_bear_20_n02132136_5537.png,True,0.7658739047968518,0.3283787369728088,1.0,-0.054804467977442414,2.4097657203674316,1.0,-1.4503956863782934,26.85385352373123,10.0,10.25,3.0,16.522372083801447,9.0
subject-02,1,667,0.9984130859375,bear,bear,180,180_bear_20_n02132136_5537.png,True,0.3317613802654413,0.3283787369728088,1.0,-0.054804467977442414,2.4097657203674316,1.0,-1.4503956863782934,26.85385352373123,10.0,10.25,3.0,16.522372083801447,9.0
subject-03,1,269,0.680198907852173,bear,bear,180,180_bear_20_n02132136_5537.png,True,-1.2318073938871184,0.3283787369728088,1.0,-0.054804467977442414,2.4097657203674316,1.0,-1.4503956863782934,26.85385352373123,10.0,10.25,3.0,16.522372083801447,9.0
subject-04,1,117,0.775959014892578,dog,bear,180,180_bear_20_n02132136_5537.png,False,-0.1462105531744743,0.3283787369728088,1.0,-0.054804467977442414,2.4097657203674316,1.0,-1.4503956863782934,26.85385352373123,10.0,10.25,3.0,16.522372083801447,9.0
subject-01,1,43,0.820925951004028,bear,bear,90,90_bear_20_n02132136_19248.png,True,-0.6164499692189679,0.1232400089502334,1.0,-0.01615073709681373,2.4350290298461914,1.0,-1.4960426754339753,24.785804226994514,9.0,10.25,3.0,15.338891631336676,9.0
subject-02,1,916,0.79105806350708,bear,bear,90,90_bear_20_n02132136_19248.png,True,-0.5081498803878645,0.1232400089502334,1.0,-0.01615073709681373,2.4350290298461914,1.0,-1.4960426754339753,24.785804226994514,9.0,10.25,3.0,15.338891631336676,9.0
subject-03,1,807,0.837360143661499,bear,bear,90,90_bear_20_n02132136_19248.png,True,-0.47181851167392375,0.1232400089502334,1.0,-0.01615073709681373,2.4350290298461914,1.0,-1.4960426754339753,24.785804226994514,9.0,10.25,3.0,15.338891631336676,9.0
subject-04,1,462,0.73559308052063,bear,bear,90,90_bear_20_n02132136_19248.png,True,-0.33208218254722033,0.1232400089502334,1.0,-0.01615073709681373,2.4350290298461914,1.0,-1.4960426754339753,24.785804226994514,9.0,10.25,3.0,15.338891631336676,9.0
subject-01,1,44,0.824733018875122,bird,bird,270,270_bird_20_n01537544_1886.png,True,-0.5979316810800918,0.7214401364326477,1.0,-0.13747538255944136,2.5922088623046875,0.0666666666666666,-3.6284927602681933,29.037302315235138,10.0,3.8607142857142853,7.0,34.17939732339973,9.0
subject-02,1,562,0.927959203720093,bird,bird,270,270_bird_20_n01537544_1886.png,True,0.04638122242046513,0.7214401364326477,1.0,-0.13747538255944136,2.5922088623046875,0.0666666666666666,-3.6284927602681933,29.037302315235138,10.0,3.8607142857142853,7.0,34.17939732339973,9.0
subject-03,1,1078,1.08235692977905,bird,bird,270,270_bird_20_n01537544_1886.png,True,0.7129191411478022,0.7214401364326477,1.0,-0.13747538255944136,2.5922088623046875,0.0666666666666666,-3.6284927602681933,29.037302315235138,10.0,3.8607142857142853,7.0,34.17939732339973,9.0
subject-04,1,1235,0.661388874053955,bird,bird,270,270_bird_20_n01537544_1886.png,True,-0.6737677393631056,0.7214401364326477,1.0,-0.13747538255944136,2.5922088623046875,0.0666666666666666,-3.6284927602681933,29.037302315235138,10.0,3.8607142857142853,7.0,34.17939732339973,9.0
subject-01,1,45,0.678874015808105,clock,clock,180,180_clock_20_n03196217_4776.png,True,-1.3074170745380471,0.068015456199646,1.0,-0.008085725501161321,2.523671388626098,0.1666666666666666,-2.7228728326859253,25.56111553311348,9.0,5.015018315018315,6.0,28.2126368040834,9.0
subject-02,1,174,0.591275930404663,clock,clock,180,180_clock_20_n03196217_4776.png,True,-1.3173864318023074,0.068015456199646,1.0,-0.008085725501161321,2.523671388626098,0.1666666666666666,-2.7228728326859253,25.56111553311348,9.0,5.015018315018315,6.0,28.2126368040834,9.0
subject-03,1,195,0.726469993591309,clock,clock,180,180_clock_20_n03196217_4776.png,True,-1.0080530402859478,0.068015456199646,1.0,-0.008085725501161321,2.523671388626098,0.1666666666666666,-2.7228728326859253,25.56111553311348,9.0,5.015018315018315,6.0,28.2126368040834,9.0
subject-04,1,1078,0.505223989486694,clock,clock,180,180_clock_20_n03196217_4776.png,True,-1.392854811096924,0.068015456199646,1.0,-0.008085725501161321,2.523671388626098,0.1666666666666666,-2.7228728326859253,25.56111553311348,9.0,5.015018315018315,6.0,28.2126368040834,9.0
subject-01,1,46,0.632420063018799,boat,boat,270,270_boat_20_n04612504_17610.png,True,-1.5333777645151672,2.295840263366699,1.0,-1.3846991832871682,2.489616870880127,0.5,-1.8824686000016388,30.2592453956604,9.0,4.533333333333333,10.0,26.83861054087328,9.0
subject-02,1,888,0.754152059555054,boat,boat,270,270_boat_20_n04612504_17610.png,True,-0.6576411632210236,2.295840263366699,1.0,-1.3846991832871682,2.489616870880127,0.5,-1.8824686000016388,30.2592453956604,9.0,4.533333333333333,10.0,26.83861054087328,9.0
subject-03,1,468,0.68127703666687,boat,boat,270,270_boat_20_n04612504_17610.png,True,-1.2265938569195323,2.295840263366699,1.0,-1.3846991832871682,2.489616870880127,0.5,-1.8824686000016388,30.2592453956604,9.0,4.533333333333333,10.0,26.83861054087328,9.0
subject-04,1,636,1.01435399055481,boat,boat,270,270_boat_20_n04612504_17610.png,True,0.9515185902244376,2.295840263366699,1.0,-1.3846991832871682,2.489616870880127,0.5,-1.8824686000016388,30.2592453956604,9.0,4.533333333333333,10.0,26.83861054087328,9.0
subject-01,1,47,1.04631114006042,elephant,bear,90,90_bear_20_n02134418_1814.png,False,0.4798656244355298,1.675181865692139,1.0,-0.7731386792207161,2.490438461303711,1.0,-1.564043054486506,28.865886926651,9.0,9.75,4.0,18.376471914072347,9.0
subject-02,1,131,1.16783690452576,elephant,bear,90,90_bear_20_n02134418_1814.png,False,1.0180286883211833,1.675181865692139,1.0,-0.7731386792207161,2.490438461303711,1.0,-1.564043054486506,28.865886926651,9.0,9.75,4.0,18.376471914072347,9.0
subject-03,1,1272,0.916409015655518,bear,bear,90,90_bear_20_n02134418_1814.png,True,-0.08955972147304243,1.675181865692139,1.0,-0.7731386792207161,2.490438461303711,1.0,-1.564043054486506,28.865886926651,9.0,9.75,4.0,18.376471914072347,9.0
subject-04,1,156,0.658867120742798,cat,bear,90,90_bear_20_n02134418_1814.png,False,-0.6853795700840762,1.675181865692139,1.0,-0.7731386792207161,2.490438461303711,1.0,-1.564043054486506,28.865886926651,9.0,9.75,4.0,18.376471914072347,9.0
subject-01,1,48,0.710211038589478,keyboard,keyboard,180,180_keyboard_20_n03085013_20330.png,True,-1.1549879514099535,0.0736939758062362,1.0,-0.009108594963179355,2.537320852279663,0.1428571428571428,-2.838473338369274,25.670017883181572,9.0,5.38023088023088,6.0,24.970193346917288,6.0
subject-02,1,1098,0.678207159042358,keyboard,keyboard,180,180_keyboard_20_n03085013_20330.png,True,-0.9652632134716405,0.0736939758062362,1.0,-0.009108594963179355,2.537320852279663,0.1428571428571428,-2.838473338369274,25.670017883181572,9.0,5.38023088023088,6.0,24.970193346917288,6.0
subject-03,1,414,0.75157904624939,keyboard,keyboard,180,180_keyboard_20_n03085013_20330.png,True,-0.8866325082776673,0.0736939758062362,1.0,-0.009108594963179355,2.537320852279663,0.1428571428571428,-2.838473338369274,25.670017883181572,9.0,5.38023088023088,6.0,24.970193346917288,6.0
subject-04,1,896,0.724660873413086,keyboard,keyboard,180,180_keyboard_20_n03085013_20330.png,True,-0.3824213405361314,0.0736939758062362,1.0,-0.009108594963179355,2.537320852279663,0.1428571428571428,-2.838473338369274,25.670017883181572,9.0,5.38023088023088,6.0,24.970193346917288,6.0
subject-01,1,49,0.725833892822266,bottle,bottle,180,180_bottle_20_n02823428_14574.png,True,-1.0789954747769337,0.0759335607290268,1.0,-0.009737360507182507,2.573068618774414,0.1666666666666666,-2.6849060448264543,26.103785023093224,9.0,4.733272283272283,7.0,24.52055601850829,0.0
subject-02,1,67,0.803729057312012,bottle,bottle,180,180_bottle_20_n02823428_14574.png,True,-0.4568248135740045,0.0759335607290268,1.0,-0.009737360507182507,2.573068618774414,0.1666666666666666,-2.6849060448264543,26.103785023093224,9.0,4.733272283272283,7.0,24.52055601850829,0.0
subject-03,1,861,0.860985040664673,bottle,bottle,180,180_bottle_20_n02823428_14574.png,True,-0.3575749517185459,0.0759335607290268,1.0,-0.009737360507182507,2.573068618774414,0.1666666666666666,-2.6849060448264543,26.103785023093224,9.0,4.733272283272283,7.0,24.52055601850829,0.0
subject-04,1,1269,0.644778966903687,bottle,bottle,180,180_bottle_20_n02823428_14574.png,True,-0.7502508074200125,0.0759335607290268,1.0,-0.009737360507182507,2.573068618774414,0.1666666666666666,-2.6849060448264543,26.103785023093224,9.0,4.733272283272283,7.0,24.52055601850829,0.0
subject-01,1,50,0.77583909034729,bicycle,bicycle,0,0_bicycle_20_n03792782_7105.png,True,-0.8357608681021325,0.0771223083138465,1.0,-0.011218958798342938,2.469962358474731,0.5,-1.9201378013936443,25.377840466797352,9.0,7.833333333333333,6.0,19.250539095061676,9.0
subject-02,1,100,0.701608896255493,bicycle,bicycle,0,0_bicycle_20_n03792782_7105.png,True,-0.8704722488073665,0.0771223083138465,1.0,-0.011218958798342938,2.469962358474731,0.5,-1.9201378013936443,25.377840466797352,9.0,7.833333333333333,6.0,19.250539095061676,9.0
subject-03,1,330,0.806296825408936,bicycle,bicycle,0,0_bicycle_20_n03792782_7105.png,True,-0.6220322485093859,0.0771223083138465,1.0,-0.011218958798342938,2.469962358474731,0.5,-1.9201378013936443,25.377840466797352,9.0,7.833333333333333,6.0,19.250539095061676,9.0
subject-04,1,453,0.603271007537842,bicycle,bicycle,0,0_bicycle_20_n03792782_7105.png,True,-0.9413810799953184,0.0771223083138465,1.0,-0.011218958798342938,2.469962358474731,0.5,-1.9201378013936443,25.377840466797352,9.0,7.833333333333333,6.0,19.250539095061676,9.0
subject-01,1,51,0.915474891662598,elephant,elephant,0,0_elephant_20_n02504458_1302.png,True,-0.15654628858461536,0.0418373048305511,1.0,-0.0046476674291139365,2.4724984169006348,0.25,-2.1298298950151553,24.93109169602394,9.0,7.916666666666666,1.0,20.80033300546334,9.0
subject-02,1,1083,0.844743013381958,elephant,elephant,0,0_elephant_20_n02504458_1302.png,True,-0.2906938795685502,0.0418373048305511,1.0,-0.0046476674291139365,2.4724984169006348,0.25,-2.1298298950151553,24.93109169602394,9.0,7.916666666666666,1.0,20.80033300546334,9.0
subject-03,1,446,1.04941296577454,elephant,elephant,0,0_elephant_20_n02504458_1302.png,True,0.5536111142636456,0.0418373048305511,1.0,-0.0046476674291139365,2.4724984169006348,0.25,-2.1298298950151553,24.93109169602394,9.0,7.916666666666666,1.0,20.80033300546334,9.0
subject-04,1,1273,1.15641283988953,elephant,elephant,0,0_elephant_20_n02504458_1302.png,True,1.6056520867851307,0.0418373048305511,1.0,-0.0046476674291139365,2.4724984169006348,0.25,-2.1298298950151553,24.93109169602394,9.0,7.916666666666666,1.0,20.80033300546334,9.0
subject-01,1,52,0.849301099777222,airplane,airplane,90,90_airplane_20_n02690373_3877.png,True,-0.4784279536528272,2.162243366241455,1.0,-0.866563825724818,2.5148353576660156,0.5,-1.9829427716330321,30.54732394218445,10.0,4.19521312021312,8.0,29.549650534093384,3.0
subject-02,1,1267,0.785745143890381,airplane,airplane,90,90_airplane_20_n02690373_3877.png,True,-0.5296703671390774,2.162243366241455,1.0,-0.866563825724818,2.5148353576660156,0.5,-1.9829427716330321,30.54732394218445,10.0,4.19521312021312,8.0,29.549650534093384,3.0
subject-03,1,877,0.862018823623657,airplane,airplane,90,90_airplane_20_n02690373_3877.png,True,-0.35257585921711937,2.162243366241455,1.0,-0.866563825724818,2.5148353576660156,0.5,-1.9829427716330321,30.54732394218445,10.0,4.19521312021312,8.0,29.549650534093384,3.0
subject-04,1,619,0.711570978164673,airplane,airplane,90,90_airplane_20_n02690373_3877.png,True,-0.4426959308806058,2.162243366241455,1.0,-0.866563825724818,2.5148353576660156,0.5,-1.9829427716330321,30.54732394218445,10.0,4.19521312021312,8.0,29.549650534093384,3.0
subject-01,1,53,1.07718086242676,bicycle,boat,90,90_boat_20_n02951358_15422.png,False,0.6300217111939019,2.4439826011657715,0.5,-1.7928063169163284,2.538356304168701,1.0,-1.8861325102020918,30.898862600326538,9.0,3.8095238095238098,4.0,29.352406165403885,10.0
subject-02,1,1161,,na,boat,90,90_boat_20_n02951358_15422.png,False,,2.4439826011657715,0.5,-1.7928063169163284,2.538356304168701,1.0,-1.8861325102020918,30.898862600326538,9.0,3.8095238095238098,4.0,29.352406165403885,10.0
subject-03,1,1113,1.18803310394287,boat,boat,90,90_boat_20_n02951358_15422.png,True,1.2239403040048238,2.4439826011657715,0.5,-1.7928063169163284,2.538356304168701,1.0,-1.8861325102020918,30.898862600326538,9.0,3.8095238095238098,4.0,29.352406165403885,10.0
subject-04,1,991,0.912743806838989,car,boat,90,90_boat_20_n02951358_15422.png,False,0.4836376727632851,2.4439826011657715,0.5,-1.7928063169163284,2.538356304168701,1.0,-1.8861325102020918,30.898862600326538,9.0,3.8095238095238098,4.0,29.352406165403885,10.0
subject-01,1,54,0.852817058563232,car,car,270,270_car_20_n02814533_46458.png,True,-0.46132567439531647,2.616879463195801,0.1,-3.0749224928809924,2.5240559577941895,0.0833333333333333,-3.5908139935426804,31.09930396080017,9.0,0.624837662337662,8.0,42.01080411183385,1.0
subject-02,1,21,1.0709400177002,car,car,270,270_car_20_n02814533_46458.png,True,0.6255386226689458,2.616879463195801,0.1,-3.0749224928809924,2.5240559577941895,0.0833333333333333,-3.5908139935426804,31.09930396080017,9.0,0.624837662337662,8.0,42.01080411183385,1.0
subject-03,1,50,0.866450071334839,car,car,270,270_car_20_n02814533_46458.png,True,-0.33114755358253667,2.616879463195801,0.1,-3.0749224928809924,2.5240559577941895,0.0833333333333333,-3.5908139935426804,31.09930396080017,9.0,0.624837662337662,8.0,42.01080411183385,1.0
subject-04,1,384,0.772420883178711,car,car,270,270_car_20_n02814533_46458.png,True,-0.16250246656193842,2.616879463195801,0.1,-3.0749224928809924,2.5240559577941895,0.0833333333333333,-3.5908139935426804,31.09930396080017,9.0,0.624837662337662,8.0,42.01080411183385,1.0
subject-01,1,55,0.58676290512085,car,car,0,0_car_20_n02814533_39547.png,True,-1.7554626955393762,0.0281840339303016,1.0,-0.003119022974544462,2.518846273422241,0.125,-2.9591324174917037,24.552019700407982,9.0,5.056089743589744,6.0,29.52898382002349,8.0
subject-02,1,603,0.640455007553101,car,car,0,0_car_20_n02814533_39547.png,True,-1.1181818974661717,0.0281840339303016,1.0,-0.003119022974544462,2.518846273422241,0.125,-2.9591324174917037,24.552019700407982,9.0,5.056089743589744,6.0,29.52898382002349,8.0
subject-03,1,1178,0.918792963027954,car,car,0,0_car_20_n02814533_39547.png,True,-0.07803160202614011,0.0281840339303016,1.0,-0.003119022974544462,2.518846273422241,0.125,-2.9591324174917037,24.552019700407982,9.0,5.056089743589744,6.0,29.52898382002349,8.0
subject-04,1,776,0.69923210144043,car,car,0,0_car_20_n02814533_39547.png,True,-0.49951233206264556,0.0281840339303016,1.0,-0.003119022974544462,2.518846273422241,0.125,-2.9591324174917037,24.552019700407982,9.0,5.056089743589744,6.0,29.52898382002349,8.0
subject-01,1,56,1.13060688972473,boat,boat,180,180_boat_20_n04273569_6586.png,True,0.8898958718652157,2.562086582183838,1.0,-1.5207802922053018,2.4077951908111572,1.0,-1.5635958096669,29.251747369766235,9.0,7.7,4.0,22.867265313498564,9.0
subject-02,1,1090,0.841472148895264,boat,boat,180,180_boat_20_n04273569_6586.png,True,-0.30394282759134117,2.562086582183838,1.0,-1.5207802922053018,2.4077951908111572,1.0,-1.5635958096669,29.251747369766235,9.0,7.7,4.0,22.867265313498564,9.0
subject-03,1,947,0.674031019210815,boat,boat,180,180_boat_20_n04273569_6586.png,True,-1.2616336215190276,2.562086582183838,1.0,-1.5207802922053018,2.4077951908111572,1.0,-1.5635958096669,29.251747369766235,9.0,7.7,4.0,22.867265313498564,9.0
subject-04,1,230,0.582555055618286,boat,boat,180,180_boat_20_n04273569_6586.png,True,-1.036771111149192,2.562086582183838,1.0,-1.5207802922053018,2.4077951908111572,1.0,-1.5635958096669,29.251747369766235,9.0,7.7,4.0,22.867265313498564,9.0
subject-01,1,57,0.670358896255493,clock,clock,90,90_clock_20_n02708093_3394.png,True,-1.348836204102169,0.1933746039867401,1.0,-0.02784760638316304,2.50643253326416,0.1666666666666666,-2.850802426369098,27.390479296445847,10.0,4.003846153846153,8.0,30.893478518970984,9.0
subject-02,1,156,0.77300500869751,clock,clock,90,90_clock_20_n02708093_3394.png,True,-0.5812754977277446,0.1933746039867401,1.0,-0.02784760638316304,2.50643253326416,0.1666666666666666,-2.850802426369098,27.390479296445847,10.0,4.003846153846153,8.0,30.893478518970984,9.0
subject-03,1,442,0.620229005813599,clock,clock,90,90_clock_20_n02708093_3394.png,True,-1.5218054877683966,0.1933746039867401,1.0,-0.02784760638316304,2.50643253326416,0.1666666666666666,-2.850802426369098,27.390479296445847,10.0,4.003846153846153,8.0,30.893478518970984,9.0
subject-04,1,97,0.655691862106323,clock,clock,90,90_clock_20_n02708093_3394.png,True,-0.7000005742952814,0.1933746039867401,1.0,-0.02784760638316304,2.50643253326416,0.1666666666666666,-2.850802426369098,27.390479296445847,10.0,4.003846153846153,8.0,30.893478518970984,9.0
subject-01,1,58,0.792074918746948,keyboard,keyboard,180,180_keyboard_20_n03085013_25419.png,True,-0.7567867708024643,0.2865649759769439,1.0,-0.04598322973682216,2.485332727432251,0.125,-2.9555203875211324,24.08989705890417,9.0,5.178185703185703,6.0,24.77278438875718,6.0
subject-02,1,136,0.575107097625732,keyboard,keyboard,180,180_keyboard_20_n03085013_25419.png,True,-1.3828798284100576,0.2865649759769439,1.0,-0.04598322973682216,2.485332727432251,0.125,-2.9555203875211324,24.08989705890417,9.0,5.178185703185703,6.0,24.77278438875718,6.0
subject-03,1,316,0.715440988540649,keyboard,keyboard,180,180_keyboard_20_n03085013_25419.png,True,-1.0613863013614975,0.2865649759769439,1.0,-0.04598322973682216,2.485332727432251,0.125,-2.9555203875211324,24.08989705890417,9.0,5.178185703185703,6.0,24.77278438875718,6.0
subject-04,1,875,1.08244490623474,keyboard,keyboard,180,180_keyboard_20_n03085013_25419.png,True,1.2650544872581049,0.2865649759769439,1.0,-0.04598322973682216,2.485332727432251,0.125,-2.9555203875211324,24.08989705890417,9.0,5.178185703185703,6.0,24.77278438875718,6.0
subject-01,1,59,0.946245908737183,bottle,bottle,180,180_bottle_20_n04557648_1871.png,True,-0.00687032277376617,0.1379800587892532,1.0,-0.02000935637915244,2.493378162384033,0.1666666666666666,-2.8830136266561865,27.26276023685932,10.0,4.405891330891331,7.0,27.71300620093974,0.0
subject-02,1,1136,,na,bottle,180,180_bottle_20_n04557648_1871.png,False,,0.1379800587892532,1.0,-0.02000935637915244,2.493378162384033,0.1666666666666666,-2.8830136266561865,27.26276023685932,10.0,4.405891330891331,7.0,27.71300620093974,0.0
subject-03,1,703,1.20807290077209,knife,bottle,180,180_bottle_20_n04557648_1871.png,False,1.320847297091186,0.1379800587892532,1.0,-0.02000935637915244,2.493378162384033,0.1666666666666666,-2.8830136266561865,27.26276023685932,10.0,4.405891330891331,7.0,27.71300620093974,0.0
subject-04,1,802,0.790085792541504,bottle,bottle,180,180_bottle_20_n04557648_1871.png,True,-0.08116146611018173,0.1379800587892532,1.0,-0.02000935637915244,2.493378162384033,0.1666666666666666,-2.8830136266561865,27.26276023685932,10.0,4.405891330891331,7.0,27.71300620093974,0.0
subject-01,1,60,0.915585041046143,knife,chair,90,90_chair_20_n04099969_6944.png,False,-0.1560105014403162,1.5327664613723757,1.0,-0.46048458436648926,2.4537570476531982,0.0714285714285714,-4.03108591398213,29.498671889305115,10.0,4.4434523809523805,8.0,30.569286734907504,6.0
subject-02,1,169,0.956187009811401,chair,chair,90,90_chair_20_n04099969_6944.png,True,0.16072063856642962,1.5327664613723757,1.0,-0.46048458436648926,2.4537570476531982,0.0714285714285714,-4.03108591398213,29.498671889305115,10.0,4.4434523809523805,8.0,30.569286734907504,6.0
subject-03,1,940,1.22144103050232,chair,chair,90,90_chair_20_n04099969_6944.png,True,1.3854919272930284,1.5327664613723757,1.0,-0.46048458436648926,2.4537570476531982,0.0714285714285714,-4.03108591398213,29.498671889305115,10.0,4.4434523809523805,8.0,30.569286734907504,6.0
subject-04,1,687,0.816141128540039,chair,chair,90,90_chair_20_n04099969_6944.png,True,0.03881464323184852,1.5327664613723757,1.0,-0.46048458436648926,2.4537570476531982,0.0714285714285714,-4.03108591398213,29.498671889305115,10.0,4.4434523809523805,8.0,30.569286734907504,6.0
subject-01,1,61,0.675534963607788,boat,boat,270,270_boat_20_n04273569_1495.png,True,-1.3236588471698683,2.17402720451355,1.0,-1.3104322650147324,2.5239880084991455,0.3333333333333333,-2.0698245897283036,30.643220901489258,10.0,5.220634920634921,5.0,27.991192421344568,10.0
subject-02,1,624,0.64629602432251,boat,boat,270,270_boat_20_n04273569_1495.png,True,-1.0945223029177078,2.17402720451355,1.0,-1.3104322650147324,2.5239880084991455,0.3333333333333333,-2.0698245897283036,30.643220901489258,10.0,5.220634920634921,5.0,27.991192421344568,10.0
subject-03,1,327,0.784530878067017,boat,boat,270,270_boat_20_n04273569_1495.png,True,-0.7272864347946443,2.17402720451355,1.0,-1.3104322650147324,2.5239880084991455,0.3333333333333333,-2.0698245897283036,30.643220901489258,10.0,5.220634920634921,5.0,27.991192421344568,10.0
subject-04,1,920,0.565769195556641,boat,boat,270,270_boat_20_n04273569_1495.png,True,-1.1140643835241553,2.17402720451355,1.0,-1.3104322650147324,2.5239880084991455,0.3333333333333333,-2.0698245897283036,30.643220901489258,10.0,5.220634920634921,5.0,27.991192421344568,10.0
subject-01,1,62,0.647359848022461,keyboard,keyboard,90,90_keyboard_20_n03085013_7317.png,True,-1.460707864004259,0.0487435609102249,1.0,-0.005518855385641501,2.5396945476531982,0.25,-2.40040182155038,24.047222420573235,9.0,5.974747474747475,5.0,22.56855140959485,6.0
subject-02,1,414,0.858841180801392,keyboard,keyboard,90,90_keyboard_20_n03085013_7317.png,True,-0.23358791014776303,0.0487435609102249,1.0,-0.005518855385641501,2.5396945476531982,0.25,-2.40040182155038,24.047222420573235,9.0,5.974747474747475,5.0,22.56855140959485,6.0
subject-03,1,469,0.734984874725342,keyboard,keyboard,90,90_keyboard_20_n03085013_7317.png,True,-0.9668773969289365,0.0487435609102249,1.0,-0.005518855385641501,2.5396945476531982,0.25,-2.40040182155038,24.047222420573235,9.0,5.974747474747475,5.0,22.56855140959485,6.0
subject-04,1,851,0.656956911087036,keyboard,keyboard,90,90_keyboard_20_n03085013_7317.png,True,-0.6941754467727815,0.0487435609102249,1.0,-0.005518855385641501,2.5396945476531982,0.25,-2.40040182155038,24.047222420573235,9.0,5.974747474747475,5.0,22.56855140959485,6.0
subject-01,1,63,0.81305193901062,knife,knife,90,90_knife_20_n03041632_7448.png,True,-0.6547506320492831,0.0092152990400791,1.0,-0.0009160660134157764,2.5468358993530273,0.1,-3.2309901865131767,26.02992992475629,9.0,5.225,5.0,24.491874831362292,9.0
subject-02,1,314,1.14276599884033,knife,knife,90,90_knife_20_n03041632_7448.png,True,0.9164765978381301,0.0092152990400791,1.0,-0.0009160660134157764,2.5468358993530273,0.1,-3.2309901865131767,26.02992992475629,9.0,5.225,5.0,24.491874831362292,9.0
subject-03,1,584,0.881510972976685,knife,knife,90,90_knife_20_n03041632_7448.png,True,-0.2583171399950774,0.0092152990400791,1.0,-0.0009160660134157764,2.5468358993530273,0.1,-3.2309901865131767,26.02992992475629,9.0,5.225,5.0,24.491874831362292,9.0
subject-04,1,544,0.719500064849854,knife,knife,90,90_knife_20_n03041632_7448.png,True,-0.4061851381901104,0.0092152990400791,1.0,-0.0009160660134157764,2.5468358993530273,0.1,-3.2309901865131767,26.02992992475629,9.0,5.225,5.0,24.491874831362292,9.0
subject-01,1,64,1.13102507591248,car,truck,0,0_truck_20_n03417042_11000.png,False,0.891930007473686,0.4484046697616577,1.0,-0.07681719448029643,2.3849434852600098,0.2,-2.406916593862769,27.635449051856995,10.0,4.526190476190476,8.0,24.534979073906456,9.0
subject-02,1,402,0.977176904678345,clock,truck,0,0_truck_20_n03417042_11000.png,False,0.24574220617562997,0.4484046697616577,1.0,-0.07681719448029643,2.3849434852600098,0.2,-2.406916593862769,27.635449051856995,10.0,4.526190476190476,8.0,24.534979073906456,9.0
subject-03,1,256,1.00078988075256,car,truck,0,0_truck_20_n03417042_11000.png,False,0.3184831334653495,0.4484046697616577,1.0,-0.07681719448029643,2.3849434852600098,0.2,-2.406916593862769,27.635449051856995,10.0,4.526190476190476,8.0,24.534979073906456,9.0
subject-04,1,919,1.33802795410156,truck,truck,0,0_truck_20_n03417042_11000.png,True,2.4419289554500767,0.4484046697616577,1.0,-0.07681719448029643,2.3849434852600098,0.2,-2.406916593862769,27.635449051856995,10.0,4.526190476190476,8.0,24.534979073906456,9.0
subject-01,1,65,0.830668926239014,bird,bird,0,0_bird_20_n01582220_8827.png,True,-0.5690583206220752,0.4075159430503845,1.0,-0.06615216774285751,2.439408779144287,0.1111111111111111,-3.3214077185488207,25.90555649995804,9.0,4.336507936507936,7.0,30.276741690707407,9.0
subject-02,1,884,0.802695989608765,bird,bird,0,0_bird_20_n01582220_8827.png,True,-0.4610093526645183,0.4075159430503845,1.0,-0.06615216774285751,2.439408779144287,0.1111111111111111,-3.3214077185488207,25.90555649995804,9.0,4.336507936507936,7.0,30.276741690707407,9.0
subject-03,1,1214,0.847821950912476,bird,bird,0,0_bird_20_n01582220_8827.png,True,-0.42122806449618466,0.4075159430503845,1.0,-0.06615216774285751,2.439408779144287,0.1111111111111111,-3.3214077185488207,25.90555649995804,9.0,4.336507936507936,7.0,30.276741690707407,9.0
subject-04,1,725,0.586711883544922,bird,bird,0,0_bird_20_n01582220_8827.png,True,-1.0176303085945781,0.4075159430503845,1.0,-0.06615216774285751,2.439408779144287,0.1111111111111111,-3.3214077185488207,25.90555649995804,9.0,4.336507936507936,7.0,30.276741690707407,9.0
subject-01,1,66,1.19664120674133,airplane,airplane,270,270_airplane_20_n02690373_9247.png,True,1.2110991051597952,1.0951398611068726,0.3333333333333333,-3.1473664453626253,2.4823246002197266,0.3333333333333333,-2.134424209170176,29.36402118206024,10.0,2.417832167832168,3.0,32.49278160266222,3.0
subject-02,1,88,0.883844137191772,airplane,airplane,270,270_airplane_20_n02690373_9247.png,True,-0.13231105475377078,1.0951398611068726,0.3333333333333333,-3.1473664453626253,2.4823246002197266,0.3333333333333333,-2.134424209170176,29.36402118206024,10.0,2.417832167832168,3.0,32.49278160266222,3.0
subject-03,1,354,0.767472982406616,airplane,airplane,270,270_airplane_20_n02690373_9247.png,True,-0.8097737669226869,1.0951398611068726,0.3333333333333333,-3.1473664453626253,2.4823246002197266,0.3333333333333333,-2.134424209170176,29.36402118206024,10.0,2.417832167832168,3.0,32.49278160266222,3.0
subject-04,1,662,0.708855867385864,airplane,airplane,270,270_airplane_20_n02690373_9247.png,True,-0.455198108081177,1.0951398611068726,0.3333333333333333,-3.1473664453626253,2.4823246002197266,0.3333333333333333,-2.134424209170176,29.36402118206024,10.0,2.417832167832168,3.0,32.49278160266222,3.0
subject-01,1,67,0.656315088272095,bear,bear,270,270_bear_20_n02133161_14397.png,True,-1.4171479052878075,0.4705676436424255,1.0,-0.08936640727366357,2.427694320678711,1.0,-1.4897600797341737,26.936124980449677,10.0,9.333333333333334,4.0,16.867328048740063,10.0
subject-02,1,1158,0.620607852935791,bear,bear,270,270_bear_20_n02133161_14397.png,True,-1.198574686893781,0.4705676436424255,1.0,-0.08936640727366357,2.427694320678711,1.0,-1.4897600797341737,26.936124980449677,10.0,9.333333333333334,4.0,16.867328048740063,10.0
subject-03,1,975,0.913995981216431,bear,bear,270,270_bear_20_n02133161_14397.png,True,-0.10122849804291252,0.4705676436424255,1.0,-0.08936640727366357,2.427694320678711,1.0,-1.4897600797341737,26.936124980449677,10.0,9.333333333333334,4.0,16.867328048740063,10.0
subject-04,1,862,1.14684009552002,bear,bear,270,270_bear_20_n02133161_14397.png,True,1.561572800099125,0.4705676436424255,1.0,-0.08936640727366357,2.427694320678711,1.0,-1.4897600797341737,26.936124980449677,10.0,9.333333333333334,4.0,16.867328048740063,10.0
subject-01,1,68,0.638268947601318,oven,oven,270,270_oven_20_n04111531_13560.png,True,-1.5049276990954001,0.0168965905904769,1.0,-0.0017428079002798182,2.5165514945983887,0.0666666666666666,-4.130011329250999,26.000577434897423,9.0,5.065079365079365,6.0,27.18069284143907,6.0
subject-02,1,801,0.689421892166138,oven,oven,270,270_oven_20_n04111531_13560.png,True,-0.9198368691975572,0.0168965905904769,1.0,-0.0017428079002798182,2.5165514945983887,0.0666666666666666,-4.130011329250999,26.000577434897423,9.0,5.065079365079365,6.0,27.18069284143907,6.0
subject-03,1,409,1.1045560836792,oven,oven,270,270_oven_20_n04111531_13560.png,True,0.8202681962234596,0.0168965905904769,1.0,-0.0017428079002798182,2.5165514945983887,0.0666666666666666,-4.130011329250999,26.000577434897423,9.0,5.065079365079365,6.0,27.18069284143907,6.0
subject-04,1,1194,0.494931936264038,oven,oven,270,270_oven_20_n04111531_13560.png,True,-1.4402462745140454,0.0168965905904769,1.0,-0.0017428079002798182,2.5165514945983887,0.0666666666666666,-4.130011329250999,26.000577434897423,9.0,5.065079365079365,6.0,27.18069284143907,6.0
subject-01,1,69,0.712180852890015,bear,bear,180,180_bear_20_n02132136_545.png,True,-1.1454064072839905,0.8795148134231567,1.0,-0.27661432621232107,2.418020725250244,0.5,-1.6859665736388085,27.080493927001953,9.0,8.666666666666666,5.0,18.90338222373673,9.0
subject-02,1,760,1.23006892204285,bear,bear,180,180_bear_20_n02132136_545.png,True,1.270105400392709,0.8795148134231567,1.0,-0.27661432621232107,2.418020725250244,0.5,-1.6859665736388085,27.080493927001953,9.0,8.666666666666666,5.0,18.90338222373673,9.0
subject-03,1,378,1.19108486175537,bear,bear,180,180_bear_20_n02132136_545.png,True,1.238697772643726,0.8795148134231567,1.0,-0.27661432621232107,2.418020725250244,0.5,-1.6859665736388085,27.080493927001953,9.0,8.666666666666666,5.0,18.90338222373673,9.0
subject-04,1,243,0.877296924591064,bear,bear,180,180_bear_20_n02132136_545.png,True,0.32041663348556276,0.8795148134231567,1.0,-0.27661432621232107,2.418020725250244,0.5,-1.6859665736388085,27.080493927001953,9.0,8.666666666666666,5.0,18.90338222373673,9.0
subject-01,1,70,0.683822870254517,bear,cat,90,90_cat_20_n02125311_73072.png,False,-1.2833449235549121,0.8416221141815186,0.5,-2.2458269233022237,2.52644681930542,0.1111111111111111,-3.123846356636001,28.007158875465393,10.0,2.161111111111111,8.0,34.41822154879875,5.0
subject-02,1,1065,1.50002408027649,elephant,cat,90,90_cat_20_n02125311_73072.png,False,2.363584471284099,0.8416221141815186,0.5,-2.2458269233022237,2.52644681930542,0.1111111111111111,-3.123846356636001,28.007158875465393,10.0,2.161111111111111,8.0,34.41822154879875,5.0
subject-03,1,952,1.01317715644836,elephant,cat,90,90_cat_20_n02125311_73072.png,False,0.3783846210124407,0.8416221141815186,0.5,-2.2458269233022237,2.52644681930542,0.1111111111111111,-3.123846356636001,28.007158875465393,10.0,2.161111111111111,8.0,34.41822154879875,5.0
subject-04,1,62,0.928601980209351,cat,cat,90,90_cat_20_n02125311_73072.png,True,0.556659258144276,0.8416221141815186,0.5,-2.2458269233022237,2.52644681930542,0.1111111111111111,-3.123846356636001,28.007158875465393,10.0,2.161111111111111,8.0,34.41822154879875,5.0
subject-01,1,71,0.705695152282715,bicycle,bicycle,0,0_bicycle_20_n03792782_30530.png,True,-1.1769540646137648,0.0993237346410751,1.0,-0.013062424092989541,2.5118868350982666,0.5,-1.9057230262810514,24.68939296156168,9.0,8.333333333333332,6.0,17.777970477330214,8.0
subject-02,1,1072,1.00304388999939,bicycle,bicycle,0,0_bicycle_20_n03792782_30530.png,True,0.3505188930175893,0.0993237346410751,1.0,-0.013062424092989541,2.5118868350982666,0.5,-1.9057230262810514,24.68939296156168,9.0,8.333333333333332,6.0,17.777970477330214,8.0
subject-03,1,151,1.31512212753296,bicycle,bicycle,0,0_bicycle_20_n03792782_30530.png,True,1.8385081679084965,0.0993237346410751,1.0,-0.013062424092989541,2.5118868350982666,0.5,-1.9057230262810514,24.68939296156168,9.0,8.333333333333332,6.0,17.777970477330214,8.0
subject-04,1,2,0.575873136520386,bicycle,bicycle,0,0_bicycle_20_n03792782_30530.png,True,-1.0675391141543857,0.0993237346410751,1.0,-0.013062424092989541,2.5118868350982666,0.5,-1.9057230262810514,24.68939296156168,9.0,8.333333333333332,6.0,17.777970477330214,8.0
subject-01,1,72,1.01773595809937,knife,knife,90,90_knife_20_n03041632_4975.png,True,0.34087061013769304,0.0302491150796413,1.0,-0.003406658293695547,2.516099452972412,0.1111111111111111,-3.1171273600727107,27.03814673051238,10.0,6.555555555555555,5.0,23.202659512031644,5.0
subject-02,1,777,1.0847909450531,dog,knife,90,90_knife_20_n03041632_4975.png,False,0.6816431226604774,0.0302491150796413,1.0,-0.003406658293695547,2.516099452972412,0.1111111111111111,-3.1171273600727107,27.03814673051238,10.0,6.555555555555555,5.0,23.202659512031644,5.0
subject-03,1,1092,1.26558995246887,oven,knife,90,90_knife_20_n03041632_4975.png,False,1.5989840755539604,0.0302491150796413,1.0,-0.003406658293695547,2.516099452972412,0.1111111111111111,-3.1171273600727107,27.03814673051238,10.0,6.555555555555555,5.0,23.202659512031644,5.0
subject-04,1,1143,1.02051091194153,knife,knife,90,90_knife_20_n03041632_4975.png,True,0.9798691543294236,0.0302491150796413,1.0,-0.003406658293695547,2.516099452972412,0.1111111111111111,-3.1171273600727107,27.03814673051238,10.0,6.555555555555555,5.0,23.202659512031644,5.0
subject-01,1,73,1.40926289558411,cat,dog,90,90_dog_20_n02107683_3120.png,False,2.2453306533968536,1.6187477111816406,0.5,-1.9399429517504685,2.4918320178985596,0.1428571428571428,-2.956784669494184,29.98614501953125,10.0,1.1571789321789319,10.0,34.148585758462374,10.0
subject-02,1,804,0.986835956573486,cat,dog,90,90_dog_20_n02107683_3120.png,False,0.2848671155164969,1.6187477111816406,0.5,-1.9399429517504685,2.4918320178985596,0.1428571428571428,-2.956784669494184,29.98614501953125,10.0,1.1571789321789319,10.0,34.148585758462374,10.0
subject-03,1,405,1.23942899703979,cat,dog,90,90_dog_20_n02107683_3120.png,False,1.4724768285741938,1.6187477111816406,0.5,-1.9399429517504685,2.4918320178985596,0.1428571428571428,-2.956784669494184,29.98614501953125,10.0,1.1571789321789319,10.0,34.148585758462374,10.0
subject-04,1,1077,0.803384065628052,dog,dog,90,90_dog_20_n02107683_3120.png,True,-0.01992736550286012,1.6187477111816406,0.5,-1.9399429517504685,2.4918320178985596,0.1428571428571428,-2.956784669494184,29.98614501953125,10.0,1.1571789321789319,10.0,34.148585758462374,10.0
subject-01,1,74,1.089115858078,elephant,elephant,90,90_elephant_20_n02504013_7316.png,True,0.6880757559047959,2.561370372772217,0.125,-2.987661440647295,2.5085582733154297,0.25,-2.191373250180028,31.059154272079468,10.0,3.8726190476190476,1.0,30.82335725117344,0.0
subject-02,1,233,1.09626412391663,bear,elephant,90,90_elephant_20_n02504013_7316.png,False,0.7281163260100707,2.561370372772217,0.125,-2.987661440647295,2.5085582733154297,0.25,-2.191373250180028,31.059154272079468,10.0,3.8726190476190476,1.0,30.82335725117344,0.0
subject-03,1,163,0.950608015060425,elephant,elephant,90,90_elephant_20_n02504013_7316.png,True,0.07581731438889285,2.561370372772217,0.125,-2.987661440647295,2.5085582733154297,0.25,-2.191373250180028,31.059154272079468,10.0,3.8726190476190476,1.0,30.82335725117344,0.0
subject-04,1,627,0.995788097381592,elephant,elephant,90,90_elephant_20_n02504013_7316.png,True,0.8660288606155888,2.561370372772217,0.125,-2.987661440647295,2.5085582733154297,0.25,-2.191373250180028,31.059154272079468,10.0,3.8726190476190476,1.0,30.82335725117344,0.0
subject-01,1,75,1.15481901168823,boat,truck,90,90_truck_20_n03796401_7284.png,False,1.0076681486291885,2.0868000984191895,0.5,-1.9657808242232426,2.588216781616211,0.2,-2.579926814587641,30.023285627365112,9.0,2.4261904761904765,9.0,29.115271154255225,0.0
subject-02,1,620,1.01517295837402,oven,truck,90,90_truck_20_n03796401_7284.png,False,0.3996488392792194,2.0868000984191895,0.5,-1.9657808242232426,2.588216781616211,0.2,-2.579926814587641,30.023285627365112,9.0,2.4261904761904765,9.0,29.115271154255225,0.0
subject-03,1,1210,1.08613801002502,truck,truck,90,90_truck_20_n03796401_7284.png,True,0.7312034142059461,2.0868000984191895,0.5,-1.9657808242232426,2.588216781616211,0.2,-2.579926814587641,30.023285627365112,9.0,2.4261904761904765,9.0,29.115271154255225,0.0
subject-04,1,192,0.887968063354492,truck,truck,90,90_truck_20_n03796401_7284.png,True,0.36955365905134313,2.0868000984191895,0.5,-1.9657808242232426,2.588216781616211,0.2,-2.579926814587641,30.023285627365112,9.0,2.4261904761904765,9.0,29.115271154255225,0.0
subject-01,1,76,0.990966081619263,bicycle,chair,270,270_chair_20_n03376595_497.png,False,0.21065693838660499,1.1224340200424194,1.0,-0.2994981739288794,2.499661445617676,0.0909090909090909,-3.529282204964302,29.312981486320496,10.0,3.5961038961038962,9.0,29.582584940676238,10.0
subject-02,1,822,0.925351142883301,chair,chair,270,270_chair_20_n03376595_497.png,True,0.03581702368722473,1.1224340200424194,1.0,-0.2994981739288794,2.499661445617676,0.0909090909090909,-3.529282204964302,29.312981486320496,10.0,3.5961038961038962,9.0,29.582584940676238,10.0
subject-03,1,1121,1.13764500617981,bicycle,chair,270,270_chair_20_n03376595_497.png,False,0.980277202867993,1.1224340200424194,1.0,-0.2994981739288794,2.499661445617676,0.0909090909090909,-3.529282204964302,29.312981486320496,10.0,3.5961038961038962,9.0,29.582584940676238,10.0
subject-04,1,705,0.871018886566162,chair,chair,270,270_chair_20_n03376595_497.png,True,0.2915083677632777,1.1224340200424194,1.0,-0.2994981739288794,2.499661445617676,0.0909090909090909,-3.529282204964302,29.312981486320496,10.0,3.5961038961038962,9.0,29.582584940676238,10.0
subject-01,1,77,0.970529079437256,truck,truck,270,270_truck_20_n03796401_19845.png,True,0.11124754829540673,2.2872486114501953,1.0,-1.296672720227671,2.5710079669952393,0.3333333333333333,-2.182702629395726,30.224321126937866,9.0,5.959523809523809,5.0,25.609607762724977,9.0
subject-02,1,963,0.915670156478882,truck,truck,270,270_truck_20_n03796401_19845.png,True,-0.003396733471860309,2.2872486114501953,1.0,-1.296672720227671,2.5710079669952393,0.3333333333333333,-2.182702629395726,30.224321126937866,9.0,5.959523809523809,5.0,25.609607762724977,9.0
subject-03,1,39,1.14040493965149,truck,truck,270,270_truck_20_n03796401_19845.png,True,0.9936234885683014,2.2872486114501953,1.0,-1.296672720227671,2.5710079669952393,0.3333333333333333,-2.182702629395726,30.224321126937866,9.0,5.959523809523809,5.0,25.609607762724977,9.0
subject-04,1,86,0.799675941467285,truck,truck,270,270_truck_20_n03796401_19845.png,True,-0.03700203726264911,2.2872486114501953,1.0,-1.296672720227671,2.5710079669952393,0.3333333333333333,-2.182702629395726,30.224321126937866,9.0,5.959523809523809,5.0,25.609607762724977,9.0
subject-01,1,78,0.880265951156616,chair,chair,90,90_chair_20_n04099969_1941.png,True,-0.32780914163350716,0.4774666726589203,1.0,-0.10477724903686314,2.567396640777588,0.0833333333333333,-3.488441283082999,27.36350241303444,9.0,4.2559523809523805,7.0,27.245167408453504,9.0
subject-02,1,1037,0.92168402671814,chair,chair,90,90_chair_20_n04099969_1941.png,True,0.020963020513628822,0.4774666726589203,1.0,-0.10477724903686314,2.567396640777588,0.0833333333333333,-3.488441283082999,27.36350241303444,9.0,4.2559523809523805,7.0,27.245167408453504,9.0
subject-03,1,177,0.962211847305298,chair,chair,90,90_chair_20_n04099969_1941.png,True,0.1319302830338435,0.4774666726589203,1.0,-0.10477724903686314,2.567396640777588,0.0833333333333333,-3.488441283082999,27.36350241303444,9.0,4.2559523809523805,7.0,27.245167408453504,9.0
subject-04,1,859,0.759800910949707,chair,chair,90,90_chair_20_n04099969_1941.png,True,-0.2206132185447763,0.4774666726589203,1.0,-0.10477724903686314,2.567396640777588,0.0833333333333333,-3.488441283082999,27.36350241303444,9.0,4.2559523809523805,7.0,27.245167408453504,9.0
subject-01,1,79,0.846113920211792,truck,truck,90,90_truck_20_n03417042_28886.png,True,-0.4939309894644823,0.8322014808654785,1.0,-0.34124864733192795,2.512996196746826,0.2,-2.47239166297721,28.406928777694702,10.0,3.4039682539682534,9.0,26.941390123602723,9.0
subject-02,1,980,0.814547061920166,truck,truck,90,90_truck_20_n03417042_28886.png,True,-0.4130054559250389,0.8322014808654785,1.0,-0.34124864733192795,2.512996196746826,0.2,-2.47239166297721,28.406928777694702,10.0,3.4039682539682534,9.0,26.941390123602723,9.0
subject-03,1,979,0.855152130126953,truck,truck,90,90_truck_20_n03417042_28886.png,True,-0.38578131658188647,0.8322014808654785,1.0,-0.34124864733192795,2.512996196746826,0.2,-2.47239166297721,28.406928777694702,10.0,3.4039682539682534,9.0,26.941390123602723,9.0
subject-04,1,572,0.960039854049683,airplane,truck,90,90_truck_20_n03417042_28886.png,False,0.7014201543215771,0.8322014808654785,1.0,-0.34124864733192795,2.512996196746826,0.2,-2.47239166297721,28.406928777694702,10.0,3.4039682539682534,9.0,26.941390123602723,9.0
subject-01,1,80,0.9339919090271,car,car,0,0_car_20_n02814533_12185.png,True,-0.06647606272076993,0.4579015374183655,1.0,-0.15073450965509771,2.519672155380249,0.0909090909090909,-3.260954294196415,26.00526064634323,9.0,4.116504329004329,7.0,31.75367774403885,8.0
subject-02,1,1147,0.878140926361084,car,car,0,0_car_20_n02814533_12185.png,True,-0.1554124532269241,0.4579015374183655,1.0,-0.15073450965509771,2.519672155380249,0.0909090909090909,-3.260954294196415,26.00526064634323,9.0,4.116504329004329,7.0,31.75367774403885,8.0
subject-03,1,1107,1.17678594589233,car,car,0,0_car_20_n02814533_12185.png,True,1.1695521145070304,0.4579015374183655,1.0,-0.15073450965509771,2.519672155380249,0.0909090909090909,-3.260954294196415,26.00526064634323,9.0,4.116504329004329,7.0,31.75367774403885,8.0
subject-04,1,610,0.854955911636353,car,car,0,0_car_20_n02814533_12185.png,True,0.21754373968688595,0.4579015374183655,1.0,-0.15073450965509771,2.519672155380249,0.0909090909090909,-3.260954294196415,26.00526064634323,9.0,4.116504329004329,7.0,31.75367774403885,8.0
subject-01,1,81,0.73320198059082,bicycle,bicycle,90,90_bicycle_20_n02835271_1621.png,True,-1.0431557217306069,0.0548957251012325,1.0,-0.006465129362582656,2.5485570430755615,1.0,-1.7443562617584625,25.841969039291143,9.0,8.5,3.0,19.02719232883342,9.0
subject-02,1,1272,1.03666400909424,bicycle,bicycle,90,90_bicycle_20_n02835271_1621.png,True,0.4867003863872289,0.0548957251012325,1.0,-0.006465129362582656,2.5485570430755615,1.0,-1.7443562617584625,25.841969039291143,9.0,8.5,3.0,19.02719232883342,9.0
subject-03,1,398,0.706975936889648,bicycle,bicycle,90,90_bicycle_20_n02835271_1621.png,True,-1.1023209829258902,0.0548957251012325,1.0,-0.006465129362582656,2.5485570430755615,1.0,-1.7443562617584625,25.841969039291143,9.0,8.5,3.0,19.02719232883342,9.0
subject-04,1,480,0.606261968612671,bicycle,bicycle,90,90_bicycle_20_n02835271_1621.png,True,-0.9276087044261982,0.0548957251012325,1.0,-0.006465129362582656,2.5485570430755615,1.0,-1.7443562617584625,25.841969039291143,9.0,8.5,3.0,19.02719232883342,9.0
subject-01,1,82,0.7153000831604,cat,cat,0,0_cat_20_n02123597_32226.png,True,-1.1302338895159016,0.0007541230879724,1.0,-5.769896069559632e-05,2.4645934104919434,0.125,-3.0949638474656957,22.488453072146513,8.0,4.632575757575758,7.0,24.792905293175366,8.0
subject-02,1,521,0.79906702041626,cat,cat,0,0_cat_20_n02123597_32226.png,True,-0.47570883789339274,0.0007541230879724,1.0,-5.769896069559632e-05,2.4645934104919434,0.125,-3.0949638474656957,22.488453072146513,8.0,4.632575757575758,7.0,24.792905293175366,8.0
subject-03,1,926,0.752080917358398,cat,cat,0,0_cat_20_n02123597_32226.png,True,-0.8842055964429141,0.0007541230879724,1.0,-5.769896069559632e-05,2.4645934104919434,0.125,-3.0949638474656957,22.488453072146513,8.0,4.632575757575758,7.0,24.792905293175366,8.0
subject-04,1,105,0.620080232620239,cat,cat,0,0_cat_20_n02123597_32226.png,True,-0.8639802195130795,0.0007541230879724,1.0,-5.769896069559632e-05,2.4645934104919434,0.125,-3.0949638474656957,22.488453072146513,8.0,4.632575757575758,7.0,24.792905293175366,8.0
subject-01,1,83,0.789007902145386,bicycle,bicycle,90,90_bicycle_20_n03792782_5048.png,True,-0.771705311547608,0.1371867954730987,1.0,-0.022198331514410252,2.530510425567627,0.5,-1.8462847378718237,27.05287817120552,9.0,7.666666666666666,6.0,20.19931901891955,9.0
subject-02,1,1268,1.0032639503479,bicycle,bicycle,90,90_bicycle_20_n03792782_5048.png,True,0.35141026841120315,0.1371867954730987,1.0,-0.022198331514410252,2.530510425567627,0.5,-1.8462847378718237,27.05287817120552,9.0,7.666666666666666,6.0,20.19931901891955,9.0
subject-03,1,1042,0.889034986495972,bicycle,bicycle,90,90_bicycle_20_n03792782_5048.png,True,-0.22193306223675924,0.1371867954730987,1.0,-0.022198331514410252,2.530510425567627,0.5,-1.8462847378718237,27.05287817120552,9.0,7.666666666666666,6.0,20.19931901891955,9.0
subject-04,1,1014,0.582085132598877,bicycle,bicycle,90,90_bicycle_20_n03792782_5048.png,True,-1.0389349495108287,0.1371867954730987,1.0,-0.022198331514410252,2.530510425567627,0.5,-1.8462847378718237,27.05287817120552,9.0,7.666666666666666,6.0,20.19931901891955,9.0
subject-01,1,84,0.832736968994141,airplane,airplane,0,0_airplane_20_n02690373_10044.png,True,-0.5589989749734904,0.01110683940351,1.0,-0.0010575878193461218,2.364955425262451,1.0,-1.432860352861005,23.774689316749573,9.0,7.695609945609945,3.0,20.34380371499542,3.0
subject-02,1,532,0.81148886680603,airplane,airplane,0,0_airplane_20_n02690373_10044.png,True,-0.42539296640600466,0.01110683940351,1.0,-0.0010575878193461218,2.364955425262451,1.0,-1.432860352861005,23.774689316749573,9.0,7.695609945609945,3.0,20.34380371499542,3.0
subject-03,1,132,0.680885076522827,airplane,airplane,0,0_airplane_20_n02690373_10044.png,True,-1.2284892692978413,0.01110683940351,1.0,-0.0010575878193461218,2.364955425262451,1.0,-1.432860352861005,23.774689316749573,9.0,7.695609945609945,3.0,20.34380371499542,3.0
subject-04,1,653,0.584743022918701,airplane,airplane,0,0_airplane_20_n02690373_10044.png,True,-1.0266962533893025,0.01110683940351,1.0,-0.0010575878193461218,2.364955425262451,1.0,-1.432860352861005,23.774689316749573,9.0,7.695609945609945,3.0,20.34380371499542,3.0
subject-01,1,85,0.976622104644775,car,car,180,180_car_20_n03100240_5752.png,True,0.14088515924712575,0.5045814514160156,1.0,-0.13666421029590836,2.5057713985443115,0.1,-3.139445664544024,27.497562646865845,9.0,3.3342032967032966,8.0,33.65175052286888,9.0
subject-02,1,1188,0.832596063613892,car,car,180,180_car_20_n03100240_5752.png,True,-0.3398962561167824,0.5045814514160156,1.0,-0.13666421029590836,2.5057713985443115,0.1,-3.139445664544024,27.497562646865845,9.0,3.3342032967032966,8.0,33.65175052286888,9.0
subject-03,1,94,0.867776870727539,car,car,180,180_car_20_n03100240_5752.png,True,-0.3247315135063275,0.5045814514160156,1.0,-0.13666421029590836,2.5057713985443115,0.1,-3.139445664544024,27.497562646865845,9.0,3.3342032967032966,8.0,33.65175052286888,9.0
subject-04,1,827,0.945488214492798,car,car,180,180_car_20_n03100240_5752.png,True,0.6344147202453936,0.5045814514160156,1.0,-0.13666421029590836,2.5057713985443115,0.1,-3.139445664544024,27.497562646865845,9.0,3.3342032967032966,8.0,33.65175052286888,9.0
subject-01,1,86,0.710433959960938,car,car,90,90_car_20_n02814533_68219.png,True,-1.1539036202845867,0.9196180105209352,0.5,-2.162453975772443,2.4843363761901855,0.0769230769230769,-3.5670103625249365,29.085498690605164,10.0,1.200869963369963,8.0,41.63829922837644,9.0
subject-02,1,469,0.948647975921631,car,car,90,90_car_20_n02814533_68219.png,True,0.13018306400351026,0.9196180105209352,0.5,-2.162453975772443,2.4843363761901855,0.0769230769230769,-3.5670103625249365,29.085498690605164,10.0,1.200869963369963,8.0,41.63829922837644,9.0
subject-03,1,989,1.07734394073486,car,car,90,90_car_20_n02814533_68219.png,True,0.6886776930539271,0.9196180105209352,0.5,-2.162453975772443,2.4843363761901855,0.0769230769230769,-3.5670103625249365,29.085498690605164,10.0,1.200869963369963,8.0,41.63829922837644,9.0
subject-04,1,603,0.878258943557739,car,car,90,90_car_20_n02814533_68219.png,True,0.3248464091269669,0.9196180105209352,0.5,-2.162453975772443,2.4843363761901855,0.0769230769230769,-3.5670103625249365,29.085498690605164,10.0,1.200869963369963,8.0,41.63829922837644,9.0
subject-01,1,87,0.944056034088135,airplane,airplane,0,0_airplane_20_n02690373_1171.png,True,-0.017522281475893964,0.01631685718894,1.0,-0.001616293348832966,2.359076023101806,1.0,-1.3432510577628636,23.66875863657333,9.0,7.695609945609945,3.0,19.999629927417015,3.0
subject-02,1,256,0.967757940292358,airplane,airplane,0,0_airplane_20_n02690373_1171.png,True,0.20758979414935474,0.01631685718894,1.0,-0.001616293348832966,2.359076023101806,1.0,-1.3432510577628636,23.66875863657333,9.0,7.695609945609945,3.0,19.999629927417015,3.0
subject-03,1,1096,0.888861894607544,airplane,airplane,0,0_airplane_20_n02690373_1171.png,True,-0.22277008741112359,0.01631685718894,1.0,-0.001616293348832966,2.359076023101806,1.0,-1.3432510577628636,23.66875863657333,9.0,7.695609945609945,3.0,19.999629927417015,3.0
subject-04,1,911,0.565335988998413,airplane,airplane,0,0_airplane_20_n02690373_1171.png,True,-1.1160591548600753,0.01631685718894,1.0,-0.001616293348832966,2.359076023101806,1.0,-1.3432510577628636,23.66875863657333,9.0,7.695609945609945,3.0,19.999629927417015,3.0
subject-01,1,88,1.13441491127014,bird,bird,90,90_bird_20_n01817953_6970.png,True,0.908418798853825,1.8086423873901367,0.5,-1.5256633059777907,2.546988010406494,0.0666666666666666,-3.8627546240909783,30.305367946624756,10.0,0.6863095238095236,10.0,41.36124675813119,10.0
subject-02,1,558,1.12594413757324,cat,bird,90,90_bird_20_n01817953_6970.png,False,0.8483380471641635,1.8086423873901367,0.5,-1.5256633059777907,2.546988010406494,0.0666666666666666,-3.8627546240909783,30.305367946624756,10.0,0.6863095238095236,10.0,41.36124675813119,10.0
subject-03,1,592,1.23603987693787,bird,bird,90,90_bird_20_n01817953_6970.png,True,1.4560879678943923,1.8086423873901367,0.5,-1.5256633059777907,2.546988010406494,0.0666666666666666,-3.8627546240909783,30.305367946624756,10.0,0.6863095238095236,10.0,41.36124675813119,10.0
subject-04,1,982,0.82431697845459,dog,bird,90,90_bird_20_n01817953_6970.png,False,0.07646169807571448,1.8086423873901367,0.5,-1.5256633059777907,2.546988010406494,0.0666666666666666,-3.8627546240909783,30.305367946624756,10.0,0.6863095238095236,10.0,41.36124675813119,10.0
subject-01,1,89,0.831950187683105,car,car,90,90_car_20_n04285008_15503.png,True,-0.5628260260041985,1.8972408771514893,0.0833333333333333,-4.140829354261029,2.5486464500427246,0.0833333333333333,-3.2958637145319307,29.58091711997986,9.0,0.18108974358974328,7.0,45.279258593037156,0.0
subject-02,1,807,0.760190963745117,car,car,90,90_car_20_n04285008_15503.png,True,-0.6331800068343135,1.8972408771514893,0.0833333333333333,-4.140829354261029,2.5486464500427246,0.0833333333333333,-3.2958637145319307,29.58091711997986,9.0,0.18108974358974328,7.0,45.279258593037156,0.0
subject-03,1,1262,0.964354991912842,car,car,90,90_car_20_n04285008_15503.png,True,0.14229394597096065,1.8972408771514893,0.0833333333333333,-4.140829354261029,2.5486464500427246,0.0833333333333333,-3.2958637145319307,29.58091711997986,9.0,0.18108974358974328,7.0,45.279258593037156,0.0
subject-04,1,649,0.73570704460144,car,car,90,90_car_20_n04285008_15503.png,True,-0.33155741606479644,1.8972408771514893,0.0833333333333333,-4.140829354261029,2.5486464500427246,0.0833333333333333,-3.2958637145319307,29.58091711997986,9.0,0.18108974358974328,7.0,45.279258593037156,0.0
subject-01,1,90,0.592129945755005,boat,boat,270,270_boat_20_n03344393_11886.png,True,-1.729356408947806,0.4490927755832672,1.0,-0.08642384782121283,2.497766494750977,0.5,-1.7584151616359514,27.92192581295967,10.0,5.684523809523809,9.0,24.633153689082935,9.0
subject-02,1,921,0.537629842758179,boat,boat,270,270_boat_20_n03344393_11886.png,True,-1.5346850174654334,0.4490927755832672,1.0,-0.08642384782121283,2.497766494750977,0.5,-1.7584151616359514,27.92192581295967,10.0,5.684523809523809,9.0,24.633153689082935,9.0
subject-03,1,439,0.668539047241211,boat,boat,270,270_boat_20_n03344393_11886.png,True,-1.288191300432862,0.4490927755832672,1.0,-0.08642384782121283,2.497766494750977,0.5,-1.7584151616359514,27.92192581295967,10.0,5.684523809523809,9.0,24.633153689082935,9.0
subject-04,1,1000,1.02096700668335,boat,boat,270,270_boat_20_n03344393_11886.png,True,0.9819693180969525,0.4490927755832672,1.0,-0.08642384782121283,2.497766494750977,0.5,-1.7584151616359514,27.92192581295967,10.0,5.684523809523809,9.0,24.633153689082935,9.0
subject-01,1,91,1.26144409179688,boat,boat,0,0_boat_20_n04273569_30203.png,True,1.5263124237351529,0.1966617405414581,1.0,-0.027829710500183985,2.387181520462036,0.5,-1.7580444259565582,25.717002660036087,9.0,6.7,6.0,21.02877416210566,9.0
subject-02,1,925,1.03905510902405,boat,boat,0,0_boat_20_n04273569_30203.png,True,0.49638576430986237,0.1966617405414581,1.0,-0.027829710500183985,2.387181520462036,0.5,-1.7580444259565582,25.717002660036087,9.0,6.7,6.0,21.02877416210566,9.0
subject-03,1,184,0.536629915237427,boat,boat,0,0_boat_20_n04273569_30203.png,True,-1.926067894295327,0.1966617405414581,1.0,-0.027829710500183985,2.387181520462036,0.5,-1.7580444259565582,25.717002660036087,9.0,6.7,6.0,21.02877416210566,9.0
subject-04,1,650,0.61335301399231,boat,boat,0,0_boat_20_n04273569_30203.png,True,-0.8949568117058471,0.1966617405414581,1.0,-0.027829710500183985,2.387181520462036,0.5,-1.7580444259565582,25.717002660036087,9.0,6.7,6.0,21.02877416210566,9.0
subject-01,1,92,1.09711909294128,keyboard,keyboard,180,180_keyboard_20_n03085013_22069.png,True,0.7270049828740879,0.0272058956325054,1.0,-0.003056543495221541,2.4793174266815186,0.1428571428571428,-2.85760799514025,24.207122217863798,9.0,5.401695526695526,6.0,23.534920517209837,6.0
subject-02,1,737,0.78997015953064,keyboard,keyboard,180,180_keyboard_20_n03085013_22069.png,True,-0.512556539023915,0.0272058956325054,1.0,-0.003056543495221541,2.4793174266815186,0.1428571428571428,-2.85760799514025,24.207122217863798,9.0,5.401695526695526,6.0,23.534920517209837,6.0
subject-03,1,1081,0.983741998672485,keyboard,keyboard,180,180_keyboard_20_n03085013_22069.png,True,0.2360442242812971,0.0272058956325054,1.0,-0.003056543495221541,2.4793174266815186,0.1428571428571428,-2.85760799514025,24.207122217863798,9.0,5.401695526695526,6.0,23.534920517209837,6.0
subject-04,1,972,1.03582715988159,keyboard,keyboard,180,180_keyboard_20_n03085013_22069.png,True,1.050395354324296,0.0272058956325054,1.0,-0.003056543495221541,2.4793174266815186,0.1428571428571428,-2.85760799514025,24.207122217863798,9.0,5.401695526695526,6.0,23.534920517209837,6.0
subject-01,1,93,0.923164129257202,knife,knife,0,0_knife_20_n03041632_26314.png,True,-0.11914440289030004,0.0124897640198469,1.0,-0.0012016957347629217,2.477203845977783,0.1,-3.1440982455413597,24.666238491423428,9.0,5.951190476190476,6.0,21.92925215977015,5.0
subject-02,1,191,1.03632402420044,knife,knife,0,0_knife_20_n03041632_26314.png,True,0.485323245204885,0.0124897640198469,1.0,-0.0012016957347629217,2.477203845977783,0.1,-3.1440982455413597,24.666238491423428,9.0,5.951190476190476,6.0,21.92925215977015,5.0
subject-03,1,368,0.982764005661011,knife,knife,0,0_knife_20_n03041632_26314.png,True,0.23131491675342658,0.0124897640198469,1.0,-0.0012016957347629217,2.477203845977783,0.1,-3.1440982455413597,24.666238491423428,9.0,5.951190476190476,6.0,21.92925215977015,5.0
subject-04,1,502,0.849467039108276,knife,knife,0,0_knife_20_n03041632_26314.png,True,0.19226931717972448,0.0124897640198469,1.0,-0.0012016957347629217,2.477203845977783,0.1,-3.1440982455413597,24.666238491423428,9.0,5.951190476190476,6.0,21.92925215977015,5.0
subject-01,1,94,0.884984016418457,boat,bicycle,270,270_bicycle_20_n03792782_18308.png,False,-0.3048595922860487,1.076781988143921,1.0,-0.2579738538792276,2.434849262237549,0.5,-1.7597878548318766,29.020033836364746,10.0,8.416666666666666,7.0,20.848959357652856,10.0
