subject_id,Session,trial,rt,object_response,category,condition,item_id,response_correct,rt_zscore,output_entropy,output_rank_correct,output_logprob_correct,midpoint_entropy,midpoint_rank_correct,midpoint_logprob_correct,auc_entropy,layer_biggest_change_entropy,auc_rank_correct,layer_biggest_change_rank_correct,auc_logprob_correct,layer_biggest_change_logprob_correct
subject-04,1,1,0.963965892791748,bear,airplane,2-0-10,2-0-10_airplane_10_n02690373_1979.png,False,0.5092380441912029,1.5466220378875732,1.0,-0.45166130156930623,2.535261631011963,0.2,-2.5539642433699212,29.152721285820007,9.0,3.318885281385281,8.0,31.760364618653817,9.0
subject-03,1,700,1.42077016830444,bear,airplane,2-0-10,2-0-10_airplane_10_n02690373_1979.png,False,1.2371109044770374,1.5466220378875732,1.0,-0.45166130156930623,2.535261631011963,0.2,-2.5539642433699212,29.152721285820007,9.0,3.318885281385281,8.0,31.760364618653817,9.0
subject-02,1,1098,1.18462204933167,truck,airplane,2-0-10,2-0-10_airplane_10_n02690373_1979.png,False,1.2073034411856642,1.5466220378875732,1.0,-0.45166130156930623,2.535261631011963,0.2,-2.5539642433699212,29.152721285820007,9.0,3.318885281385281,8.0,31.760364618653817,9.0
subject-01,1,427,1.39530611038208,clock,airplane,2-0-10,2-0-10_airplane_10_n02690373_1979.png,False,2.053386244619925,1.5466220378875732,1.0,-0.45166130156930623,2.535261631011963,0.2,-2.5539642433699212,29.152721285820007,9.0,3.318885281385281,8.0,31.760364618653817,9.0
subject-04,1,2,1.4842050075531,bear,elephant,32-0-10,32-0-10_elephant_10_n02504458_10344.png,False,3.370611339910802,2.2095134258270264,0.0625,-4.525108229638279,2.535667181015014,0.25,-2.2952038274605138,30.468180656433105,10.0,2.9629329004329,1.0,32.70250142148379,0.0
subject-03,1,871,0.616812944412231,cat,elephant,32-0-10,32-0-10_elephant_10_n02504458_10344.png,False,-1.6388177673023816,2.2095134258270264,0.0625,-4.525108229638279,2.535667181015014,0.25,-2.2952038274605138,30.468180656433105,10.0,2.9629329004329,1.0,32.70250142148379,0.0
subject-02,1,198,0.720978975296021,cat,elephant,32-0-10,32-0-10_elephant_10_n02504458_10344.png,False,-1.0662009212509547,2.2095134258270264,0.0625,-4.525108229638279,2.535667181015014,0.25,-2.2952038274605138,30.468180656433105,10.0,2.9629329004329,1.0,32.70250142148379,0.0
subject-01,1,948,1.16198897361755,elephant,elephant,32-0-10,32-0-10_elephant_10_n02504458_10344.png,True,0.9723733983144607,2.2095134258270264,0.0625,-4.525108229638279,2.535667181015014,0.25,-2.2952038274605138,30.468180656433105,10.0,2.9629329004329,1.0,32.70250142148379,0.0
subject-04,1,3,0.701827049255371,clock,clock,2-0-10,2-0-10_clock_10_n02708093_1701.png,True,-0.9325549032881282,0.9179590344429016,1.0,-0.19073473434949315,2.5741522312164307,0.2,-2.7028895070766734,26.363921269774437,9.0,4.980036630036629,6.0,28.77556899639356,6.0
subject-03,1,747,0.861590147018433,clock,clock,2-0-10,2-0-10_clock_10_n02708093_1701.png,True,-0.7631968334359797,0.9179590344429016,1.0,-0.19073473434949315,2.5741522312164307,0.2,-2.7028895070766734,26.363921269774437,9.0,4.980036630036629,6.0,28.77556899639356,6.0
subject-02,1,261,0.648808002471924,clock,clock,2-0-10,2-0-10_clock_10_n02708093_1701.png,True,-1.42009604175536,0.9179590344429016,1.0,-0.19073473434949315,2.5741522312164307,0.2,-2.7028895070766734,26.363921269774437,9.0,4.980036630036629,6.0,28.77556899639356,6.0
subject-01,1,171,0.845826864242554,clock,clock,2-0-10,2-0-10_clock_10_n02708093_1701.png,True,-0.492479576005778,0.9179590344429016,1.0,-0.19073473434949315,2.5741522312164307,0.2,-2.7028895070766734,26.363921269774437,9.0,4.980036630036629,6.0,28.77556899639356,6.0
subject-04,1,4,1.33755588531494,boat,clock,8-0-10,8-0-10_clock_10_n02708093_6822.png,False,2.5640247717219027,2.529579162597656,0.125,-2.941137843893466,2.496107339859009,0.1,-3.2810165069751083,30.642070770263672,5.0,0.43076923076923057,9.0,40.5185090185743,6.0
subject-03,1,1244,1.2310779094696,car,clock,8-0-10,8-0-10_clock_10_n02708093_6822.png,False,0.5585407146893493,2.529579162597656,0.125,-2.941137843893466,2.496107339859009,0.1,-3.2810165069751083,30.642070770263672,5.0,0.43076923076923057,9.0,40.5185090185743,6.0
subject-02,1,1017,1.46321201324463,boat,clock,8-0-10,8-0-10_clock_10_n02708093_6822.png,False,2.573387685201516,2.529579162597656,0.125,-2.941137843893466,2.496107339859009,0.1,-3.2810165069751083,30.642070770263672,5.0,0.43076923076923057,9.0,40.5185090185743,6.0
subject-01,1,65,0.786207914352417,clock,clock,8-0-10,8-0-10_clock_10_n02708093_6822.png,True,-0.7687081103012396,2.529579162597656,0.125,-2.941137843893466,2.496107339859009,0.1,-3.2810165069751083,30.642070770263672,5.0,0.43076923076923057,9.0,40.5185090185743,6.0
subject-04,1,5,0.827467918395996,cat,chair,128-0-10,128-0-10_chair_10_n03376595_8409.png,False,-0.2415160759310193,2.129751443862915,0.2,-2.928117486704848,2.516706943511963,0.0769230769230769,-3.8431778873859117,30.487802267074585,10.0,1.2358516483516482,0.0,37.3318215566092,6.0
subject-03,1,823,1.42801284790039,bottle,chair,128-0-10,128-0-10_chair_10_n03376595_8409.png,False,1.2630195340551913,2.129751443862915,0.2,-2.928117486704848,2.516706943511963,0.0769230769230769,-3.8431778873859117,30.487802267074585,10.0,1.2358516483516482,0.0,37.3318215566092,6.0
subject-02,1,103,0.719182014465332,cat,chair,128-0-10,128-0-10_chair_10_n03376595_8409.png,False,-1.0750124370838965,2.129751443862915,0.2,-2.928117486704848,2.516706943511963,0.0769230769230769,-3.8431778873859117,30.487802267074585,10.0,1.2358516483516482,0.0,37.3318215566092,6.0
subject-01,1,933,1.1671359539032,boat,chair,128-0-10,128-0-10_chair_10_n03376595_8409.png,False,0.9962205613888301,2.129751443862915,0.2,-2.928117486704848,2.516706943511963,0.0769230769230769,-3.8431778873859117,30.487802267074585,10.0,1.2358516483516482,0.0,37.3318215566092,6.0
subject-04,1,6,1.45340204238892,bottle,car,16-0-10,16-0-10_car_10_n03100240_7788.png,False,3.201191587629782,2.509418487548828,0.0666666666666666,-4.091442440074892,2.5038280487060547,0.0769230769230769,-3.6686548810715376,30.568516969680786,5.0,0.040613553113552886,4.0,47.524204939016165,0.0
subject-03,1,673,1.07378888130188,bear,car,16-0-10,16-0-10_car_10_n03100240_7788.png,False,-0.004116118809687405,2.509418487548828,0.0666666666666666,-4.091442440074892,2.5038280487060547,0.0769230769230769,-3.6686548810715376,30.568516969680786,5.0,0.040613553113552886,4.0,47.524204939016165,0.0
subject-02,1,600,0.958242893218994,cat,car,16-0-10,16-0-10_car_10_n03100240_7788.png,False,0.0972383333278979,2.509418487548828,0.0666666666666666,-4.091442440074892,2.5038280487060547,0.0769230769230769,-3.6686548810715376,30.568516969680786,5.0,0.040613553113552886,4.0,47.524204939016165,0.0
subject-01,1,780,0.889291048049927,airplane,car,16-0-10,16-0-10_car_10_n03100240_7788.png,False,-0.2910998501034713,2.509418487548828,0.0666666666666666,-4.091442440074892,2.5038280487060547,0.0769230769230769,-3.6686548810715376,30.568516969680786,5.0,0.040613553113552886,4.0,47.524204939016165,0.0
subject-04,1,7,1.46707010269165,dog,cat,8-0-10,8-0-10_cat_10_n02123045_964.png,False,3.276367447431206,1.655754566192627,0.3333333333333333,-1.9122910763658598,2.477033853530884,0.1666666666666666,-2.7551630712259256,28.973267555236816,10.0,1.8547008547008543,5.0,32.15440379804254,5.0
subject-03,1,21,1.45620703697205,bear,cat,8-0-10,8-0-10_cat_10_n02123045_964.png,False,1.3638762392617212,1.655754566192627,0.3333333333333333,-1.9122910763658598,2.477033853530884,0.1666666666666666,-2.7551630712259256,28.973267555236816,10.0,1.8547008547008543,5.0,32.15440379804254,5.0
subject-02,1,858,0.80551290512085,cat,cat,8-0-10,8-0-10_cat_10_n02123045_964.png,True,-0.6516832265126034,1.655754566192627,0.3333333333333333,-1.9122910763658598,2.477033853530884,0.1666666666666666,-2.7551630712259256,28.973267555236816,10.0,1.8547008547008543,5.0,32.15440379804254,5.0
subject-01,1,708,1.1136040687561,dog,cat,8-0-10,8-0-10_cat_10_n02123045_964.png,False,0.7481948212591352,1.655754566192627,0.3333333333333333,-1.9122910763658598,2.477033853530884,0.1666666666666666,-2.7551630712259256,28.973267555236816,10.0,1.8547008547008543,5.0,32.15440379804254,5.0
subject-04,1,8,0.91098690032959,bear,dog,16-0-10,16-0-10_dog_10_n02106030_19249.png,False,0.21784766241475986,2.205990791320801,1.0,-0.879858034010467,2.5214715003967285,0.25,-2.554263277938907,30.192538022994995,10.0,3.537301587301587,9.0,29.704379089458676,10.0
subject-03,1,202,1.21040916442871,cat,dog,16-0-10,16-0-10_dog_10_n02106030_19249.png,False,0.4846041485309937,2.205990791320801,1.0,-0.879858034010467,2.5214715003967285,0.25,-2.554263277938907,30.192538022994995,10.0,3.537301587301587,9.0,29.704379089458676,10.0
subject-02,1,985,1.02741003036499,bear,dog,16-0-10,16-0-10_dog_10_n02106030_19249.png,False,0.4364039476654969,2.205990791320801,1.0,-0.879858034010467,2.5214715003967285,0.25,-2.554263277938907,30.192538022994995,10.0,3.537301587301587,9.0,29.704379089458676,10.0
subject-01,1,54,0.936166048049927,bear,dog,16-0-10,16-0-10_dog_10_n02106030_19249.png,False,-0.07391701530077671,2.205990791320801,1.0,-0.879858034010467,2.5214715003967285,0.25,-2.554263277938907,30.192538022994995,10.0,3.537301587301587,9.0,29.704379089458676,10.0
subject-04,1,9,1.00059795379639,bear,airplane,16-0-10,16-0-10_airplane_10_n02690373_1909.png,False,0.7107184753078383,2.4227166175842285,0.5,-1.6016950582313163,2.455535411834717,0.1666666666666666,-2.7319209296715132,30.462584257125854,10.0,0.9002344877344874,10.0,38.314118040116554,3.0
subject-03,1,725,1.0877320766449,oven,airplane,16-0-10,16-0-10_airplane_10_n02690373_1909.png,False,0.045761703133471464,2.4227166175842285,0.5,-1.6016950582313163,2.455535411834717,0.1666666666666666,-2.7319209296715132,30.462584257125854,10.0,0.9002344877344874,10.0,38.314118040116554,3.0
subject-02,1,138,0.882138967514038,boat,airplane,16-0-10,16-0-10_airplane_10_n02690373_1909.png,False,-0.2759422807654907,2.4227166175842285,0.5,-1.6016950582313163,2.455535411834717,0.1666666666666666,-2.7319209296715132,30.462584257125854,10.0,0.9002344877344874,10.0,38.314118040116554,3.0
subject-01,1,127,1.37968182563782,elephant,airplane,16-0-10,16-0-10_airplane_10_n02690373_1909.png,False,1.9809952802994368,2.4227166175842285,0.5,-1.6016950582313163,2.455535411834717,0.1666666666666666,-2.7319209296715132,30.462584257125854,10.0,0.9002344877344874,10.0,38.314118040116554,3.0
subject-04,1,10,1.11688613891602,cat,cat,128-0-10,128-0-10_cat_10_n02124075_6464.png,True,1.350316494887057,2.3078272342681885,0.5,-1.7702283888886656,2.5298237800598145,0.3333333333333333,-2.2944943054228677,30.4285626411438,10.0,3.9825757575757574,8.0,29.58814942126463,4.0
subject-03,1,1215,1.50012588500977,oven,cat,128-0-10,128-0-10_cat_10_n02124075_6464.png,False,1.520983446647344,2.3078272342681885,0.5,-1.7702283888886656,2.5298237800598145,0.3333333333333333,-2.2944943054228677,30.4285626411438,10.0,3.9825757575757574,8.0,29.58814942126463,4.0
subject-02,1,117,1.06225895881653,dog,cat,128-0-10,128-0-10_cat_10_n02124075_6464.png,False,0.6072879644829813,2.3078272342681885,0.5,-1.7702283888886656,2.5298237800598145,0.3333333333333333,-2.2944943054228677,30.4285626411438,10.0,3.9825757575757574,8.0,29.58814942126463,4.0
subject-01,1,165,1.24306488037109,keyboard,cat,128-0-10,128-0-10_cat_10_n02124075_6464.png,False,1.3480170305903594,2.3078272342681885,0.5,-1.7702283888886656,2.5298237800598145,0.3333333333333333,-2.2944943054228677,30.4285626411438,10.0,3.9825757575757574,8.0,29.58814942126463,4.0
subject-04,1,11,1.15230107307434,keyboard,truck,64-0-10,64-0-10_truck_10_n03796401_25570.png,False,1.54510259226993,2.4447574615478516,0.0769230769230769,-3.9008860276909814,2.5328516960144043,0.125,-3.0081333621871162,30.87641167640686,10.0,0.8026556776556772,0.0,36.766719215512985,0.0
subject-03,1,1006,1.50012302398682,bird,truck,64-0-10,64-0-10_truck_10_n03796401_25570.png,False,1.5209732121501738,2.4447574615478516,0.0769230769230769,-3.9008860276909814,2.5328516960144043,0.125,-3.0081333621871162,30.87641167640686,10.0,0.8026556776556772,0.0,36.766719215512985,0.0
subject-02,1,749,0.789083003997803,boat,truck,64-0-10,64-0-10_truck_10_n03796401_25570.png,False,-0.7322483292165376,2.4447574615478516,0.0769230769230769,-3.9008860276909814,2.5328516960144043,0.125,-3.0081333621871162,30.87641167640686,10.0,0.8026556776556772,0.0,36.766719215512985,0.0
subject-01,1,834,0.993143081665039,bicycle,truck,64-0-10,64-0-10_truck_10_n03796401_25570.png,False,0.19007090318836334,2.4447574615478516,0.0769230769230769,-3.9008860276909814,2.5328516960144043,0.125,-3.0081333621871162,30.87641167640686,10.0,0.8026556776556772,0.0,36.766719215512985,0.0
subject-04,1,12,1.50012898445129,dog,knife,32-0-10,32-0-10_knife_10_n03041632_87380.png,False,3.4581949932065337,1.83209228515625,0.1,-3.841255315119597,2.5115599632263184,0.0769230769230769,-3.6963004907719035,30.040005683898926,10.0,1.463070263070263,5.0,34.53975252119603,5.0
subject-03,1,615,0.88230299949646,bird,knife,32-0-10,32-0-10_knife_10_n03041632_87380.png,False,-0.6891024854462886,1.83209228515625,0.1,-3.841255315119597,2.5115599632263184,0.0769230769230769,-3.6963004907719035,30.040005683898926,10.0,1.463070263070263,5.0,34.53975252119603,5.0
subject-02,1,268,0.85753607749939,bird,knife,32-0-10,32-0-10_knife_10_n03041632_87380.png,False,-0.3965841730081208,1.83209228515625,0.1,-3.841255315119597,2.5115599632263184,0.0769230769230769,-3.6963004907719035,30.040005683898926,10.0,1.463070263070263,5.0,34.53975252119603,5.0
subject-01,1,883,0.944161891937256,bottle,knife,32-0-10,32-0-10_knife_10_n03041632_87380.png,False,-0.036870401069525355,1.83209228515625,0.1,-3.841255315119597,2.5115599632263184,0.0769230769230769,-3.6963004907719035,30.040005683898926,10.0,1.463070263070263,5.0,34.53975252119603,5.0
subject-04,1,13,1.00197005271912,bear,bicycle,32-0-10,32-0-10_bicycle_10_n02835271_15524.png,False,0.7182651727882575,2.507906436920166,0.0909090909090909,-3.3012125481107155,2.477900981903076,0.25,-2.2666532468042297,30.58880615234375,10.0,2.9004329004329006,6.0,29.071796191776585,6.0
subject-03,1,236,1.10214185714722,dog,bicycle,32-0-10,32-0-10_bicycle_10_n02835271_15524.png,False,0.0973086009896022,2.507906436920166,0.0909090909090909,-3.3012125481107155,2.477900981903076,0.25,-2.2666532468042297,30.58880615234375,10.0,2.9004329004329006,6.0,29.071796191776585,6.0
subject-02,1,1130,0.903718948364258,bird,bicycle,32-0-10,32-0-10_bicycle_10_n02835271_15524.png,False,-0.1701234227866014,2.507906436920166,0.0909090909090909,-3.3012125481107155,2.477900981903076,0.25,-2.2666532468042297,30.58880615234375,10.0,2.9004329004329006,6.0,29.071796191776585,6.0
subject-01,1,1047,1.04228901863098,bear,bicycle,32-0-10,32-0-10_bicycle_10_n02835271_15524.png,False,0.4177755199200453,2.507906436920166,0.0909090909090909,-3.3012125481107155,2.477900981903076,0.25,-2.2666532468042297,30.58880615234375,10.0,2.9004329004329006,6.0,29.071796191776585,6.0
subject-04,1,14,1.00567603111267,car,oven,16-0-10,16-0-10_oven_10_n04111531_5792.png,False,0.7386484682939833,2.5030100345611572,0.0666666666666666,-4.139873764868446,2.4631972312927246,0.0625,-4.704143171753231,30.62739872932434,10.0,0.49101037851037815,7.0,41.14735519176034,6.0
subject-03,1,1238,1.13023900985718,elephant,oven,16-0-10,16-0-10_oven_10_n04111531_5792.png,False,0.19781818616719982,2.5030100345611572,0.0666666666666666,-4.139873764868446,2.4631972312927246,0.0625,-4.704143171753231,30.62739872932434,10.0,0.49101037851037815,7.0,41.14735519176034,6.0
subject-02,1,495,0.762527942657471,cat,oven,16-0-10,16-0-10_oven_10_n04111531_5792.png,False,-0.8624628221809566,2.5030100345611572,0.0666666666666666,-4.139873764868446,2.4631972312927246,0.0625,-4.704143171753231,30.62739872932434,10.0,0.49101037851037815,7.0,41.14735519176034,6.0
subject-01,1,774,0.882498025894165,boat,oven,16-0-10,16-0-10_oven_10_n04111531_5792.png,False,-0.32257351002167695,2.5030100345611572,0.0666666666666666,-4.139873764868446,2.4631972312927246,0.0625,-4.704143171753231,30.62739872932434,10.0,0.49101037851037815,7.0,41.14735519176034,6.0
subject-04,1,15,1.03941607475281,boat,knife,16-0-10,16-0-10_knife_10_n03041632_7680.png,False,0.9242224805683152,2.3716588020324707,0.1428571428571428,-3.1824062916149054,2.562987804412842,0.0833333333333333,-3.4347474078839455,30.869482040405273,10.0,2.0623015873015875,5.0,32.62806851068975,5.0
subject-03,1,65,0.908058881759644,cat,knife,16-0-10,16-0-10_knife_10_n03041632_7680.png,False,-0.5969681304503103,2.3716588020324707,0.1428571428571428,-3.1824062916149054,2.562987804412842,0.0833333333333333,-3.4347474078839455,30.869482040405273,10.0,2.0623015873015875,5.0,32.62806851068975,5.0
subject-02,1,166,0.642746925354004,cat,knife,16-0-10,16-0-10_knife_10_n03041632_7680.png,False,-1.4498169327604018,2.3716588020324707,0.1428571428571428,-3.1824062916149054,2.562987804412842,0.0833333333333333,-3.4347474078839455,30.869482040405273,10.0,2.0623015873015875,5.0,32.62806851068975,5.0
subject-01,1,116,1.21570110321045,car,knife,16-0-10,16-0-10_knife_10_n03041632_7680.png,False,1.2212342531043436,2.3716588020324707,0.1428571428571428,-3.1824062916149054,2.562987804412842,0.0833333333333333,-3.4347474078839455,30.869482040405273,10.0,2.0623015873015875,5.0,32.62806851068975,5.0
subject-04,1,16,1.13130879402161,bear,truck,32-0-10,32-0-10_truck_10_n03796401_6971.png,False,1.42964271047052,2.4539082050323486,0.2,-2.8792620239467195,2.4656481742858887,0.1428571428571428,-2.887225177588579,30.57785677909851,9.0,0.9266233766233765,10.0,35.6459169905213,0.0
subject-03,1,216,1.34166193008423,bear,truck,32-0-10,32-0-10_truck_10_n03796401_6971.png,False,0.9541236463117176,2.4539082050323486,0.2,-2.8792620239467195,2.4656481742858887,0.1428571428571428,-2.887225177588579,30.57785677909851,9.0,0.9266233766233765,10.0,35.6459169905213,0.0
subject-02,1,948,1.12953209877014,oven,truck,32-0-10,32-0-10_truck_10_n03796401_6971.png,False,0.9371662387944435,2.4539082050323486,0.2,-2.8792620239467195,2.4656481742858887,0.1428571428571428,-2.887225177588579,30.57785677909851,9.0,0.9266233766233765,10.0,35.6459169905213,0.0
subject-01,1,441,1.07469511032104,car,truck,32-0-10,32-0-10_truck_10_n03796401_6971.png,False,0.5679205195600091,2.4539082050323486,0.2,-2.8792620239467195,2.4656481742858887,0.1428571428571428,-2.887225177588579,30.57785677909851,9.0,0.9266233766233765,10.0,35.6459169905213,0.0
subject-04,1,17,0.903536081314087,bicycle,bottle,128-0-10,128-0-10_bottle_10_n04557648_4106.png,False,0.1768673248021608,2.223768949508667,0.1111111111111111,-3.335839945451467,2.5440104007720947,0.0909090909090909,-3.355318663934196,30.636539220809937,10.0,0.5376484626484626,9.0,38.47034864988841,0.0
subject-03,1,975,0.793622970581055,cat,bottle,128-0-10,128-0-10_bottle_10_n04557648_4106.png,False,-1.0063301067584336,2.223768949508667,0.1111111111111111,-3.335839945451467,2.5440104007720947,0.0909090909090909,-3.355318663934196,30.636539220809937,10.0,0.5376484626484626,9.0,38.47034864988841,0.0
subject-02,1,744,0.839940071105957,dog,bottle,128-0-10,128-0-10_bottle_10_n04557648_4106.png,False,-0.482867349738712,2.223768949508667,0.1111111111111111,-3.335839945451467,2.5440104007720947,0.0909090909090909,-3.355318663934196,30.636539220809937,10.0,0.5376484626484626,9.0,38.47034864988841,0.0
subject-01,1,185,1.04321312904358,bicycle,bottle,128-0-10,128-0-10_bottle_10_n04557648_4106.png,False,0.42205713952706775,2.223768949508667,0.1111111111111111,-3.335839945451467,2.5440104007720947,0.0909090909090909,-3.355318663934196,30.636539220809937,10.0,0.5376484626484626,9.0,38.47034864988841,0.0
subject-04,1,18,0.936952829360962,keyboard,keyboard,4-0-10,4-0-10_keyboard_10_n04505470_3306.png,True,0.3606631751679695,0.0631829053163528,1.0,-0.007399209223408202,2.5715768337249756,0.0909090909090909,-3.1754707747618993,25.5674785412848,9.0,5.014393939393939,6.0,26.885862807473377,9.0
subject-03,1,647,0.688864946365356,keyboard,keyboard,4-0-10,4-0-10_keyboard_10_n04505470_3306.png,True,-1.381072190649809,0.0631829053163528,1.0,-0.007399209223408202,2.5715768337249756,0.0909090909090909,-3.1754707747618993,25.5674785412848,9.0,5.014393939393939,6.0,26.885862807473377,9.0
subject-02,1,45,0.912208080291748,keyboard,keyboard,4-0-10,4-0-10_keyboard_10_n04505470_3306.png,True,-0.12849640504112644,0.0631829053163528,1.0,-0.007399209223408202,2.5715768337249756,0.0909090909090909,-3.1754707747618993,25.5674785412848,9.0,5.014393939393939,6.0,26.885862807473377,9.0
subject-01,1,778,0.677632093429565,keyboard,keyboard,4-0-10,4-0-10_keyboard_10_n04505470_3306.png,True,-1.271765274654407,0.0631829053163528,1.0,-0.007399209223408202,2.5715768337249756,0.0909090909090909,-3.1754707747618993,25.5674785412848,9.0,5.014393939393939,6.0,26.885862807473377,9.0
subject-04,1,19,0.894726037979126,bear,bottle,64-0-10,64-0-10_bottle_10_n04591713_360.png,False,0.12841110146656257,1.9155926704406736,0.1666666666666666,-3.364030243730738,2.538870096206665,0.1111111111111111,-3.131190171708883,30.20633578300476,10.0,0.5776307026307023,0.0,38.6583213040038,0.0
subject-03,1,768,0.935876846313477,cat,bottle,64-0-10,64-0-10_bottle_10_n04591713_360.png,False,-0.4974572616212515,1.9155926704406736,0.1666666666666666,-3.364030243730738,2.538870096206665,0.1111111111111111,-3.131190171708883,30.20633578300476,10.0,0.5776307026307023,0.0,38.6583213040038,0.0
subject-02,1,187,0.852824926376343,cat,bottle,64-0-10,64-0-10_bottle_10_n04591713_360.png,False,-0.419685612952249,1.9155926704406736,0.1666666666666666,-3.364030243730738,2.538870096206665,0.1111111111111111,-3.131190171708883,30.20633578300476,10.0,0.5776307026307023,0.0,38.6583213040038,0.0
subject-01,1,126,1.27185988426208,oven,bottle,64-0-10,64-0-10_bottle_10_n04591713_360.png,False,1.4814310161519562,1.9155926704406736,0.1666666666666666,-3.364030243730738,2.538870096206665,0.1111111111111111,-3.131190171708883,30.20633578300476,10.0,0.5776307026307023,0.0,38.6583213040038,0.0
subject-04,1,20,0.934542894363403,bottle,bottle,1-0-10,1-0-10_bottle_10_n04579145_5979.png,True,0.34740826324232776,0.0721524953842163,1.0,-0.009020719616677672,2.512120485305786,0.125,-2.926276857804387,27.03878152370453,10.0,5.155891330891331,6.0,25.563046608881315,0.0
subject-03,1,695,0.623605966567993,bottle,bottle,1-0-10,1-0-10_bottle_10_n04579145_5979.png,True,-1.6145176595289756,0.0721524953842163,1.0,-0.009020719616677672,2.512120485305786,0.125,-2.926276857804387,27.03878152370453,10.0,5.155891330891331,6.0,25.563046608881315,0.0
subject-02,1,665,0.855917930603027,bottle,bottle,1-0-10,1-0-10_bottle_10_n04579145_5979.png,True,-0.40451886293225336,0.0721524953842163,1.0,-0.009020719616677672,2.512120485305786,0.125,-2.926276857804387,27.03878152370453,10.0,5.155891330891331,6.0,25.563046608881315,0.0
subject-01,1,407,0.560945987701416,bottle,bottle,1-0-10,1-0-10_bottle_10_n04579145_5979.png,True,-1.812399284769102,0.0721524953842163,1.0,-0.009020719616677672,2.512120485305786,0.125,-2.926276857804387,27.03878152370453,10.0,5.155891330891331,6.0,25.563046608881315,0.0
subject-04,1,21,0.986582040786743,elephant,elephant,2-0-10,2-0-10_elephant_10_n02504013_7926.png,True,0.6336293867272342,0.0651768445968627,1.0,-0.007781062902416665,2.4777655601501465,0.1666666666666666,-2.7743130206407773,26.154726266860962,9.0,4.5928571428571425,8.0,26.727697233804506,9.0
subject-03,1,234,1.1483199596405,elephant,elephant,2-0-10,2-0-10_elephant_10_n02504013_7926.png,True,0.2624976496380399,0.0651768445968627,1.0,-0.007781062902416665,2.4777655601501465,0.1666666666666666,-2.7743130206407773,26.154726266860962,9.0,4.5928571428571425,8.0,26.727697233804506,9.0
subject-02,1,595,0.963083028793335,elephant,elephant,2-0-10,2-0-10_elephant_10_n02504013_7926.png,True,0.12097225702758135,0.0651768445968627,1.0,-0.007781062902416665,2.4777655601501465,0.1666666666666666,-2.7743130206407773,26.154726266860962,9.0,4.5928571428571425,8.0,26.727697233804506,9.0
subject-01,1,361,0.871057987213135,elephant,elephant,2-0-10,2-0-10_elephant_10_n02504013_7926.png,True,-0.3755778840163134,0.0651768445968627,1.0,-0.007781062902416665,2.4777655601501465,0.1666666666666666,-2.7743130206407773,26.154726266860962,9.0,4.5928571428571425,8.0,26.727697233804506,9.0
subject-04,1,22,0.958269119262695,cat,bottle,128-0-10,128-0-10_bottle_10_n03983396_4540.png,False,0.47790515286242946,2.29103946685791,0.3333333333333333,-2.3949709753635346,2.5150341987609863,0.0769230769230769,-3.5677618988053044,30.412033557891846,10.0,0.864163614163614,8.0,37.573573719318844,0.0
subject-03,1,312,0.908557891845703,cat,bottle,128-0-10,128-0-10_bottle_10_n03983396_4540.png,False,-0.5951830635694427,2.29103946685791,0.3333333333333333,-2.3949709753635346,2.5150341987609863,0.0769230769230769,-3.5677618988053044,30.412033557891846,10.0,0.864163614163614,8.0,37.573573719318844,0.0
subject-02,1,724,1.20786309242249,cat,bottle,128-0-10,128-0-10_bottle_10_n03983396_4540.png,False,1.3212674273067946,2.29103946685791,0.3333333333333333,-2.3949709753635346,2.5150341987609863,0.0769230769230769,-3.5677618988053044,30.412033557891846,10.0,0.864163614163614,8.0,37.573573719318844,0.0
subject-01,1,559,0.760900020599365,oven,bottle,128-0-10,128-0-10_bottle_10_n03983396_4540.png,False,-0.885965499275602,2.29103946685791,0.3333333333333333,-2.3949709753635346,2.5150341987609863,0.0769230769230769,-3.5677618988053044,30.412033557891846,10.0,0.864163614163614,8.0,37.573573719318844,0.0
subject-04,1,23,1.15247893333435,bird,clock,16-0-10,16-0-10_clock_10_n04548280_5130.png,False,1.546080843585377,2.1336684226989746,0.5,-1.3547442293153722,2.497875690460205,0.0833333333333333,-3.5760543776275417,30.332626342773438,10.0,2.28003663003663,8.0,37.02511670605652,6.0
subject-03,1,534,1.30435609817505,bear,clock,16-0-10,16-0-10_clock_10_n04548280_5130.png,False,0.8206726262527456,2.1336684226989746,0.5,-1.3547442293153722,2.497875690460205,0.0833333333333333,-3.5760543776275417,30.332626342773438,10.0,2.28003663003663,8.0,37.02511670605652,6.0
subject-02,1,795,0.884528160095215,bird,clock,16-0-10,16-0-10_clock_10_n04548280_5130.png,False,-0.26422671752256943,2.1336684226989746,0.5,-1.3547442293153722,2.497875690460205,0.0833333333333333,-3.5760543776275417,30.332626342773438,10.0,2.28003663003663,8.0,37.02511670605652,6.0
subject-01,1,1115,1.31572294235229,bird,clock,16-0-10,16-0-10_clock_10_n04548280_5130.png,False,1.6846588198670938,2.1336684226989746,0.5,-1.3547442293153722,2.497875690460205,0.0833333333333333,-3.5760543776275417,30.332626342773438,10.0,2.28003663003663,8.0,37.02511670605652,6.0
subject-04,1,24,1.25591015815735,keyboard,elephant,128-0-10,128-0-10_elephant_10_n02504013_4247.png,False,2.1149641440805067,1.9841291904449463,0.0714285714285714,-4.370852541003166,2.5341908931732178,0.5,-1.9928404380720581,30.09513521194458,10.0,3.8845238095238095,1.0,31.77872792263082,0.0
subject-03,1,591,1.36700510978699,bird,elephant,128-0-10,128-0-10_elephant_10_n02504013_4247.png,False,1.0447816750913652,1.9841291904449463,0.0714285714285714,-4.370852541003166,2.5341908931732178,0.5,-1.9928404380720581,30.09513521194458,10.0,3.8845238095238095,1.0,31.77872792263082,0.0
subject-02,1,205,1.08967685699463,bicycle,elephant,128-0-10,128-0-10_elephant_10_n02504013_4247.png,False,0.7417334347327112,1.9841291904449463,0.0714285714285714,-4.370852541003166,2.5341908931732178,0.5,-1.9928404380720581,30.09513521194458,10.0,3.8845238095238095,1.0,31.77872792263082,0.0
subject-01,1,262,0.994693994522095,car,elephant,128-0-10,128-0-10_elephant_10_n02504013_4247.png,False,0.1972566450726805,1.9841291904449463,0.0714285714285714,-4.370852541003166,2.5341908931732178,0.5,-1.9928404380720581,30.09513521194458,10.0,3.8845238095238095,1.0,31.77872792263082,0.0
subject-04,1,25,0.887659072875977,boat,knife,32-0-10,32-0-10_knife_10_n03041632_12949.png,False,0.08954200328810515,2.5157265663146973,0.1428571428571428,-2.8634933055619416,2.537623405456543,0.1,-3.3409580273154855,30.82244634628296,10.0,1.9761904761904756,5.0,31.89450085952637,5.0
subject-03,1,100,1.23229622840881,bird,knife,32-0-10,32-0-10_knife_10_n03041632_12949.png,False,0.5628989047329471,2.5157265663146973,0.1428571428571428,-2.8634933055619416,2.537623405456543,0.1,-3.3409580273154855,30.82244634628296,10.0,1.9761904761904756,5.0,31.89450085952637,5.0
subject-02,1,659,0.955051898956299,bicycle,knife,32-0-10,32-0-10_knife_10_n03041632_12949.png,False,0.08159108270987303,2.5157265663146973,0.1428571428571428,-2.8634933055619416,2.537623405456543,0.1,-3.3409580273154855,30.82244634628296,10.0,1.9761904761904756,5.0,31.89450085952637,5.0
subject-01,1,561,0.982306003570557,bicycle,knife,32-0-10,32-0-10_knife_10_n03041632_12949.png,False,0.13986018656889068,2.5157265663146973,0.1428571428571428,-2.8634933055619416,2.537623405456543,0.1,-3.3409580273154855,30.82244634628296,10.0,1.9761904761904756,5.0,31.89450085952637,5.0
subject-04,1,26,1.02743005752563,bear,oven,32-0-10,32-0-10_oven_10_n04111531_16795.png,False,0.8582980457406484,2.5795838832855225,0.1111111111111111,-2.7689982737276257,2.5399134159088135,0.0625,-4.7040842568212815,30.96820068359375,10.0,0.3467393717393715,9.0,40.829224889516524,6.0
subject-03,1,172,0.710191011428833,cat,oven,32-0-10,32-0-10_oven_10_n04111531_16795.png,False,-1.3047842487673313,2.5795838832855225,0.1111111111111111,-2.7689982737276257,2.5399134159088135,0.0625,-4.7040842568212815,30.96820068359375,10.0,0.3467393717393715,9.0,40.829224889516524,6.0
subject-02,1,683,1.15241408348083,bird,oven,32-0-10,32-0-10_oven_10_n04111531_16795.png,False,1.049369558490667,2.5795838832855225,0.1111111111111111,-2.7689982737276257,2.5399134159088135,0.0625,-4.7040842568212815,30.96820068359375,10.0,0.3467393717393715,9.0,40.829224889516524,6.0
subject-01,1,430,0.830647945404053,bird,oven,32-0-10,32-0-10_oven_10_n04111531_16795.png,False,-0.5628070559542728,2.5795838832855225,0.1111111111111111,-2.7689982737276257,2.5399134159088135,0.0625,-4.7040842568212815,30.96820068359375,10.0,0.3467393717393715,9.0,40.829224889516524,6.0
subject-04,1,27,1.06334400177002,chair,chair,8-0-10,8-0-10_chair_10_n02791124_1704.png,True,1.0558287543879596,2.49818754196167,0.5,-1.9737055395800673,2.530794620513916,0.0666666666666666,-3.9983324170504693,30.9263813495636,10.0,1.6434523809523807,10.0,34.92742923179386,6.0
subject-03,1,394,1.35461711883545,bird,chair,8-0-10,8-0-10_chair_10_n02791124_1704.png,False,1.0004671552332114,2.49818754196167,0.5,-1.9737055395800673,2.530794620513916,0.0666666666666666,-3.9983324170504693,30.9263813495636,10.0,1.6434523809523807,10.0,34.92742923179386,6.0
subject-02,1,805,0.93738317489624,bottle,chair,8-0-10,8-0-10_chair_10_n02791124_1704.png,False,-0.005048669890301585,2.49818754196167,0.5,-1.9737055395800673,2.530794620513916,0.0666666666666666,-3.9983324170504693,30.9263813495636,10.0,1.6434523809523807,10.0,34.92742923179386,6.0
subject-01,1,30,1.50005412101746,bear,chair,8-0-10,8-0-10_chair_10_n02791124_1704.png,False,2.538708268934264,2.49818754196167,0.5,-1.9737055395800673,2.530794620513916,0.0666666666666666,-3.9983324170504693,30.9263813495636,10.0,1.6434523809523807,10.0,34.92742923179386,6.0
subject-04,1,28,0.909283876419067,boat,boat,4-0-10,4-0-10_boat_10_n02951358_13456.png,True,0.20848084050292115,1.3573689460754397,1.0,-0.40398023747783907,2.522653818130493,1.0,-1.7756314515302116,29.533772706985474,10.0,5.277777777777778,4.0,26.12086303728982,10.0
subject-03,1,131,0.756565093994141,boat,boat,4-0-10,4-0-10_boat_10_n02951358_13456.png,True,-1.1388941370629346,1.3573689460754397,1.0,-0.40398023747783907,2.522653818130493,1.0,-1.7756314515302116,29.533772706985474,10.0,5.277777777777778,4.0,26.12086303728982,10.0
subject-02,1,164,0.735111951828003,boat,boat,4-0-10,4-0-10_boat_10_n02951358_13456.png,True,-0.996898939620997,1.3573689460754397,1.0,-0.40398023747783907,2.522653818130493,1.0,-1.7756314515302116,29.533772706985474,10.0,5.277777777777778,4.0,26.12086303728982,10.0
subject-01,1,686,0.6597580909729,boat,boat,4-0-10,4-0-10_boat_10_n02951358_13456.png,True,-1.3545797071409955,1.3573689460754397,1.0,-0.40398023747783907,2.522653818130493,1.0,-1.7756314515302116,29.533772706985474,10.0,5.277777777777778,4.0,26.12086303728982,10.0
subject-04,1,29,0.936969995498657,bear,bicycle,64-0-10,64-0-10_bicycle_10_n02835271_1918.png,False,0.3607575908445254,2.3340368270874023,0.1,-3.4994006753114477,2.4955224990844727,0.25,-2.3712343612318483,30.571769952774048,10.0,2.716666666666667,7.0,30.145229513439734,6.0
subject-03,1,1177,0.804962873458862,oven,bicycle,64-0-10,64-0-10_bicycle_10_n02835271_1918.png,False,-0.9657648243624493,2.3340368270874023,0.1,-3.4994006753114477,2.4955224990844727,0.25,-2.3712343612318483,30.571769952774048,10.0,2.716666666666667,7.0,30.145229513439734,6.0
subject-02,1,1049,0.593728065490723,cat,bicycle,64-0-10,64-0-10_bicycle_10_n02835271_1918.png,False,-1.6901841418956554,2.3340368270874023,0.1,-3.4994006753114477,2.4955224990844727,0.25,-2.3712343612318483,30.571769952774048,10.0,2.716666666666667,7.0,30.145229513439734,6.0
subject-01,1,10,0.816303014755249,bottle,bicycle,64-0-10,64-0-10_bicycle_10_n02835271_1918.png,False,-0.6292704736258524,2.3340368270874023,0.1,-3.4994006753114477,2.4955224990844727,0.25,-2.3712343612318483,30.571769952774048,10.0,2.716666666666667,7.0,30.145229513439734,6.0
subject-04,1,30,0.894742965698242,airplane,airplane,1-0-10,1-0-10_airplane_10_n02690373_8653.png,True,0.12850420581427804,0.0250391345471143,1.0,-0.002658440611572327,2.413893222808838,1.0,-1.58606118326453,24.510519875213504,9.0,7.171800421800421,4.0,21.934167986176835,3.0
subject-03,1,119,0.776772022247314,boat,airplane,1-0-10,1-0-10_airplane_10_n02690373_8653.png,False,-1.0666095893222682,0.0250391345471143,1.0,-0.002658440611572327,2.413893222808838,1.0,-1.58606118326453,24.510519875213504,9.0,7.171800421800421,4.0,21.934167986176835,3.0
subject-02,1,184,0.755569934844971,boat,airplane,1-0-10,1-0-10_airplane_10_n02690373_8653.png,False,-0.8965818719445913,0.0250391345471143,1.0,-0.002658440611572327,2.413893222808838,1.0,-1.58606118326453,24.510519875213504,9.0,7.171800421800421,4.0,21.934167986176835,3.0
subject-01,1,704,0.782291889190674,airplane,airplane,1-0-10,1-0-10_airplane_10_n02690373_8653.png,True,-0.7868519704780079,0.0250391345471143,1.0,-0.002658440611572327,2.413893222808838,1.0,-1.58606118326453,24.510519875213504,9.0,7.171800421800421,4.0,21.934167986176835,3.0
subject-04,1,31,0.986893892288208,dog,car,64-0-10,64-0-10_car_10_n03100240_5527.png,False,0.6353446048513679,2.426966667175293,0.0666666666666666,-4.179863731883384,2.566901206970215,0.0714285714285714,-3.7173155813807863,30.86421227455139,10.0,0.04404761904761878,4.0,47.10510223498234,7.0
subject-03,1,1127,1.47253799438477,elephant,car,64-0-10,64-0-10_car_10_n03100240_5527.png,False,1.422295601965461,2.426966667175293,0.0666666666666666,-4.179863731883384,2.566901206970215,0.0714285714285714,-3.7173155813807863,30.86421227455139,10.0,0.04404761904761878,4.0,47.10510223498234,7.0
subject-02,1,68,0.971976041793823,keyboard,car,64-0-10,64-0-10_car_10_n03100240_5527.png,False,0.16457973222575634,2.426966667175293,0.0666666666666666,-4.179863731883384,2.566901206970215,0.0714285714285714,-3.7173155813807863,30.86421227455139,10.0,0.04404761904761878,4.0,47.10510223498234,7.0
subject-01,1,374,0.909156084060669,bicycle,car,64-0-10,64-0-10_car_10_n03100240_5527.png,False,-0.19906049363903286,2.426966667175293,0.0666666666666666,-4.179863731883384,2.566901206970215,0.0714285714285714,-3.7173155813807863,30.86421227455139,10.0,0.04404761904761878,4.0,47.10510223498234,7.0
subject-04,1,32,1.12029600143433,keyboard,clock,64-0-10,64-0-10_clock_10_n02708093_1430.png,False,1.369071119972183,2.581613540649414,1.0,-1.9272678743638416,2.5422959327697754,0.1428571428571428,-2.87808490727179,30.806655883789062,10.0,2.2451770451770448,9.0,38.829749764876055,4.0
subject-03,1,711,1.50018000602722,boat,clock,64-0-10,64-0-10_clock_10_n02708093_1430.png,False,1.5211770492187298,2.581613540649414,1.0,-1.9272678743638416,2.5422959327697754,0.1428571428571428,-2.87808490727179,30.806655883789062,10.0,2.2451770451770448,9.0,38.829749764876055,4.0
subject-02,1,1031,0.67454195022583,cat,clock,64-0-10,64-0-10_clock_10_n02708093_1430.png,False,-1.2939079333642,2.581613540649414,1.0,-1.9272678743638416,2.5422959327697754,0.1428571428571428,-2.87808490727179,30.806655883789062,10.0,2.2451770451770448,9.0,38.829749764876055,4.0
subject-01,1,186,1.11699485778809,car,clock,64-0-10,64-0-10_clock_10_n02708093_1430.png,False,0.7639051396417584,2.581613540649414,1.0,-1.9272678743638416,2.5422959327697754,0.1428571428571428,-2.87808490727179,30.806655883789062,10.0,2.2451770451770448,9.0,38.829749764876055,4.0
subject-04,1,33,0.878310918807983,bear,truck,32-0-10,32-0-10_truck_10_n03417042_6373.png,False,0.038126110758184506,2.4544553756713867,0.0909090909090909,-3.5557569621605447,2.504321575164795,0.1111111111111111,-3.1690537691670113,30.701016664505005,10.0,0.7441197691197686,2.0,36.91115622535381,0.0
subject-03,1,1250,0.484137058258057,cat,truck,32-0-10,32-0-10_truck_10_n03417042_6373.png,False,-2.1134280745488896,2.4544553756713867,0.0909090909090909,-3.5557569621605447,2.504321575164795,0.1111111111111111,-3.1690537691670113,30.701016664505005,10.0,0.7441197691197686,2.0,36.91115622535381,0.0
subject-02,1,92,0.870849132537842,cat,truck,32-0-10,32-0-10_truck_10_n03417042_6373.png,False,-0.33130273044536124,2.4544553756713867,0.0909090909090909,-3.5557569621605447,2.504321575164795,0.1111111111111111,-3.1690537691670113,30.701016664505005,10.0,0.7441197691197686,2.0,36.91115622535381,0.0
subject-01,1,340,0.876967906951904,chair,truck,32-0-10,32-0-10_truck_10_n03417042_6373.png,False,-0.34819584407343884,2.4544553756713867,0.0909090909090909,-3.5557569621605447,2.504321575164795,0.1111111111111111,-3.1690537691670113,30.701016664505005,10.0,0.7441197691197686,2.0,36.91115622535381,0.0
subject-04,1,34,0.987933158874512,bird,knife,8-0-10,8-0-10_knife_10_n03041632_86783.png,False,0.6410606872696385,2.041355609893799,0.1,-3.934825471624004,2.4708404541015625,0.0833333333333333,-3.70253166868758,29.860576629638672,10.0,1.58495670995671,9.0,34.03711356643032,5.0
subject-03,1,922,1.29485511779785,cat,knife,8-0-10,8-0-10_knife_10_n03041632_86783.png,False,0.7866855669108093,2.041355609893799,0.1,-3.934825471624004,2.4708404541015625,0.0833333333333333,-3.70253166868758,29.860576629638672,10.0,1.58495670995671,9.0,34.03711356643032,5.0
subject-02,1,1112,1.10404992103577,oven,knife,8-0-10,8-0-10_knife_10_n03041632_86783.png,False,0.812212701282911,2.041355609893799,0.1,-3.934825471624004,2.4708404541015625,0.0833333333333333,-3.70253166868758,29.860576629638672,10.0,1.58495670995671,9.0,34.03711356643032,5.0
subject-01,1,99,1.21280598640442,dog,knife,8-0-10,8-0-10_knife_10_n03041632_86783.png,False,1.2078205000372815,2.041355609893799,0.1,-3.934825471624004,2.4708404541015625,0.0833333333333333,-3.70253166868758,29.860576629638672,10.0,1.58495670995671,9.0,34.03711356643032,5.0
subject-04,1,35,0.891707897186279,bottle,knife,64-0-10,64-0-10_knife_10_n03041632_55711.png,False,0.11181098966732578,2.5780630111694336,0.1666666666666666,-2.753898183101253,2.598055124282837,0.0909090909090909,-3.2263691476630996,31.080225229263306,10.0,2.292099567099567,5.0,31.496838372056605,5.0
subject-03,1,421,1.07889890670776,bird,knife,64-0-10,64-0-10_knife_10_n03041632_55711.png,False,0.014163546005242276,2.5780630111694336,0.1666666666666666,-2.753898183101253,2.598055124282837,0.0909090909090909,-3.2263691476630996,31.080225229263306,10.0,2.292099567099567,5.0,31.496838372056605,5.0
subject-02,1,1224,1.44110107421875,clock,knife,64-0-10,64-0-10_knife_10_n03041632_55711.png,False,2.4649652388240613,2.5780630111694336,0.1666666666666666,-2.753898183101253,2.598055124282837,0.0909090909090909,-3.2263691476630996,31.080225229263306,10.0,2.292099567099567,5.0,31.496838372056605,5.0
subject-01,1,474,1.2285590171814,bird,knife,64-0-10,64-0-10_knife_10_n03041632_55711.png,False,1.2808079748293586,2.5780630111694336,0.1666666666666666,-2.753898183101253,2.598055124282837,0.0909090909090909,-3.2263691476630996,31.080225229263306,10.0,2.292099567099567,5.0,31.496838372056605,5.0
subject-04,1,36,1.33578014373779,bear,clock,8-0-10,8-0-10_clock_10_n03196217_911.png,False,2.554257994513528,1.8761495351791384,0.1428571428571428,-3.667705418599546,2.482008934020996,0.1,-3.5129007420069573,29.697580695152283,10.0,0.2928071928071925,10.0,43.23435734948804,6.0
subject-03,1,25,1.26943016052246,elephant,clock,8-0-10,8-0-10_clock_10_n03196217_911.png,False,0.695735002087146,1.8761495351791384,0.1428571428571428,-3.667705418599546,2.482008934020996,0.1,-3.5129007420069573,29.697580695152283,10.0,0.2928071928071925,10.0,43.23435734948804,6.0
subject-02,1,1117,1.02304720878601,oven,clock,8-0-10,8-0-10_clock_10_n03196217_911.png,False,0.41501056459173,1.8761495351791384,0.1428571428571428,-3.667705418599546,2.482008934020996,0.1,-3.5129007420069573,29.697580695152283,10.0,0.2928071928071925,10.0,43.23435734948804,6.0
subject-01,1,725,1.03149580955505,chair,clock,8-0-10,8-0-10_clock_10_n03196217_911.png,False,0.367768058720501,1.8761495351791384,0.1428571428571428,-3.667705418599546,2.482008934020996,0.1,-3.5129007420069573,29.697580695152283,10.0,0.2928071928071925,10.0,43.23435734948804,6.0
subject-04,1,37,,na,chair,2-0-10,2-0-10_chair_10_n02791124_17035.png,False,,1.2580387592315674,1.0,-0.3560174824634495,2.5196163654327393,0.0666666666666666,-3.966569581126926,29.64154314994812,10.0,3.332575757575757,8.0,31.959873936594796,10.0
subject-03,1,402,1.12057495117188,chair,chair,2-0-10,2-0-10_chair_10_n02791124_17035.png,True,0.16324776048676695,1.2580387592315674,1.0,-0.3560174824634495,2.5196163654327393,0.0666666666666666,-3.966569581126926,29.64154314994812,10.0,3.332575757575757,8.0,31.959873936594796,10.0
subject-02,1,60,0.885262966156006,oven,chair,2-0-10,2-0-10_chair_10_n02791124_17035.png,False,-0.26062354758796413,1.2580387592315674,1.0,-0.3560174824634495,2.5196163654327393,0.0666666666666666,-3.966569581126926,29.64154314994812,10.0,3.332575757575757,8.0,31.959873936594796,10.0
subject-01,1,690,1.04315304756165,chair,chair,2-0-10,2-0-10_chair_10_n02791124_17035.png,True,0.4217787679736872,1.2580387592315674,1.0,-0.3560174824634495,2.5196163654327393,0.0666666666666666,-3.966569581126926,29.64154314994812,10.0,3.332575757575757,8.0,31.959873936594796,10.0
subject-04,1,38,0.843478202819824,boat,keyboard,32-0-10,32-0-10_keyboard_10_n03085013_3264.png,False,-0.15345772159479856,2.6029839515686035,0.0909090909090909,-3.144241802895428,2.5557775497436523,0.0769230769230769,-3.543881868379837,31.07734513282776,10.0,0.4970862470862467,6.0,38.70360627510152,6.0
subject-03,1,681,1.45814394950867,boat,keyboard,32-0-10,32-0-10_keyboard_10_n03085013_3264.png,False,1.370804993843746,2.6029839515686035,0.0909090909090909,-3.144241802895428,2.5557775497436523,0.0769230769230769,-3.543881868379837,31.07734513282776,10.0,0.4970862470862467,6.0,38.70360627510152,6.0
subject-02,1,437,0.99962306022644,boat,keyboard,32-0-10,32-0-10_keyboard_10_n03085013_3264.png,False,0.3001487087399777,2.6029839515686035,0.0909090909090909,-3.144241802895428,2.5557775497436523,0.0769230769230769,-3.543881868379837,31.07734513282776,10.0,0.4970862470862467,6.0,38.70360627510152,6.0
subject-01,1,456,0.961637020111084,truck,keyboard,32-0-10,32-0-10_keyboard_10_n03085013_3264.png,False,0.04409595360423259,2.6029839515686035,0.0909090909090909,-3.144241802895428,2.5557775497436523,0.0769230769230769,-3.543881868379837,31.07734513282776,10.0,0.4970862470862467,6.0,38.70360627510152,6.0
subject-04,1,39,1.24897718429565,bird,bottle,64-0-10,64-0-10_bottle_10_n04591713_5815.png,False,2.0768320127107036,2.52918004989624,0.5,-1.8033582459534867,2.522613048553467,0.0909090909090909,-3.527533001762319,30.96441650390625,10.0,0.9439615939615937,10.0,37.33684038913984,10.0
subject-03,1,865,1.24584484100342,bird,bottle,64-0-10,64-0-10_bottle_10_n04591713_5815.png,False,0.6113652189418421,2.52918004989624,0.5,-1.8033582459534867,2.522613048553467,0.0909090909090909,-3.527533001762319,30.96441650390625,10.0,0.9439615939615937,10.0,37.33684038913984,10.0
subject-02,1,697,1.02190780639648,bicycle,bottle,64-0-10,64-0-10_bottle_10_n04591713_5815.png,False,0.4094234299007709,2.52918004989624,0.5,-1.8033582459534867,2.522613048553467,0.0909090909090909,-3.527533001762319,30.96441650390625,10.0,0.9439615939615937,10.0,37.33684038913984,10.0
subject-01,1,190,0.854398965835571,boat,bottle,64-0-10,64-0-10_bottle_10_n04591713_5815.png,False,-0.45276302508976507,2.52918004989624,0.5,-1.8033582459534867,2.522613048553467,0.0909090909090909,-3.527533001762319,30.96441650390625,10.0,0.9439615939615937,10.0,37.33684038913984,10.0
subject-04,1,40,0.811040878295898,bear,oven,16-0-10,16-0-10_oven_10_n04111531_8988.png,False,-0.33186663308145076,1.542145848274231,0.0909090909090909,-4.3052962862572945,2.521312713623047,0.0625,-4.863486320704838,28.994302988052368,9.0,0.3981282606282604,6.0,43.774590024456366,6.0
subject-03,1,19,0.846580028533936,bird,oven,16-0-10,16-0-10_oven_10_n04111531_8988.png,False,-0.81689126994764,1.542145848274231,0.0909090909090909,-4.3052962862572945,2.521312713623047,0.0625,-4.863486320704838,28.994302988052368,9.0,0.3981282606282604,6.0,43.774590024456366,6.0
subject-02,1,536,1.30285501480103,oven,oven,16-0-10,16-0-10_oven_10_n04111531_8988.png,True,1.7870665775972316,1.542145848274231,0.0909090909090909,-4.3052962862572945,2.521312713623047,0.0625,-4.863486320704838,28.994302988052368,9.0,0.3981282606282604,6.0,43.774590024456366,6.0
subject-01,1,1176,0.913348913192749,car,oven,16-0-10,16-0-10_oven_10_n04111531_8988.png,False,-0.17963413594839878,1.542145848274231,0.0909090909090909,-4.3052962862572945,2.521312713623047,0.0625,-4.863486320704838,28.994302988052368,9.0,0.3981282606282604,6.0,43.774590024456366,6.0
subject-04,1,41,0.747083902359009,boat,bird,32-0-10,32-0-10_bird_10_n01797886_14611.png,False,-0.6836371513454311,1.8197929859161377,0.1428571428571428,-3.406701365909676,2.518096446990967,0.1111111111111111,-3.216436431508798,30.047065258026123,10.0,0.4718614718614715,7.0,40.428279919575125,6.0
subject-03,1,760,1.46508502960205,chair,bird,32-0-10,32-0-10_bird_10_n01797886_14611.png,False,1.3956347368455264,1.8197929859161377,0.1428571428571428,-3.406701365909676,2.518096446990967,0.1111111111111111,-3.216436431508798,30.047065258026123,10.0,0.4718614718614715,7.0,40.428279919575125,6.0
subject-02,1,638,1.01929116249084,bird,bird,32-0-10,32-0-10_bird_10_n01797886_14611.png,True,0.3965925441018427,1.8197929859161377,0.1428571428571428,-3.406701365909676,2.518096446990967,0.1111111111111111,-3.216436431508798,30.047065258026123,10.0,0.4718614718614715,7.0,40.428279919575125,6.0
subject-01,1,311,1.49544811248779,bird,bird,32-0-10,32-0-10_bird_10_n01797886_14611.png,True,2.5173675544894825,1.8197929859161377,0.1428571428571428,-3.406701365909676,2.518096446990967,0.1111111111111111,-3.216436431508798,30.047065258026123,10.0,0.4718614718614715,7.0,40.428279919575125,6.0
subject-04,1,42,0.838566064834595,bear,bear,16-0-10,16-0-10_bear_10_n02132136_9055.png,True,-0.18047502970757265,1.8460354804992676,0.5,-1.374459594931245,2.4589309692382812,1.0,-1.512046249375704,29.00674080848694,9.0,10.25,2.0,19.081620746160453,9.0
subject-03,1,1241,1.48188400268555,elephant,bear,16-0-10,16-0-10_bear_10_n02132136_9055.png,False,1.4557282927108397,1.8460354804992676,0.5,-1.374459594931245,2.4589309692382812,1.0,-1.512046249375704,29.00674080848694,9.0,10.25,2.0,19.081620746160453,9.0
subject-02,1,634,0.987605094909668,bear,bear,16-0-10,16-0-10_bear_10_n02132136_9055.png,True,0.2412178239594313,1.8460354804992676,0.5,-1.374459594931245,2.4589309692382812,1.0,-1.512046249375704,29.00674080848694,9.0,10.25,2.0,19.081620746160453,9.0
subject-01,1,390,1.23758482933044,bear,bear,16-0-10,16-0-10_bear_10_n02132136_9055.png,True,1.3226266728330935,1.8460354804992676,0.5,-1.374459594931245,2.4589309692382812,1.0,-1.512046249375704,29.00674080848694,9.0,10.25,2.0,19.081620746160453,9.0
subject-04,1,43,0.742312908172607,bird,bird,2-0-10,2-0-10_bird_10_n01855672_1001.png,True,-0.7098781527842918,0.2664092779159546,1.0,-0.03947164204083309,2.458317279815674,0.1,-3.5139697140555044,25.651151783764362,9.0,2.939285714285714,9.0,33.498961321104105,9.0
subject-03,1,283,0.750034093856812,bird,bird,2-0-10,2-0-10_bird_10_n01855672_1001.png,True,-1.1622569354707988,0.2664092779159546,1.0,-0.03947164204083309,2.458317279815674,0.1,-3.5139697140555044,25.651151783764362,9.0,2.939285714285714,9.0,33.498961321104105,9.0
subject-02,1,115,0.81849193572998,bird,bird,2-0-10,2-0-10_bird_10_n01855672_1001.png,True,-0.5880396947475055,0.2664092779159546,1.0,-0.03947164204083309,2.458317279815674,0.1,-3.5139697140555044,25.651151783764362,9.0,2.939285714285714,9.0,33.498961321104105,9.0
subject-01,1,523,0.705490827560425,bird,bird,2-0-10,2-0-10_bird_10_n01855672_1001.png,True,-1.1426892457999052,0.2664092779159546,1.0,-0.03947164204083309,2.458317279815674,0.1,-3.5139697140555044,25.651151783764362,9.0,2.939285714285714,9.0,33.498961321104105,9.0
subject-04,1,44,0.802234888076782,boat,car,16-0-10,16-0-10_car_10_n03100240_3386.png,False,-0.38030056382674876,2.569641590118408,0.0769230769230769,-3.578028128575097,2.510237693786621,0.0769230769230769,-3.6612078612804146,31.04262948036194,4.0,0.0794413919413918,5.0,45.698332210031865,0.0
subject-03,1,128,1.11337208747864,cat,car,16-0-10,16-0-10_car_10_n03100240_3386.png,False,0.1374815609941857,2.569641590118408,0.0769230769230769,-3.578028128575097,2.510237693786621,0.0769230769230769,-3.6612078612804146,31.04262948036194,4.0,0.0794413919413918,5.0,45.698332210031865,0.0
subject-02,1,412,0.910472869873047,airplane,car,16-0-10,16-0-10_car_10_n03100240_3386.png,False,-0.13700512366022308,2.569641590118408,0.0769230769230769,-3.578028128575097,2.510237693786621,0.0769230769230769,-3.6612078612804146,31.04262948036194,4.0,0.0794413919413918,5.0,45.698332210031865,0.0
subject-01,1,255,0.710391998291016,boat,car,16-0-10,16-0-10_car_10_n03100240_3386.png,False,-1.1199809758666417,2.569641590118408,0.0769230769230769,-3.578028128575097,2.510237693786621,0.0769230769230769,-3.6612078612804146,31.04262948036194,4.0,0.0794413919413918,5.0,45.698332210031865,0.0
subject-04,1,45,1.13592505455017,dog,car,32-0-10,32-0-10_car_10_n03100240_4605.png,False,1.4550326594914915,2.6427111625671387,0.0666666666666666,-3.651110057147584,2.5260021686553955,0.0833333333333333,-3.5030638104329404,30.921918153762817,9.0,0.049999999999999795,4.0,46.85805475421428,0.0
subject-03,1,190,1.2107629776001,boat,car,32-0-10,32-0-10_car_10_n03100240_4605.png,False,0.48586981468065227,2.6427111625671387,0.0666666666666666,-3.651110057147584,2.5260021686553955,0.0833333333333333,-3.5030638104329404,30.921918153762817,9.0,0.049999999999999795,4.0,46.85805475421428,0.0
subject-02,1,116,1.05036902427673,cat,car,32-0-10,32-0-10_car_10_n03100240_4605.png,False,0.548984887053116,2.6427111625671387,0.0666666666666666,-3.651110057147584,2.5260021686553955,0.0833333333333333,-3.5030638104329404,30.921918153762817,9.0,0.049999999999999795,4.0,46.85805475421428,0.0
subject-01,1,58,1.28148198127747,oven,car,32-0-10,32-0-10_car_10_n03100240_4605.png,False,1.5260124413583336,2.6427111625671387,0.0666666666666666,-3.651110057147584,2.5260021686553955,0.0833333333333333,-3.5030638104329404,30.921918153762817,9.0,0.049999999999999795,4.0,46.85805475421428,0.0
subject-04,1,46,0.861666917800903,boat,chair,16-0-10,16-0-10_chair_10_n04099969_16270.png,False,-0.05341775563762754,2.06233811378479,0.1111111111111111,-3.744908566579158,2.5456652641296387,0.0666666666666666,-3.793030273802547,30.297898530960083,10.0,0.6342643467643465,10.0,39.0981879280972,6.0
subject-03,1,370,0.902915954589844,bottle,chair,16-0-10,16-0-10_chair_10_n04099969_16270.png,False,-0.6153654919826751,2.06233811378479,0.1111111111111111,-3.744908566579158,2.5456652641296387,0.0666666666666666,-3.793030273802547,30.297898530960083,10.0,0.6342643467643465,10.0,39.0981879280972,6.0
subject-02,1,352,1.00402522087097,airplane,chair,16-0-10,16-0-10_chair_10_n04099969_16270.png,False,0.3217349935136742,2.06233811378479,0.1111111111111111,-3.744908566579158,2.5456652641296387,0.0666666666666666,-3.793030273802547,30.297898530960083,10.0,0.6342643467643465,10.0,39.0981879280972,6.0
subject-01,1,873,1.42790794372559,bear,chair,16-0-10,16-0-10_chair_10_n04099969_16270.png,False,2.204438161106506,2.06233811378479,0.1111111111111111,-3.744908566579158,2.5456652641296387,0.0666666666666666,-3.793030273802547,30.297898530960083,10.0,0.6342643467643465,10.0,39.0981879280972,6.0
subject-04,1,47,1.03166389465332,car,car,2-0-10,2-0-10_car_10_n03100240_8794.png,True,0.881584623300576,0.0500266328454017,1.0,-0.005875349414845099,2.509758472442627,0.1,-3.160683212053605,25.722843624651432,9.0,3.163665501165501,8.0,33.54220006571263,8.0
subject-03,1,197,0.635583877563477,car,car,2-0-10,2-0-10_car_10_n03100240_8794.png,True,-1.5716700842647564,0.0500266328454017,1.0,-0.005875349414845099,2.509758472442627,0.1,-3.160683212053605,25.722843624651432,9.0,3.163665501165501,8.0,33.54220006571263,8.0
subject-02,1,1042,1.07700705528259,car,car,2-0-10,2-0-10_car_10_n03100240_8794.png,True,0.6796062272392269,0.0500266328454017,1.0,-0.005875349414845099,2.509758472442627,0.1,-3.160683212053605,25.722843624651432,9.0,3.163665501165501,8.0,33.54220006571263,8.0
subject-01,1,79,0.595628976821899,car,car,2-0-10,2-0-10_car_10_n03100240_8794.png,True,-1.6517048869745952,0.0500266328454017,1.0,-0.005875349414845099,2.509758472442627,0.1,-3.160683212053605,25.722843624651432,9.0,3.163665501165501,8.0,33.54220006571263,8.0
subject-04,1,48,0.795289993286133,truck,truck,8-0-10,8-0-10_truck_10_n04467665_21900.png,True,-0.4184982616385731,0.6856223940849304,0.1428571428571428,-5.184465317543048,2.448424816131592,0.1428571428571428,-2.8999398919514223,28.375199258327484,10.0,0.9465007215007213,0.0,37.723787863395614,0.0
subject-03,1,545,1.21069598197937,boat,truck,8-0-10,8-0-10_truck_10_n04467665_21900.png,False,0.48563015687198324,0.6856223940849304,0.1428571428571428,-5.184465317543048,2.448424816131592,0.1428571428571428,-2.8999398919514223,28.375199258327484,10.0,0.9465007215007213,0.0,37.723787863395614,0.0
subject-02,1,81,1.03687000274658,truck,truck,8-0-10,8-0-10_truck_10_n04467665_21900.png,True,0.48279154554519943,0.6856223940849304,0.1428571428571428,-5.184465317543048,2.448424816131592,0.1428571428571428,-2.8999398919514223,28.375199258327484,10.0,0.9465007215007213,0.0,37.723787863395614,0.0
subject-01,1,706,0.756173133850098,truck,truck,8-0-10,8-0-10_truck_10_n04467665_21900.png,True,-0.9078662707742069,0.6856223940849304,0.1428571428571428,-5.184465317543048,2.448424816131592,0.1428571428571428,-2.8999398919514223,28.375199258327484,10.0,0.9465007215007213,0.0,37.723787863395614,0.0
subject-04,1,49,0.637353897094727,bird,bird,1-0-10,1-0-10_bird_10_n02027492_5222.png,True,-1.287164448493048,0.4339866042137146,1.0,-0.07122702285057962,2.4542667865753174,0.1111111111111111,-3.4006508670289297,26.04179021716118,9.0,4.336507936507936,7.0,30.5842561709174,9.0
subject-03,1,856,1.16767907142639,bird,bird,1-0-10,1-0-10_bird_10_n02027492_5222.png,True,0.33174937471823973,0.4339866042137146,1.0,-0.07122702285057962,2.4542667865753174,0.1111111111111111,-3.4006508670289297,26.04179021716118,9.0,4.336507936507936,7.0,30.5842561709174,9.0
subject-02,1,1125,0.718655109405518,bird,bird,1-0-10,1-0-10_bird_10_n02027492_5222.png,True,-1.077596150761856,0.4339866042137146,1.0,-0.07122702285057962,2.4542667865753174,0.1111111111111111,-3.4006508670289297,26.04179021716118,9.0,4.336507936507936,7.0,30.5842561709174,9.0
subject-01,1,760,0.687102794647217,bird,bird,1-0-10,1-0-10_bird_10_n02027492_5222.png,True,-1.2278853015766682,0.4339866042137146,1.0,-0.07122702285057962,2.4542667865753174,0.1111111111111111,-3.4006508670289297,26.04179021716118,9.0,4.336507936507936,7.0,30.5842561709174,9.0
subject-04,1,50,1.40891194343567,keyboard,knife,128-0-10,128-0-10_knife_10_n03041632_35260.png,False,2.9564910692399846,2.3009042739868164,0.2,-2.9400345294812267,2.552259922027588,0.0714285714285714,-3.8584254111820795,30.6768856048584,10.0,1.208308358308358,10.0,35.30719708183118,5.0
subject-03,1,1100,1.12599301338196,airplane,knife,128-0-10,128-0-10_knife_10_n03041632_35260.png,False,0.1826293394966752,2.3009042739868164,0.2,-2.9400345294812267,2.552259922027588,0.0714285714285714,-3.8584254111820795,30.6768856048584,10.0,1.208308358308358,10.0,35.30719708183118,5.0
subject-02,1,258,0.909282922744751,bottle,knife,128-0-10,128-0-10_knife_10_n03041632_35260.png,False,-0.14284010780805464,2.3009042739868164,0.2,-2.9400345294812267,2.552259922027588,0.0714285714285714,-3.8584254111820795,30.6768856048584,10.0,1.208308358308358,10.0,35.30719708183118,5.0
subject-01,1,864,1.04354310035706,truck,knife,128-0-10,128-0-10_knife_10_n03041632_35260.png,False,0.4235859737727249,2.3009042739868164,0.2,-2.9400345294812267,2.552259922027588,0.0714285714285714,-3.8584254111820795,30.6768856048584,10.0,1.208308358308358,10.0,35.30719708183118,5.0
subject-04,1,51,1.21923995018005,bird,chair,128-0-10,128-0-10_chair_10_n04099969_20604.png,False,1.913273900349289,2.4437079429626465,0.2,-2.626834362329214,2.5232231616973877,0.0769230769230769,-3.7479550191326467,30.81619691848755,10.0,0.8979298479298476,10.0,36.459364202680185,7.0
subject-03,1,839,1.47080302238464,bottle,chair,128-0-10,128-0-10_chair_10_n04099969_20604.png,False,1.4160892323084386,2.4437079429626465,0.2,-2.626834362329214,2.5232231616973877,0.0769230769230769,-3.7479550191326467,30.81619691848755,10.0,0.8979298479298476,10.0,36.459364202680185,7.0
subject-02,1,496,1.28246212005615,bird,chair,128-0-10,128-0-10_chair_10_n04099969_20604.png,False,1.687068674551599,2.4437079429626465,0.2,-2.626834362329214,2.5232231616973877,0.0769230769230769,-3.7479550191326467,30.81619691848755,10.0,0.8979298479298476,10.0,36.459364202680185,7.0
subject-01,1,89,1.32473087310791,keyboard,chair,128-0-10,128-0-10_chair_10_n04099969_20604.png,False,1.726394669194281,2.4437079429626465,0.2,-2.626834362329214,2.5232231616973877,0.0769230769230769,-3.7479550191326467,30.81619691848755,10.0,0.8979298479298476,10.0,36.459364202680185,7.0
subject-04,1,52,0.676837921142578,bear,bear,4-0-10,4-0-10_bear_10_n02133161_11816.png,True,-1.0699979017794319,0.2093961387872696,1.0,-0.03390404685254455,2.450853109359741,1.0,-1.7450011785491504,25.995257511734962,9.0,10.25,3.0,16.937200922341958,9.0
subject-03,1,702,1.5001049041748,bird,bear,4-0-10,4-0-10_bear_10_n02133161_11816.png,False,1.520908393668087,0.2093961387872696,1.0,-0.03390404685254455,2.450853109359741,1.0,-1.7450011785491504,25.995257511734962,9.0,10.25,3.0,16.937200922341958,9.0
subject-02,1,653,0.984099864959717,bear,bear,4-0-10,4-0-10_bear_10_n02133161_11816.png,True,0.2240296979443229,0.2093961387872696,1.0,-0.03390404685254455,2.450853109359741,1.0,-1.7450011785491504,25.995257511734962,9.0,10.25,3.0,16.937200922341958,9.0
subject-01,1,362,0.726804971694946,bear,bear,4-0-10,4-0-10_bear_10_n02133161_11816.png,True,-1.0439358325832977,0.2093961387872696,1.0,-0.03390404685254455,2.450853109359741,1.0,-1.7450011785491504,25.995257511734962,9.0,10.25,3.0,16.937200922341958,9.0
subject-04,1,53,0.856436014175415,keyboard,elephant,128-0-10,128-0-10_elephant_10_n02504458_4395.png,False,-0.08218831041092652,2.299790859222412,0.0769230769230769,-4.072124462003904,2.525735855102539,0.25,-2.511966099058777,30.59803295135498,10.0,2.728846153846154,1.0,33.046356302938285,0.0
subject-03,1,1041,1.50001692771912,cat,elephant,128-0-10,128-0-10_elephant_10_n02504458_4395.png,False,1.5205936828802333,2.299790859222412,0.0769230769230769,-4.072124462003904,2.525735855102539,0.25,-2.511966099058777,30.59803295135498,10.0,2.728846153846154,1.0,33.046356302938285,0.0
subject-02,1,832,0.554313182830811,cat,elephant,128-0-10,128-0-10_elephant_10_n02504458_4395.png,False,-1.8834576160193028,2.299790859222412,0.0769230769230769,-4.072124462003904,2.525735855102539,0.25,-2.511966099058777,30.59803295135498,10.0,2.728846153846154,1.0,33.046356302938285,0.0
subject-01,1,449,0.837547063827515,clock,elephant,128-0-10,128-0-10_elephant_10_n02504458_4395.png,False,-0.5308418272215372,2.299790859222412,0.0769230769230769,-4.072124462003904,2.525735855102539,0.25,-2.511966099058777,30.59803295135498,10.0,2.728846153846154,1.0,33.046356302938285,0.0
subject-04,1,54,1.04215693473816,bottle,chair,8-0-10,8-0-10_chair_10_n04099969_4816.png,False,0.9392975169253652,0.9431109428405762,0.0714285714285714,-4.8180136381907275,2.536630392074585,0.0666666666666666,-3.7558156826099873,28.25327706336975,9.0,0.7712301587301584,0.0,40.85855056116703,6.0
subject-03,1,161,1.32611608505249,keyboard,chair,8-0-10,8-0-10_chair_10_n04099969_4816.png,False,0.8985128002055383,0.9431109428405762,0.0714285714285714,-4.8180136381907275,2.536630392074585,0.0666666666666666,-3.7558156826099873,28.25327706336975,9.0,0.7712301587301584,0.0,40.85855056116703,6.0
subject-02,1,644,1.08958983421326,bear,chair,8-0-10,8-0-10_chair_10_n04099969_4816.png,False,0.7413067127904333,0.9431109428405762,0.0714285714285714,-4.8180136381907275,2.536630392074585,0.0666666666666666,-3.7558156826099873,28.25327706336975,9.0,0.7712301587301584,0.0,40.85855056116703,6.0
subject-01,1,856,1.06916499137878,truck,chair,8-0-10,8-0-10_chair_10_n04099969_4816.png,False,0.5422981855082519,0.9431109428405762,0.0714285714285714,-4.8180136381907275,2.536630392074585,0.0666666666666666,-3.7558156826099873,28.25327706336975,9.0,0.7712301587301584,0.0,40.85855056116703,6.0
subject-04,1,55,0.7360520362854,cat,cat,1-0-10,1-0-10_cat_10_n02124075_12622.png,True,-0.7443136481510593,0.2178865820169448,1.0,-0.03226455380451,2.524956703186035,0.1,-3.1850512536915256,25.77851377427578,9.0,3.8761904761904757,8.0,28.625313737895784,9.0
subject-03,1,241,0.742143154144287,cat,cat,1-0-10,1-0-10_cat_10_n02124075_12622.png,True,-1.190484531532024,0.2178865820169448,1.0,-0.03226455380451,2.524956703186035,0.1,-3.1850512536915256,25.77851377427578,9.0,3.8761904761904757,8.0,28.625313737895784,9.0
subject-02,1,491,0.623504877090454,cat,cat,1-0-10,1-0-10_cat_10_n02124075_12622.png,True,-1.544171584256896,0.2178865820169448,1.0,-0.03226455380451,2.524956703186035,0.1,-3.1850512536915256,25.77851377427578,9.0,3.8761904761904757,8.0,28.625313737895784,9.0
subject-01,1,1043,0.617012977600098,cat,cat,1-0-10,1-0-10_cat_10_n02124075_12622.png,True,-1.5526278115947063,0.2178865820169448,1.0,-0.03226455380451,2.524956703186035,0.1,-3.1850512536915256,25.77851377427578,9.0,3.8761904761904757,8.0,28.625313737895784,9.0
subject-04,1,56,1.25814700126648,boat,bicycle,32-0-10,32-0-10_bicycle_10_n03792782_10437.png,False,2.127267031267517,2.467961072921753,0.0833333333333333,-3.610807625918811,2.555601119995117,0.25,-2.2746729208153176,30.924570322036743,10.0,1.5607142857142853,6.0,32.10622383499402,6.0
subject-03,1,1133,0.986937046051025,oven,bicycle,32-0-10,32-0-10_bicycle_10_n03792782_10437.png,False,-0.31480389643215223,2.467961072921753,0.0833333333333333,-3.610807625918811,2.555601119995117,0.25,-2.2746729208153176,30.924570322036743,10.0,1.5607142857142853,6.0,32.10622383499402,6.0
subject-02,1,519,1.09016418457031,bird,bicycle,32-0-10,32-0-10_bicycle_10_n03792782_10437.png,False,0.7441230776095054,2.467961072921753,0.0833333333333333,-3.610807625918811,2.555601119995117,0.25,-2.2746729208153176,30.924570322036743,10.0,1.5607142857142853,6.0,32.10622383499402,6.0
subject-01,1,282,0.749165058135986,cat,bicycle,32-0-10,32-0-10_bicycle_10_n03792782_10437.png,False,-0.9403363241097324,2.467961072921753,0.0833333333333333,-3.610807625918811,2.555601119995117,0.25,-2.2746729208153176,30.924570322036743,10.0,1.5607142857142853,6.0,32.10622383499402,6.0
subject-04,1,57,0.785938024520874,boat,boat,1-0-10,1-0-10_boat_10_n02951358_9323.png,True,-0.46993513542994736,0.062918409705162,1.0,-0.0074653835459335795,2.4044013023376465,1.0,-1.6038504762416677,26.358027324080467,9.0,7.684523809523809,4.0,21.00012627906117,9.0
subject-03,1,894,1.05358600616455,boat,boat,1-0-10,1-0-10_boat_10_n02951358_9323.png,True,-0.076386167679374,0.062918409705162,1.0,-0.0074653835459335795,2.4044013023376465,1.0,-1.6038504762416677,26.358027324080467,9.0,7.684523809523809,4.0,21.00012627906117,9.0
subject-02,1,44,0.658579111099243,boat,boat,1-0-10,1-0-10_boat_10_n02951358_9323.png,True,-1.3721827667943203,0.062918409705162,1.0,-0.0074653835459335795,2.4044013023376465,1.0,-1.6038504762416677,26.358027324080467,9.0,7.684523809523809,4.0,21.00012627906117,9.0
subject-01,1,983,0.742274045944214,boat,boat,1-0-10,1-0-10_boat_10_n02951358_9323.png,True,-0.9722639947757373,0.062918409705162,1.0,-0.0074653835459335795,2.4044013023376465,1.0,-1.6038504762416677,26.358027324080467,9.0,7.684523809523809,4.0,21.00012627906117,9.0
subject-04,1,58,0.775511980056763,truck,truck,1-0-10,1-0-10_truck_10_n03417042_2204.png,True,-0.5272795456503852,0.08118137717247,1.0,-0.009945632230058985,2.44423770904541,0.2,-2.356434861256213,25.95419493317604,9.0,5.792857142857143,6.0,22.559715191129428,9.0
subject-03,1,201,0.986552953720093,truck,truck,1-0-10,1-0-10_truck_10_n03417042_2204.png,True,-0.31617787767681343,0.08118137717247,1.0,-0.009945632230058985,2.44423770904541,0.2,-2.356434861256213,25.95419493317604,9.0,5.792857142857143,6.0,22.559715191129428,9.0
subject-02,1,720,1.21563196182251,truck,truck,1-0-10,1-0-10_truck_10_n03417042_2204.png,True,1.3593625902915603,0.08118137717247,1.0,-0.009945632230058985,2.44423770904541,0.2,-2.356434861256213,25.95419493317604,9.0,5.792857142857143,6.0,22.559715191129428,9.0
subject-01,1,301,0.825137138366699,truck,truck,1-0-10,1-0-10_truck_10_n03417042_2204.png,True,-0.5883399134353005,0.08118137717247,1.0,-0.009945632230058985,2.44423770904541,0.2,-2.356434861256213,25.95419493317604,9.0,5.792857142857143,6.0,22.559715191129428,9.0
subject-04,1,59,0.985234022140503,keyboard,bear,128-0-10,128-0-10_bear_10_n02134418_278.png,False,0.6262151334597678,2.0605721473693848,0.2,-3.2841082456861623,2.531602382659912,1.0,-1.55591136202112,30.16934037208557,10.0,7.45,3.0,24.011551385760278,4.0
subject-03,1,525,1.42412900924683,keyboard,bear,128-0-10,128-0-10_bear_10_n02134418_278.png,False,1.249126204151067,2.0605721473693848,0.2,-3.2841082456861623,2.531602382659912,1.0,-1.55591136202112,30.16934037208557,10.0,7.45,3.0,24.011551385760278,4.0
subject-02,1,1114,1.15175890922546,cat,bear,128-0-10,128-0-10_bear_10_n02134418_278.png,False,1.046156868360791,2.0605721473693848,0.2,-3.2841082456861623,2.531602382659912,1.0,-1.55591136202112,30.16934037208557,10.0,7.45,3.0,24.011551385760278,4.0
subject-01,1,357,0.921966075897217,elephant,bear,128-0-10,128-0-10_bear_10_n02134418_278.png,False,-0.13970880636733396,2.0605721473693848,0.2,-3.2841082456861623,2.531602382659912,1.0,-1.55591136202112,30.16934037208557,10.0,7.45,3.0,24.011551385760278,4.0
subject-04,1,60,0.757292032241821,bear,bear,1-0-10,1-0-10_bear_10_n02134084_8601.png,True,-0.6274912956857419,0.0353641808032989,1.0,-0.0038395828041844367,2.4834423065185547,1.0,-1.7342735417670776,25.188804790377617,9.0,10.083333333333332,4.0,16.438199601914373,9.0
subject-03,1,1120,0.805866956710815,bear,bear,1-0-10,1-0-10_bear_10_n02134084_8601.png,True,-0.9625307232576922,0.0353641808032989,1.0,-0.0038395828041844367,2.4834423065185547,1.0,-1.7342735417670776,25.188804790377617,9.0,10.083333333333332,4.0,16.438199601914373,9.0
subject-02,1,538,0.802457094192505,bear,bear,1-0-10,1-0-10_bear_10_n02134084_8601.png,True,-0.6666675967435707,0.0353641808032989,1.0,-0.0038395828041844367,2.4834423065185547,1.0,-1.7342735417670776,25.188804790377617,9.0,10.083333333333332,4.0,16.438199601914373,9.0
subject-01,1,105,0.745707035064697,bear,bear,1-0-10,1-0-10_bear_10_n02134084_8601.png,True,-0.9563581535163598,0.0353641808032989,1.0,-0.0038395828041844367,2.4834423065185547,1.0,-1.7342735417670776,25.188804790377617,9.0,10.083333333333332,4.0,16.438199601914373,9.0
subject-04,1,61,1.23306107521057,bottle,oven,2-0-10,2-0-10_oven_10_n04111531_1662.png,False,1.9892916332667248,0.1024551540613174,1.0,-0.013238833973620167,2.5174269676208496,0.0625,-4.4388315923325115,26.49048288166523,9.0,3.3054292929292926,8.0,31.85688619689438,9.0
subject-03,1,426,1.29182195663452,dog,oven,2-0-10,2-0-10_oven_10_n04111531_1662.png,False,0.7758352941643101,0.1024551540613174,1.0,-0.013238833973620167,2.5174269676208496,0.0625,-4.4388315923325115,26.49048288166523,9.0,3.3054292929292926,8.0,31.85688619689438,9.0
subject-02,1,376,0.837191104888916,oven,oven,2-0-10,2-0-10_oven_10_n04111531_1662.png,True,-0.49634708671015887,0.1024551540613174,1.0,-0.013238833973620167,2.5174269676208496,0.0625,-4.4388315923325115,26.49048288166523,9.0,3.3054292929292926,8.0,31.85688619689438,9.0
subject-01,1,1090,0.830348968505859,oven,oven,2-0-10,2-0-10_oven_10_n04111531_1662.png,True,-0.5641922858271319,0.1024551540613174,1.0,-0.013238833973620167,2.5174269676208496,0.0625,-4.4388315923325115,26.49048288166523,9.0,3.3054292929292926,8.0,31.85688619689438,9.0
subject-04,1,62,1.12289714813232,dog,dog,16-0-10,16-0-10_dog_10_n02107142_9379.png,True,1.3833777176283248,2.3906362056732178,1.0,-1.130009635110237,2.5147299766540527,0.1428571428571428,-2.720728515947228,30.634126663208008,10.0,3.6738455988455985,8.0,31.14718056404956,10.0
subject-03,1,876,1.21170806884766,keyboard,dog,16-0-10,16-0-10_dog_10_n02107142_9379.png,False,0.48925061024480754,2.3906362056732178,1.0,-1.130009635110237,2.5147299766540527,0.1428571428571428,-2.720728515947228,30.634126663208008,10.0,3.6738455988455985,8.0,31.14718056404956,10.0
subject-02,1,543,1.0856602191925,bear,dog,16-0-10,16-0-10_dog_10_n02107142_9379.png,False,0.7220375866183742,2.3906362056732178,1.0,-1.130009635110237,2.5147299766540527,0.1428571428571428,-2.720728515947228,30.634126663208008,10.0,3.6738455988455985,8.0,31.14718056404956,10.0
subject-01,1,56,0.680009126663208,clock,dog,16-0-10,16-0-10_dog_10_n02107142_9379.png,False,-1.2607519239108804,2.3906362056732178,1.0,-1.130009635110237,2.5147299766540527,0.1428571428571428,-2.720728515947228,30.634126663208008,10.0,3.6738455988455985,8.0,31.14718056404956,10.0
subject-04,1,63,0.908694982528687,car,chair,16-0-10,16-0-10_chair_10_n02791124_9162.png,False,0.2052418582654572,2.5343217849731445,0.25,-2.5348825896701253,2.4826791286468506,0.0666666666666666,-3.886107310193309,30.6230731010437,10.0,1.396367521367521,0.0,36.70788208188942,6.0
subject-03,1,1163,0.793244123458862,elephant,chair,16-0-10,16-0-10_chair_10_n02791124_9162.png,False,-1.0076853247582933,2.5343217849731445,0.25,-2.5348825896701253,2.4826791286468506,0.0666666666666666,-3.886107310193309,30.6230731010437,10.0,1.396367521367521,0.0,36.70788208188942,6.0
subject-02,1,29,1.24107718467712,elephant,chair,16-0-10,16-0-10_chair_10_n02791124_9162.png,False,1.4841349171152751,2.5343217849731445,0.25,-2.5348825896701253,2.4826791286468506,0.0666666666666666,-3.886107310193309,30.6230731010437,10.0,1.396367521367521,0.0,36.70788208188942,6.0
subject-01,1,531,1.15406584739685,bicycle,chair,16-0-10,16-0-10_chair_10_n02791124_9162.png,False,0.9356637020347552,2.5343217849731445,0.25,-2.5348825896701253,2.4826791286468506,0.0666666666666666,-3.886107310193309,30.6230731010437,10.0,1.396367521367521,0.0,36.70788208188942,6.0
subject-04,1,64,0.938524007797241,boat,airplane,64-0-10,64-0-10_airplane_10_n02690373_3617.png,False,0.3693048322306865,2.41347599029541,0.0625,-3.870678623257661,2.5381035804748535,0.1666666666666666,-2.5262175442392527,30.807659149169922,10.0,0.4445929070929068,3.0,38.91749992638855,7.0
subject-03,1,619,1.43166995048523,bird,airplane,64-0-10,64-0-10_airplane_10_n02690373_3617.png,False,1.2761017800588543,2.41347599029541,0.0625,-3.870678623257661,2.5381035804748535,0.1666666666666666,-2.5262175442392527,30.807659149169922,10.0,0.4445929070929068,3.0,38.91749992638855,7.0
subject-02,1,1244,1.17365407943726,dog,airplane,64-0-10,64-0-10_airplane_10_n02690373_3617.png,False,1.1535212781416477,2.41347599029541,0.0625,-3.870678623257661,2.5381035804748535,0.1666666666666666,-2.5262175442392527,30.807659149169922,10.0,0.4445929070929068,3.0,38.91749992638855,7.0
subject-01,1,719,0.887631893157959,oven,airplane,64-0-10,64-0-10_airplane_10_n02690373_3617.png,False,-0.29878710264351116,2.41347599029541,0.0625,-3.870678623257661,2.5381035804748535,0.1666666666666666,-2.5262175442392527,30.807659149169922,10.0,0.4445929070929068,3.0,38.91749992638855,7.0
subject-04,1,65,0.740121126174927,chair,bicycle,128-0-10,128-0-10_bicycle_10_n02835271_9944.png,False,-0.7219331988203389,1.982372164726257,0.0714285714285714,-3.9704829404687203,2.5509889125823975,0.1666666666666666,-2.6180857218248,30.22197687625885,10.0,1.577319902319902,3.0,33.520563691492455,6.0
subject-03,1,429,1.21535205841064,boat,bicycle,128-0-10,128-0-10_bicycle_10_n02835271_9944.png,False,0.502285948136422,1.982372164726257,0.0714285714285714,-3.9704829404687203,2.5509889125823975,0.1666666666666666,-2.6180857218248,30.22197687625885,10.0,1.577319902319902,3.0,33.520563691492455,6.0
subject-02,1,1197,1.00115394592285,cat,bicycle,128-0-10,128-0-10_bicycle_10_n02835271_9944.png,False,0.30765550762060195,1.982372164726257,0.0714285714285714,-3.9704829404687203,2.5509889125823975,0.1666666666666666,-2.6180857218248,30.22197687625885,10.0,1.577319902319902,3.0,33.520563691492455,6.0
subject-01,1,840,1.07595586776733,oven,bicycle,128-0-10,128-0-10_bicycle_10_n02835271_9944.png,False,0.5737619035852648,1.982372164726257,0.0714285714285714,-3.9704829404687203,2.5509889125823975,0.1666666666666666,-2.6180857218248,30.22197687625885,10.0,1.577319902319902,3.0,33.520563691492455,6.0
subject-04,1,66,1.00605201721191,keyboard,dog,64-0-10,64-0-10_dog_10_n02096051_3825.png,False,0.7407164338763499,2.3126301765441895,1.0,-1.367289838188955,2.5138099193573,0.1428571428571428,-2.725009026261819,30.377469301223755,10.0,2.6396825396825396,10.0,31.4183108023425,10.0
subject-03,1,831,1.40232586860657,knife,dog,64-0-10,64-0-10_dog_10_n02096051_3825.png,False,1.1711316598659973,2.3126301765441895,1.0,-1.367289838188955,2.5138099193573,0.1428571428571428,-2.725009026261819,30.377469301223755,10.0,2.6396825396825396,10.0,31.4183108023425,10.0
subject-02,1,881,1.1385669708252,cat,dog,64-0-10,64-0-10_dog_10_n02096051_3825.png,False,0.9814693292136397,2.3126301765441895,1.0,-1.367289838188955,2.5138099193573,0.1428571428571428,-2.725009026261819,30.377469301223755,10.0,2.6396825396825396,10.0,31.4183108023425,10.0
subject-01,1,395,1.0627748966217,bear,dog,64-0-10,64-0-10_dog_10_n02096051_3825.png,False,0.5126913824362425,2.3126301765441895,1.0,-1.367289838188955,2.5138099193573,0.1428571428571428,-2.725009026261819,30.377469301223755,10.0,2.6396825396825396,10.0,31.4183108023425,10.0
subject-04,1,67,1.39591598510742,keyboard,oven,64-0-10,64-0-10_oven_10_n04111531_21855.png,False,2.8850118454415252,2.235576629638672,0.0625,-5.109571341952357,2.5241968631744385,0.0625,-4.517251482981496,30.440739393234253,10.0,0.2566239316239315,6.0,45.63710835224893,6.0
subject-03,1,444,0.878401041030884,cat,oven,64-0-10,64-0-10_oven_10_n04111531_21855.png,False,-0.7030606338324854,2.235576629638672,0.0625,-5.109571341952357,2.5241968631744385,0.0625,-4.517251482981496,30.440739393234253,10.0,0.2566239316239315,6.0,45.63710835224893,6.0
subject-02,1,401,1.32441997528076,elephant,oven,64-0-10,64-0-10_oven_10_n04111531_21855.png,False,1.8928117821997477,2.235576629638672,0.0625,-5.109571341952357,2.5241968631744385,0.0625,-4.517251482981496,30.440739393234253,10.0,0.2566239316239315,6.0,45.63710835224893,6.0
subject-01,1,1052,1.09951710700989,truck,oven,64-0-10,64-0-10_oven_10_n04111531_21855.png,False,0.6829266338287562,2.235576629638672,0.0625,-5.109571341952357,2.5241968631744385,0.0625,-4.517251482981496,30.440739393234253,10.0,0.2566239316239315,6.0,45.63710835224893,6.0
subject-04,1,68,1.3855299949646,oven,oven,8-0-10,8-0-10_oven_10_n04111531_16583.png,True,2.827887738466399,1.638330101966858,0.0833333333333333,-4.69295201809046,2.4426400661468506,0.0625,-4.128412599931842,28.856300234794617,10.0,1.0934523809523804,6.0,37.049737048351794,6.0
subject-03,1,476,1.23660111427307,oven,oven,8-0-10,8-0-10_oven_10_n04111531_16583.png,True,0.5782984114701654,1.638330101966858,0.0833333333333333,-4.69295201809046,2.4426400661468506,0.0625,-4.128412599931842,28.856300234794617,10.0,1.0934523809523804,6.0,37.049737048351794,6.0
subject-02,1,520,0.758299112319946,oven,oven,8-0-10,8-0-10_oven_10_n04111531_16583.png,True,-0.8831991703737226,1.638330101966858,0.0833333333333333,-4.69295201809046,2.4426400661468506,0.0625,-4.128412599931842,28.856300234794617,10.0,1.0934523809523804,6.0,37.049737048351794,6.0
subject-01,1,1257,0.769154071807861,truck,oven,8-0-10,8-0-10_oven_10_n04111531_16583.png,False,-0.8477225501541563,1.638330101966858,0.0833333333333333,-4.69295201809046,2.4426400661468506,0.0625,-4.128412599931842,28.856300234794617,10.0,1.0934523809523804,6.0,37.049737048351794,6.0
subject-04,1,69,0.823570013046265,boat,truck,16-0-10,16-0-10_truck_10_n03417042_4157.png,False,-0.26295499115383797,2.160122871398926,0.0769230769230769,-4.488782169596255,2.51513934135437,0.125,-3.0125549690089466,30.23575210571289,10.0,0.7526556776556772,1.0,38.34642736738992,0.0
subject-03,1,422,0.730670928955078,oven,truck,16-0-10,16-0-10_truck_10_n03417042_4157.png,False,-1.2315231594219824,2.160122871398926,0.0769230769230769,-4.488782169596255,2.51513934135437,0.125,-3.0125549690089466,30.23575210571289,10.0,0.7526556776556772,1.0,38.34642736738992,0.0
subject-02,1,901,1.17228579521179,airplane,truck,16-0-10,16-0-10_truck_10_n03417042_4157.png,False,1.1468118062873993,2.160122871398926,0.0769230769230769,-4.488782169596255,2.51513934135437,0.125,-3.0125549690089466,30.23575210571289,10.0,0.7526556776556772,1.0,38.34642736738992,0.0
subject-01,1,817,0.916306972503662,boat,truck,16-0-10,16-0-10_truck_10_n03417042_4157.png,False,-0.16592875553968228,2.160122871398926,0.0769230769230769,-4.488782169596255,2.51513934135437,0.125,-3.0125549690089466,30.23575210571289,10.0,0.7526556776556772,1.0,38.34642736738992,0.0
subject-04,1,70,0.791351079940796,boat,boat,2-0-10,2-0-10_boat_10_n03662601_2171.png,True,-0.44016272542206064,0.1219366267323494,1.0,-0.016038739972642393,2.508328437805176,1.0,-1.657894458008372,26.005054242908955,9.0,6.513131313131313,4.0,22.667071659928812,9.0
subject-03,1,873,0.848453998565674,truck,boat,2-0-10,2-0-10_boat_10_n03662601_2171.png,False,-0.810187674303286,0.1219366267323494,1.0,-0.016038739972642393,2.508328437805176,1.0,-1.657894458008372,26.005054242908955,9.0,6.513131313131313,4.0,22.667071659928812,9.0
subject-02,1,828,0.550798177719116,boat,boat,2-0-10,2-0-10_boat_10_n03662601_2171.png,True,-1.9006936751840973,0.1219366267323494,1.0,-0.016038739972642393,2.508328437805176,1.0,-1.657894458008372,26.005054242908955,9.0,6.513131313131313,4.0,22.667071659928812,9.0
subject-01,1,253,0.498405933380127,boat,boat,2-0-10,2-0-10_boat_10_n03662601_2171.png,True,-2.102161978874959,0.1219366267323494,1.0,-0.016038739972642393,2.508328437805176,1.0,-1.657894458008372,26.005054242908955,9.0,6.513131313131313,4.0,22.667071659928812,9.0
subject-04,1,71,1.09505105018616,bottle,clock,16-0-10,16-0-10_clock_10_n04548280_1438.png,False,1.2302210656343942,2.098022699356079,1.0,-0.9660702859899108,2.547635555267334,0.1,-3.0935348703338117,30.603322744369507,10.0,2.6725940725940722,8.0,35.6566113988475,10.0
subject-03,1,1184,1.50003910064697,bird,clock,16-0-10,16-0-10_clock_10_n04548280_1438.png,False,1.5206730002332542,2.098022699356079,1.0,-0.9660702859899108,2.547635555267334,0.1,-3.0935348703338117,30.603322744369507,10.0,2.6725940725940722,8.0,35.6566113988475,10.0
subject-02,1,955,1.04057788848877,oven,clock,16-0-10,16-0-10_clock_10_n04548280_1438.png,False,0.5009734075903062,2.098022699356079,1.0,-0.9660702859899108,2.547635555267334,0.1,-3.0935348703338117,30.603322744369507,10.0,2.6725940725940722,8.0,35.6566113988475,10.0
subject-01,1,870,1.12278509140015,dog,clock,16-0-10,16-0-10_clock_10_n04548280_1438.png,False,0.7907326457758823,2.098022699356079,1.0,-0.9660702859899108,2.547635555267334,0.1,-3.0935348703338117,30.603322744369507,10.0,2.6725940725940722,8.0,35.6566113988475,10.0
subject-04,1,72,0.772876977920532,airplane,airplane,8-0-10,8-0-10_airplane_10_n02690373_7536.png,True,-0.5417723520020071,1.9800708293914795,0.1111111111111111,-3.5771889449663297,2.4444267749786377,0.25,-2.306465109401737,29.910889863967896,10.0,0.7792790542790542,3.0,37.620539904914494,3.0
subject-03,1,978,0.931563854217529,airplane,airplane,8-0-10,8-0-10_airplane_10_n02690373_7536.png,True,-0.5128857661004376,1.9800708293914795,0.1111111111111111,-3.5771889449663297,2.4444267749786377,0.25,-2.306465109401737,29.910889863967896,10.0,0.7792790542790542,3.0,37.620539904914494,3.0
subject-02,1,845,0.673974990844727,airplane,airplane,8-0-10,8-0-10_airplane_10_n02690373_7536.png,True,-1.2966880560457326,1.9800708293914795,0.1111111111111111,-3.5771889449663297,2.4444267749786377,0.25,-2.306465109401737,29.910889863967896,10.0,0.7792790542790542,3.0,37.620539904914494,3.0
subject-01,1,586,0.699648857116699,airplane,airplane,8-0-10,8-0-10_airplane_10_n02690373_7536.png,True,-1.1697564607716808,1.9800708293914795,0.1111111111111111,-3.5771889449663297,2.4444267749786377,0.25,-2.306465109401737,29.910889863967896,10.0,0.7792790542790542,3.0,37.620539904914494,3.0
subject-04,1,73,0.980700969696045,keyboard,keyboard,2-0-10,2-0-10_keyboard_10_n03085013_7536.png,True,0.6012828382043088,0.0760115459561348,1.0,-0.00912778300985683,2.5343923568725586,0.0833333333333333,-3.4277496895302795,25.05689685419202,9.0,3.928185703185703,8.0,28.80041762912369,6.0
subject-03,1,451,0.813108921051025,keyboard,keyboard,2-0-10,2-0-10_keyboard_10_n03085013_7536.png,True,-0.9366246523038396,0.0760115459561348,1.0,-0.00912778300985683,2.5343923568725586,0.0833333333333333,-3.4277496895302795,25.05689685419202,9.0,3.928185703185703,8.0,28.80041762912369,6.0
subject-02,1,141,0.689657926559448,keyboard,keyboard,2-0-10,2-0-10_keyboard_10_n03085013_7536.png,True,-1.219785747438207,0.0760115459561348,1.0,-0.00912778300985683,2.5343923568725586,0.0833333333333333,-3.4277496895302795,25.05689685419202,9.0,3.928185703185703,8.0,28.80041762912369,6.0
subject-01,1,221,0.588342905044556,keyboard,keyboard,2-0-10,2-0-10_keyboard_10_n03085013_7536.png,True,-1.685462961069086,0.0760115459561348,1.0,-0.00912778300985683,2.5343923568725586,0.0833333333333333,-3.4277496895302795,25.05689685419202,9.0,3.928185703185703,8.0,28.80041762912369,6.0
subject-04,1,74,0.964564085006714,cat,chair,64-0-10,64-0-10_chair_10_n04099969_38787.png,False,0.5125281682534739,2.309835195541382,0.25,-2.430214107832498,2.502418279647827,0.0769230769230769,-3.8811405930152127,30.6636004447937,10.0,1.4328144078144076,0.0,36.44568072055965,6.0
subject-03,1,765,1.47412800788879,keyboard,chair,64-0-10,64-0-10_chair_10_n04099969_38787.png,False,1.4279834237659654,2.309835195541382,0.25,-2.430214107832498,2.502418279647827,0.0769230769230769,-3.8811405930152127,30.6636004447937,10.0,1.4328144078144076,0.0,36.44568072055965,6.0
subject-02,1,647,0.903213024139404,keyboard,chair,64-0-10,64-0-10_chair_10_n04099969_38787.png,False,-0.172604255557932,2.309835195541382,0.25,-2.430214107832498,2.502418279647827,0.0769230769230769,-3.8811405930152127,30.6636004447937,10.0,1.4328144078144076,0.0,36.44568072055965,6.0
subject-01,1,1142,0.969555139541626,clock,chair,64-0-10,64-0-10_chair_10_n04099969_38787.png,False,0.08078245225450262,2.309835195541382,0.25,-2.430214107832498,2.502418279647827,0.0769230769230769,-3.8811405930152127,30.6636004447937,10.0,1.4328144078144076,0.0,36.44568072055965,6.0
subject-04,1,75,0.956354856491089,keyboard,knife,128-0-10,128-0-10_knife_10_n03041632_33584.png,False,0.4673764935973985,1.6864410638809204,0.25,-3.4211093946793065,2.585313320159912,0.0769230769230769,-3.523589436140371,29.603493094444275,9.0,1.6598956598956596,5.0,34.95134485668388,5.0
subject-03,1,1087,1.4821150302887,boat,knife,128-0-10,128-0-10_knife_10_n03041632_33584.png,False,1.4565547283570734,1.6864410638809204,0.25,-3.4211093946793065,2.585313320159912,0.0769230769230769,-3.523589436140371,29.603493094444275,9.0,1.6598956598956596,5.0,34.95134485668388,5.0
subject-02,1,28,1.11953806877136,cat,knife,128-0-10,128-0-10_knife_10_n03041632_33584.png,False,0.888159854200415,1.6864410638809204,0.25,-3.4211093946793065,2.585313320159912,0.0769230769230769,-3.523589436140371,29.603493094444275,9.0,1.6598956598956596,5.0,34.95134485668388,5.0
subject-01,1,773,1.18255305290222,truck,knife,128-0-10,128-0-10_knife_10_n03041632_33584.png,False,1.067651585709703,1.6864410638809204,0.25,-3.4211093946793065,2.585313320159912,0.0769230769230769,-3.523589436140371,29.603493094444275,9.0,1.6598956598956596,5.0,34.95134485668388,5.0
subject-04,1,76,0.892413139343262,bear,chair,128-0-10,128-0-10_chair_10_n03376595_8196.png,False,0.11568990037924484,2.5086283683776855,0.5,-2.0993803009451044,2.521472215652466,0.0769230769230769,-3.870740015650554,30.88807773590088,10.0,2.021703296703296,9.0,35.53098768100182,6.0
subject-03,1,450,1.38562798500061,oven,chair,128-0-10,128-0-10_chair_10_n03376595_8196.png,False,1.1113997229005863,2.5086283683776855,0.5,-2.0993803009451044,2.521472215652466,0.0769230769230769,-3.870740015650554,30.88807773590088,10.0,2.021703296703296,9.0,35.53098768100182,6.0
subject-02,1,1060,1.35154700279236,dog,chair,128-0-10,128-0-10_chair_10_n03376595_8196.png,False,2.0258309489711652,2.5086283683776855,0.5,-2.0993803009451044,2.521472215652466,0.0769230769230769,-3.870740015650554,30.88807773590088,10.0,2.021703296703296,9.0,35.53098768100182,6.0
subject-01,1,1027,1.19442009925842,chair,chair,128-0-10,128-0-10_chair_10_n03376595_8196.png,True,1.1226343861016927,2.5086283683776855,0.5,-2.0993803009451044,2.521472215652466,0.0769230769230769,-3.870740015650554,30.88807773590088,10.0,2.021703296703296,9.0,35.53098768100182,6.0
subject-04,1,77,1.1660270690918,keyboard,cat,64-0-10,64-0-10_cat_10_n02123394_292.png,False,1.6205971049797834,2.2395105361938477,0.5,-1.529530690710973,2.494107723236084,0.125,-2.7277177003878403,30.387559413909912,10.0,4.25,7.0,30.417415348216895,5.0
subject-03,1,542,0.896981954574585,cat,cat,64-0-10,64-0-10_cat_10_n02123394_292.png,True,-0.6365926919817027,2.2395105361938477,0.5,-1.529530690710973,2.494107723236084,0.125,-2.7277177003878403,30.387559413909912,10.0,4.25,7.0,30.417415348216895,5.0
subject-02,1,67,0.99008584022522,cat,cat,64-0-10,64-0-10_cat_10_n02123394_292.png,True,0.25338232206766353,2.2395105361938477,0.5,-1.529530690710973,2.494107723236084,0.125,-2.7277177003878403,30.387559413909912,10.0,4.25,7.0,30.417415348216895,5.0
subject-01,1,913,0.874709129333496,bottle,cat,64-0-10,64-0-10_cat_10_n02123394_292.png,False,-0.3586612889023396,2.2395105361938477,0.5,-1.529530690710973,2.494107723236084,0.125,-2.7277177003878403,30.387559413909912,10.0,4.25,7.0,30.417415348216895,5.0
subject-04,1,78,0.903740882873535,airplane,airplane,2-0-10,2-0-10_airplane_10_n02690373_1706.png,True,0.1779937562766475,0.0384547263383865,1.0,-0.004219540674665996,2.520808219909668,0.3333333333333333,-2.2690347513324416,25.463623866438866,9.0,4.6982905982905985,7.0,27.204830912406536,8.0
subject-03,1,320,0.645133018493652,airplane,airplane,2-0-10,2-0-10_airplane_10_n02690373_1706.png,True,-1.5375107442205218,0.0384547263383865,1.0,-0.004219540674665996,2.520808219909668,0.3333333333333333,-2.2690347513324416,25.463623866438866,9.0,4.6982905982905985,7.0,27.204830912406536,8.0
subject-02,1,1064,0.935127973556519,airplane,airplane,2-0-10,2-0-10_airplane_10_n02690373_1706.png,True,-0.01610719825221648,0.0384547263383865,1.0,-0.004219540674665996,2.520808219909668,0.3333333333333333,-2.2690347513324416,25.463623866438866,9.0,4.6982905982905985,7.0,27.204830912406536,8.0
subject-01,1,919,0.787541151046753,airplane,airplane,2-0-10,2-0-10_airplane_10_n02690373_1706.png,True,-0.762530912973477,0.0384547263383865,1.0,-0.004219540674665996,2.520808219909668,0.3333333333333333,-2.2690347513324416,25.463623866438866,9.0,4.6982905982905985,7.0,27.204830912406536,8.0
subject-04,1,79,0.747745990753174,bicycle,bicycle,1-0-10,1-0-10_bicycle_10_n02835271_1530.png,True,-0.6799955911537513,0.0210498496890068,1.0,-0.002157629965421237,2.5405359268188477,1.0,-1.873176329676435,25.177462175488472,9.0,8.833333333333332,6.0,18.798104635797916,8.0
subject-03,1,607,0.631821870803833,bicycle,bicycle,1-0-10,1-0-10_bicycle_10_n02835271_1530.png,True,-1.5851275951645387,0.0210498496890068,1.0,-0.002157629965421237,2.5405359268188477,1.0,-1.873176329676435,25.177462175488472,9.0,8.833333333333332,6.0,18.798104635797916,8.0
subject-02,1,735,0.947726011276245,bicycle,bicycle,1-0-10,1-0-10_bicycle_10_n02835271_1530.png,True,0.045668109776510646,0.0210498496890068,1.0,-0.002157629965421237,2.5405359268188477,1.0,-1.873176329676435,25.177462175488472,9.0,8.833333333333332,6.0,18.798104635797916,8.0
subject-01,1,866,0.653178930282593,bicycle,bicycle,1-0-10,1-0-10_bicycle_10_n02835271_1530.png,True,-1.3850624968869862,0.0210498496890068,1.0,-0.002157629965421237,2.5405359268188477,1.0,-1.873176329676435,25.177462175488472,9.0,8.833333333333332,6.0,18.798104635797916,8.0
subject-04,1,80,1.26753497123718,bicycle,knife,8-0-10,8-0-10_knife_10_n03041632_105581.png,False,2.178901915713876,2.0857014656066895,0.5,-1.9406242036081731,2.484978437423706,0.1,-3.3518920850720315,29.928068161010742,10.0,3.533766233766234,5.0,27.94969751752259,5.0
subject-03,1,302,0.738949060440063,oven,knife,8-0-10,8-0-10_knife_10_n03041632_105581.png,False,-1.2019104947441657,2.0857014656066895,0.5,-1.9406242036081731,2.484978437423706,0.1,-3.3518920850720315,29.928068161010742,10.0,3.533766233766234,5.0,27.94969751752259,5.0
subject-02,1,1143,1.00145816802979,chair,knife,8-0-10,8-0-10_knife_10_n03041632_105581.png,False,0.30914728076682313,2.0857014656066895,0.5,-1.9406242036081731,2.484978437423706,0.1,-3.3518920850720315,29.928068161010742,10.0,3.533766233766234,5.0,27.94969751752259,5.0
subject-01,1,1191,1.05825805664062,clock,knife,8-0-10,8-0-10_knife_10_n03041632_105581.png,False,0.49176380672549797,2.0857014656066895,0.5,-1.9406242036081731,2.484978437423706,0.1,-3.3518920850720315,29.928068161010742,10.0,3.533766233766234,5.0,27.94969751752259,5.0
subject-04,1,81,0.898457050323486,cat,bottle,64-0-10,64-0-10_bottle_10_n04591713_2732.png,False,0.14893208650062567,2.0030405521392822,0.125,-3.1853601206798277,2.538504123687744,0.0909090909090909,-3.487848187116953,30.301286697387695,10.0,0.4539904539904538,9.0,38.903187570012896,0.0
subject-03,1,181,1.0084969997406,chair,bottle,64-0-10,64-0-10_bottle_10_n04591713_2732.png,False,-0.23767928440627847,2.0030405521392822,0.125,-3.1853601206798277,2.538504123687744,0.0909090909090909,-3.487848187116953,30.301286697387695,10.0,0.4539904539904538,9.0,38.903187570012896,0.0
subject-02,1,925,1.09583210945129,dog,bottle,64-0-10,64-0-10_bottle_10_n04591713_2732.png,False,0.7719161207163675,2.0030405521392822,0.125,-3.1853601206798277,2.538504123687744,0.0909090909090909,-3.487848187116953,30.301286697387695,10.0,0.4539904539904538,9.0,38.903187570012896,0.0
subject-01,1,78,1.00168108940125,chair,bottle,64-0-10,64-0-10_bottle_10_n04591713_2732.png,False,0.22962948929433993,2.0030405521392822,0.125,-3.1853601206798277,2.538504123687744,0.0909090909090909,-3.487848187116953,30.301286697387695,10.0,0.4539904539904538,9.0,38.903187570012896,0.0
subject-04,1,82,0.812441110610962,keyboard,truck,128-0-10,128-0-10_truck_10_n03796401_4898.png,False,-0.3241651987977834,2.2412095069885254,0.1428571428571428,-3.338272186548509,2.5464701652526855,0.125,-2.832463731599351,30.655107021331787,10.0,1.031324231324231,0.0,34.93628009168416,0.0
subject-03,1,882,1.1362030506134,oven,truck,128-0-10,128-0-10_truck_10_n03796401_4898.png,False,0.21915284838645976,2.2412095069885254,0.1428571428571428,-3.338272186548509,2.5464701652526855,0.125,-2.832463731599351,30.655107021331787,10.0,1.031324231324231,0.0,34.93628009168416,0.0
subject-02,1,889,0.678650140762329,cat,truck,128-0-10,128-0-10_truck_10_n03796401_4898.png,False,-1.2737631503845814,2.2412095069885254,0.1428571428571428,-3.338272186548509,2.5464701652526855,0.125,-2.832463731599351,30.655107021331787,10.0,1.031324231324231,0.0,34.93628009168416,0.0
subject-01,1,943,0.992906808853149,bear,truck,128-0-10,128-0-10_truck_10_n03796401_4898.png,False,0.18897619600813784,2.2412095069885254,0.1428571428571428,-3.338272186548509,2.5464701652526855,0.125,-2.832463731599351,30.655107021331787,10.0,1.031324231324231,0.0,34.93628009168416,0.0
subject-04,1,83,0.814217090606689,bear,boat,64-0-10,64-0-10_boat_10_n02951358_15252.png,False,-0.3143971102605796,2.091160774230957,0.0714285714285714,-4.047085169024022,2.54394268989563,0.5,-2.0112846289450927,30.36121439933777,10.0,1.5619408369408367,2.0,33.746156250982104,2.0
subject-03,1,550,1.01365494728088,bear,boat,64-0-10,64-0-10_boat_10_n02951358_15252.png,False,-0.21922819176379912,2.091160774230957,0.0714285714285714,-4.047085169024022,2.54394268989563,0.5,-2.0112846289450927,30.36121439933777,10.0,1.5619408369408367,2.0,33.746156250982104,2.0
subject-02,1,132,0.677425146102905,cat,boat,64-0-10,64-0-10_boat_10_n02951358_15252.png,False,-1.27976999241054,2.091160774230957,0.0714285714285714,-4.047085169024022,2.54394268989563,0.5,-2.0112846289450927,30.36121439933777,10.0,1.5619408369408367,2.0,33.746156250982104,2.0
subject-01,1,415,0.969456195831299,keyboard,boat,64-0-10,64-0-10_boat_10_n02951358_15252.png,False,0.08032402291061572,2.091160774230957,0.0714285714285714,-4.047085169024022,2.54394268989563,0.5,-2.0112846289450927,30.36121439933777,10.0,1.5619408369408367,2.0,33.746156250982104,2.0
subject-04,1,84,0.867970943450928,bird,bird,64-0-10,64-0-10_bird_10_n01582220_1814.png,True,-0.018744909750621444,2.7117486000061035,0.125,-2.8818499063737097,2.586233615875244,0.0909090909090909,-3.248555108392933,31.371655464172363,9.0,0.2621295371295369,10.0,40.18721107330951,6.0
subject-03,1,1023,1.50010585784912,keyboard,bird,64-0-10,64-0-10_bird_10_n01582220_1814.png,False,1.5209118051671553,2.7117486000061035,0.125,-2.8818499063737097,2.586233615875244,0.0909090909090909,-3.248555108392933,31.371655464172363,9.0,0.2621295371295369,10.0,40.18721107330951,6.0
subject-02,1,192,0.962088108062744,bird,bird,64-0-10,64-0-10_bird_10_n01582220_1814.png,True,0.11609359767095913,2.7117486000061035,0.125,-2.8818499063737097,2.586233615875244,0.0909090909090909,-3.248555108392933,31.371655464172363,9.0,0.2621295371295369,10.0,40.18721107330951,6.0
subject-01,1,1059,0.936427116394043,bicycle,bird,64-0-10,64-0-10_bird_10_n01582220_1814.png,False,-0.07270742462232646,2.7117486000061035,0.125,-2.8818499063737097,2.586233615875244,0.0909090909090909,-3.248555108392933,31.371655464172363,9.0,0.2621295371295369,10.0,40.18721107330951,6.0
subject-04,1,85,1.07368493080139,bottle,bottle,8-0-10,8-0-10_bottle_10_n03983396_4496.png,True,1.1127050202121227,0.4976606369018554,1.0,-0.08677411362935214,2.5547051429748535,0.1428571428571428,-2.8579443965139375,28.711813926696777,10.0,3.5987484737484734,8.0,29.42137632523479,9.0
subject-03,1,1095,0.700886011123657,cat,bottle,8-0-10,8-0-10_bottle_10_n03983396_4496.png,False,-1.3380702450533226,0.4976606369018554,1.0,-0.08677411362935214,2.5547051429748535,0.1428571428571428,-2.8579443965139375,28.711813926696777,10.0,3.5987484737484734,8.0,29.42137632523479,9.0
subject-02,1,751,0.740758895874023,bottle,bottle,8-0-10,8-0-10_bottle_10_n03983396_4496.png,True,-0.9692087774207638,0.4976606369018554,1.0,-0.08677411362935214,2.5547051429748535,0.1428571428571428,-2.8579443965139375,28.711813926696777,10.0,3.5987484737484734,8.0,29.42137632523479,9.0
subject-01,1,1097,0.802914142608643,bottle,bottle,8-0-10,8-0-10_bottle_10_n03983396_4496.png,True,-0.6913042487215479,0.4976606369018554,1.0,-0.08677411362935214,2.5547051429748535,0.1428571428571428,-2.8579443965139375,28.711813926696777,10.0,3.5987484737484734,8.0,29.42137632523479,9.0
subject-04,1,86,0.791702032089233,boat,bird,32-0-10,32-0-10_bird_10_n01532829_3.png,False,-0.43823244936799355,2.053907871246338,0.1,-4.082959882434042,2.4989166259765625,0.125,-3.050425288526235,30.261446475982666,10.0,0.3737845487845486,4.0,41.01843005718018,1.0
subject-03,1,1247,1.19244313240051,elephant,bird,32-0-10,32-0-10_bird_10_n01532829_3.png,False,0.420335770696335,2.053907871246338,0.1,-4.082959882434042,2.4989166259765625,0.125,-3.050425288526235,30.261446475982666,10.0,0.3737845487845486,4.0,41.01843005718018,1.0
subject-02,1,842,0.642614841461182,cat,bird,32-0-10,32-0-10_bird_10_n01532829_3.png,False,-1.4504646148317086,2.053907871246338,0.1,-4.082959882434042,2.4989166259765625,0.125,-3.050425288526235,30.261446475982666,10.0,0.3737845487845486,4.0,41.01843005718018,1.0
subject-01,1,1073,0.993469953536987,truck,bird,32-0-10,32-0-10_bird_10_n01532829_3.png,False,0.1915853769967246,2.053907871246338,0.1,-4.082959882434042,2.4989166259765625,0.125,-3.050425288526235,30.261446475982666,10.0,0.3737845487845486,4.0,41.01843005718018,1.0
subject-04,1,87,0.993346929550171,bicycle,chair,2-0-10,2-0-10_chair_10_n02791124_11523.png,False,0.6708370312640467,1.23812997341156,1.0,-0.33093935635934485,2.5792236328125,0.0714285714285714,-3.5470496674099614,29.366981148719788,10.0,2.7387667887667884,9.0,31.886667412464,10.0
subject-03,1,799,1.0158851146698,oven,chair,2-0-10,2-0-10_chair_10_n02791124_11523.png,False,-0.21125040122214409,1.23812997341156,1.0,-0.33093935635934485,2.5792236328125,0.0714285714285714,-3.5470496674099614,29.366981148719788,10.0,2.7387667887667884,9.0,31.886667412464,10.0
subject-02,1,526,0.92677903175354,chair,chair,2-0-10,2-0-10_chair_10_n02791124_11523.png,True,-0.057046784485187275,1.23812997341156,1.0,-0.33093935635934485,2.5792236328125,0.0714285714285714,-3.5470496674099614,29.366981148719788,10.0,2.7387667887667884,9.0,31.886667412464,10.0
subject-01,1,735,1.05184888839722,chair,chair,2-0-10,2-0-10_chair_10_n02791124_11523.png,True,0.46206863173181234,1.23812997341156,1.0,-0.33093935635934485,2.5792236328125,0.0714285714285714,-3.5470496674099614,29.366981148719788,10.0,2.7387667887667884,9.0,31.886667412464,10.0
subject-04,1,88,0.65528392791748,bicycle,bicycle,2-0-10,2-0-10_bicycle_10_n02835271_6266.png,True,-1.1885472743284533,0.0259456634521484,1.0,-0.0027153369022005405,2.501875400543213,0.3333333333333333,-2.026376531841627,24.876267090439796,9.0,8.25,1.0,18.67227353463359,8.0
subject-03,1,1280,0.566637992858887,bicycle,bicycle,2-0-10,2-0-10_bicycle_10_n02835271_6266.png,True,-1.8183044084930728,0.0259456634521484,1.0,-0.0027153369022005405,2.501875400543213,0.3333333333333333,-2.026376531841627,24.876267090439796,9.0,8.25,1.0,18.67227353463359,8.0
subject-02,1,1126,0.766607046127319,bicycle,bicycle,2-0-10,2-0-10_bicycle_10_n02835271_6266.png,True,-0.8424606695491745,0.0259456634521484,1.0,-0.0027153369022005405,2.501875400543213,0.3333333333333333,-2.026376531841627,24.876267090439796,9.0,8.25,1.0,18.67227353463359,8.0
subject-01,1,1050,0.767758131027222,bicycle,bicycle,2-0-10,2-0-10_bicycle_10_n02835271_6266.png,True,-0.854190270174548,0.0259456634521484,1.0,-0.0027153369022005405,2.501875400543213,0.3333333333333333,-2.026376531841627,24.876267090439796,9.0,8.25,1.0,18.67227353463359,8.0
subject-04,1,89,1.09108090400696,keyboard,oven,4-0-10,4-0-10_oven_10_n04111531_4332.png,False,1.208384817772722,1.614715814590454,1.0,-0.8028539881203297,2.464024543762207,0.0625,-4.525863731388628,29.45338487625122,10.0,3.114880952380952,8.0,33.06072703821321,6.0
subject-03,1,1051,0.726798057556152,oven,oven,4-0-10,4-0-10_oven_10_n04111531_4332.png,True,-1.2453772570869834,1.614715814590454,1.0,-0.8028539881203297,2.464024543762207,0.0625,-4.525863731388628,29.45338487625122,10.0,3.114880952380952,8.0,33.06072703821321,6.0
