subject_id,session,trial,rt,object_response,category,condition,item_id,response_correct,rt_zscore,output_entropy,output_rank_correct,output_logprob_correct,midpoint_entropy,midpoint_rank_correct,midpoint_logprob_correct,auc_entropy,layer_biggest_change_entropy,auc_rank_correct,layer_biggest_change_rank_correct,auc_logprob_correct,layer_biggest_change_logprob_correct
subject-02,1,1,0.6699538230896,boat,bicycle,0,0_bicycle_00_bicycle-0033-ILSVRC2012-val-00031498.png,False,-1.1057029652015276,2.1880836486816406,0.5,-2.046763543422578,2.465834856033325,0.2,-2.629744759925558,30.673078775405884,10.0,1.8898559773559769,10.0,32.09775725401628,10.0
subject-01,1,2,1.00124216079712,bicycle,bicycle,0,0_bicycle_00_bicycle-0033-ILSVRC2012-val-00031498.png,True,1.0905001838196076,2.1880836486816406,0.5,-2.046763543422578,2.465834856033325,0.2,-2.629744759925558,30.673078775405884,10.0,1.8898559773559769,10.0,32.09775725401628,10.0
subject-05,1,335,0.765327930450439,keyboard,bicycle,0,0_bicycle_00_bicycle-0033-ILSVRC2012-val-00031498.png,False,-0.6785480999415444,2.1880836486816406,0.5,-2.046763543422578,2.465834856033325,0.2,-2.629744759925558,30.673078775405884,10.0,1.8898559773559769,10.0,32.09775725401628,10.0
subject-04,1,178,1.1764931678772,keyboard,bicycle,0,0_bicycle_00_bicycle-0033-ILSVRC2012-val-00031498.png,False,1.0077777808327628,2.1880836486816406,0.5,-2.046763543422578,2.465834856033325,0.2,-2.629744759925558,30.673078775405884,10.0,1.8898559773559769,10.0,32.09775725401628,10.0
subject-03,1,709,1.0037829875946,bottle,bicycle,0,0_bicycle_00_bicycle-0033-ILSVRC2012-val-00031498.png,False,0.484483913664169,2.1880836486816406,0.5,-2.046763543422578,2.465834856033325,0.2,-2.629744759925558,30.673078775405884,10.0,1.8898559773559769,10.0,32.09775725401628,10.0
subject-02,1,2,0.882771015167236,bottle,bottle,0,0_bottle_00_bottle-0003-ILSVRC2012-val-00003622.png,True,-0.00923445536228599,0.3905221819877624,1.0,-0.06661217744926289,2.3207597732543945,0.1111111111111111,-3.4421421543864237,26.37968522310257,9.0,2.718192918192918,9.0,31.643472218980424,9.0
subject-01,1,118,0.795492887496948,cat,bottle,0,0_bottle_00_bottle-0003-ILSVRC2012-val-00003622.png,False,0.11493086000650227,0.3905221819877624,1.0,-0.06661217744926289,2.3207597732543945,0.1111111111111111,-3.4421421543864237,26.37968522310257,9.0,2.718192918192918,9.0,31.643472218980424,9.0
subject-05,1,197,1.12762689590454,dog,bottle,0,0_bottle_00_bottle-0003-ILSVRC2012-val-00003622.png,False,1.1342356300727867,0.3905221819877624,1.0,-0.06661217744926289,2.3207597732543945,0.1111111111111111,-3.4421421543864237,26.37968522310257,9.0,2.718192918192918,9.0,31.643472218980424,9.0
subject-04,1,692,1.13279294967651,bottle,bottle,0,0_bottle_00_bottle-0003-ILSVRC2012-val-00003622.png,True,0.8376865554328736,0.3905221819877624,1.0,-0.06661217744926289,2.3207597732543945,0.1111111111111111,-3.4421421543864237,26.37968522310257,9.0,2.718192918192918,9.0,31.643472218980424,9.0
subject-03,1,270,0.768150091171265,oven,bottle,0,0_bottle_00_bottle-0003-ILSVRC2012-val-00003622.png,False,-0.7209738911885364,0.3905221819877624,1.0,-0.06661217744926289,2.3207597732543945,0.1111111111111111,-3.4421421543864237,26.37968522310257,9.0,2.718192918192918,9.0,31.643472218980424,9.0
subject-02,1,3,0.998857021331787,boat,knife,0,0_knife_00_knife-0033-ILSVRC2012-val-00028494.png,False,0.588859377893444,2.526869297027588,0.0666666666666666,-3.93592666045377,2.3375158309936523,0.0625,-5.058790067669314,30.435068607330322,10.0,0.6839285714285712,5.0,43.76389631167689,6.0
subject-01,1,12,0.799399852752686,clock,knife,0,0_knife_00_knife-0033-ILSVRC2012-val-00028494.png,False,0.13345590941039925,2.526869297027588,0.0666666666666666,-3.93592666045377,2.3375158309936523,0.0625,-5.058790067669314,30.435068607330322,10.0,0.6839285714285712,5.0,43.76389631167689,6.0
subject-05,1,418,1.21173000335693,bicycle,knife,0,0_knife_00_knife-0033-ILSVRC2012-val-00028494.png,False,1.5550503697512388,2.526869297027588,0.0666666666666666,-3.93592666045377,2.3375158309936523,0.0625,-5.058790067669314,30.435068607330322,10.0,0.6839285714285712,5.0,43.76389631167689,6.0
subject-04,1,157,0.694872140884399,boat,knife,0,0_knife_00_knife-0033-ILSVRC2012-val-00028494.png,False,-0.8668012037240037,2.526869297027588,0.0666666666666666,-3.93592666045377,2.3375158309936523,0.0625,-5.058790067669314,30.435068607330322,10.0,0.6839285714285712,5.0,43.76389631167689,6.0
subject-03,1,24,1.03246998786926,bicycle,knife,0,0_knife_00_knife-0033-ILSVRC2012-val-00028494.png,False,0.6312417259382789,2.526869297027588,0.0666666666666666,-3.93592666045377,2.3375158309936523,0.0625,-5.058790067669314,30.435068607330322,10.0,0.6839285714285712,5.0,43.76389631167689,6.0
subject-02,1,4,1.34678316116333,boat,chair,0,0_chair_00_chair-0116-ILSVRC2012-val-00017447.png,False,2.3814309852476265,0.1125781238079071,1.0,-0.01512742019324208,2.4681193828582764,0.1111111111111111,-3.6407486665371,26.69393965601921,9.0,3.81511544011544,9.0,28.04301854557048,9.0
subject-01,1,564,0.897686004638672,boat,chair,0,0_chair_00_chair-0116-ILSVRC2012-val-00017447.png,False,0.5994840668742408,0.1125781238079071,1.0,-0.01512742019324208,2.4681193828582764,0.1111111111111111,-3.6407486665371,26.69393965601921,9.0,3.81511544011544,9.0,28.04301854557048,9.0
subject-05,1,177,1.42328500747681,airplane,chair,0,0_chair_00_chair-0116-ILSVRC2012-val-00017447.png,False,2.6135780113937006,0.1125781238079071,1.0,-0.01512742019324208,2.4681193828582764,0.1111111111111111,-3.6407486665371,26.69393965601921,9.0,3.81511544011544,9.0,28.04301854557048,9.0
subject-04,1,117,0.696410894393921,chair,chair,0,0_chair_00_chair-0116-ILSVRC2012-val-00017447.png,True,-0.8608120237885394,0.1125781238079071,1.0,-0.01512742019324208,2.4681193828582764,0.1111111111111111,-3.6407486665371,26.69393965601921,9.0,3.81511544011544,9.0,28.04301854557048,9.0
subject-03,1,71,0.873686790466309,boat,chair,0,0_chair_00_chair-0116-ILSVRC2012-val-00017447.png,False,-0.1810660948041047,0.1125781238079071,1.0,-0.01512742019324208,2.4681193828582764,0.1111111111111111,-3.6407486665371,26.69393965601921,9.0,3.81511544011544,9.0,28.04301854557048,9.0
subject-02,1,5,0.752362966537476,bear,elephant,0,0_elephant_00_elephant-0029-ILSVRC2012-val-00027259.png,False,-0.6811177621392778,0.0659282207489013,1.0,-0.007923920139919487,2.304816961288452,0.5,-1.679703163420109,25.010212242603302,9.0,7.583333333333334,1.0,19.75510740775993,9.0
subject-01,1,557,0.66700005531311,elephant,elephant,0,0_elephant_00_elephant-0029-ILSVRC2012-val-00027259.png,True,-0.49432361461580426,0.0659282207489013,1.0,-0.007923920139919487,2.304816961288452,0.5,-1.679703163420109,25.010212242603302,9.0,7.583333333333334,1.0,19.75510740775993,9.0
subject-05,1,247,0.788064002990723,bear,elephant,0,0_elephant_00_elephant-0029-ILSVRC2012-val-00027259.png,False,-0.564786852145009,0.0659282207489013,1.0,-0.007923920139919487,2.304816961288452,0.5,-1.679703163420109,25.010212242603302,9.0,7.583333333333334,1.0,19.75510740775993,9.0
subject-04,1,291,0.813446044921875,elephant,elephant,0,0_elephant_00_elephant-0029-ILSVRC2012-val-00027259.png,True,-0.40528450040775543,0.0659282207489013,1.0,-0.007923920139919487,2.304816961288452,0.5,-1.679703163420109,25.010212242603302,9.0,7.583333333333334,1.0,19.75510740775993,9.0
subject-03,1,532,1.00448608398438,bear,elephant,0,0_elephant_00_elephant-0029-ILSVRC2012-val-00027259.png,False,0.48808083516150286,0.0659282207489013,1.0,-0.007923920139919487,2.304816961288452,0.5,-1.679703163420109,25.010212242603302,9.0,7.583333333333334,1.0,19.75510740775993,9.0
subject-02,1,6,0.74207592010498,boat,chair,0,0_chair_00_chair-0124-ILSVRC2012-val-00022208.png,False,-0.7341182850874954,2.0143861770629883,0.0833333333333333,-4.052977643644395,2.2738285064697266,0.0833333333333333,-4.37989735170257,29.344815492630005,10.0,0.8130952380952376,0.0,41.11541756238118,6.0
subject-01,1,719,0.657165050506592,boat,chair,0,0_chair_00_chair-0124-ILSVRC2012-val-00022208.png,False,-0.5409567270195378,2.0143861770629883,0.0833333333333333,-4.052977643644395,2.2738285064697266,0.0833333333333333,-4.37989735170257,29.344815492630005,10.0,0.8130952380952376,0.0,41.11541756238118,6.0
subject-05,1,503,1.18283700942993,bicycle,chair,0,0_chair_00_chair-0124-ILSVRC2012-val-00022208.png,False,1.4104826113624724,2.0143861770629883,0.0833333333333333,-4.052977643644395,2.2738285064697266,0.0833333333333333,-4.37989735170257,29.344815492630005,10.0,0.8130952380952376,0.0,41.11541756238118,6.0
subject-04,1,711,0.549321889877319,car,chair,0,0_chair_00_chair-0124-ILSVRC2012-val-00022208.png,False,-1.4333160077774256,2.0143861770629883,0.0833333333333333,-4.052977643644395,2.2738285064697266,0.0833333333333333,-4.37989735170257,29.344815492630005,10.0,0.8130952380952376,0.0,41.11541756238118,6.0
subject-03,1,766,0.714838027954102,boat,chair,0,0_chair_00_chair-0124-ILSVRC2012-val-00022208.png,False,-0.9937093354894521,2.0143861770629883,0.0833333333333333,-4.052977643644395,2.2738285064697266,0.0833333333333333,-4.37989735170257,29.344815492630005,10.0,0.8130952380952376,0.0,41.11541756238118,6.0
subject-02,1,7,0.905914068222046,chair,chair,0,0_chair_00_chair-0127-ILSVRC2012-val-00024620.png,True,0.11000228791210599,0.1479004323482513,1.0,-0.025512816715180197,2.431640625,0.0909090909090909,-3.820148958163592,26.913081020116806,9.0,4.596861471861471,7.0,28.2007706008857,9.0
subject-01,1,757,0.685973882675171,chair,chair,0,0_chair_00_chair-0127-ILSVRC2012-val-00024620.png,True,-0.4043583688929317,0.1479004323482513,1.0,-0.025512816715180197,2.431640625,0.0909090909090909,-3.820148958163592,26.913081020116806,9.0,4.596861471861471,7.0,28.2007706008857,9.0
subject-05,1,115,1.13514995574951,chair,chair,0,0_chair_00_chair-0127-ILSVRC2012-val-00024620.png,True,1.171877693085008,0.1479004323482513,1.0,-0.025512816715180197,2.431640625,0.0909090909090909,-3.820148958163592,26.913081020116806,9.0,4.596861471861471,7.0,28.2007706008857,9.0
subject-04,1,489,1.15048599243164,chair,chair,0,0_chair_00_chair-0127-ILSVRC2012-val-00024620.png,True,0.906551916915787,0.1479004323482513,1.0,-0.025512816715180197,2.431640625,0.0909090909090909,-3.820148958163592,26.913081020116806,9.0,4.596861471861471,7.0,28.2007706008857,9.0
subject-03,1,529,0.669056177139282,chair,chair,0,0_chair_00_chair-0127-ILSVRC2012-val-00024620.png,True,-1.227921494415584,0.1479004323482513,1.0,-0.025512816715180197,2.431640625,0.0909090909090909,-3.820148958163592,26.913081020116806,9.0,4.596861471861471,7.0,28.2007706008857,9.0
subject-02,1,8,0.967644214630127,clock,bottle,0,0_bottle_00_bottle-0214-ILSVRC2012-val-00012572.png,False,0.4280459618439334,1.4973173141479492,1.0,-0.4373891132801869,2.3929858207702637,0.1111111111111111,-3.2913485797302315,29.107988834381104,10.0,2.6098346098346097,9.0,33.73687064134007,10.0
subject-01,1,397,0.668776035308838,elephant,bottle,0,0_bottle_00_bottle-0214-ILSVRC2012-val-00012572.png,False,-0.4859027265331998,1.4973173141479492,1.0,-0.4373891132801869,2.3929858207702637,0.1111111111111111,-3.2913485797302315,29.107988834381104,10.0,2.6098346098346097,9.0,33.73687064134007,10.0
subject-05,1,256,0.656546831130981,oven,bottle,0,0_bottle_00_bottle-0214-ILSVRC2012-val-00012572.png,False,-1.22284059255803,1.4973173141479492,1.0,-0.4373891132801869,2.3929858207702637,0.1111111111111111,-3.2913485797302315,29.107988834381104,10.0,2.6098346098346097,9.0,33.73687064134007,10.0
subject-04,1,585,0.648351907730103,boat,bottle,0,0_bottle_00_bottle-0214-ILSVRC2012-val-00012572.png,False,-1.0478685710942155,1.4973173141479492,1.0,-0.4373891132801869,2.3929858207702637,0.1111111111111111,-3.2913485797302315,29.107988834381104,10.0,2.6098346098346097,9.0,33.73687064134007,10.0
subject-03,1,189,0.794909954071045,cat,bottle,0,0_bottle_00_bottle-0214-ILSVRC2012-val-00012572.png,False,-0.5840749858193383,1.4973173141479492,1.0,-0.4373891132801869,2.3929858207702637,0.1111111111111111,-3.2913485797302315,29.107988834381104,10.0,2.6098346098346097,9.0,33.73687064134007,10.0
subject-02,1,9,1.09962797164917,bird,keyboard,0,0_keyboard_00_keyboard-0005-ILSVRC2012-val-00001687.png,False,1.1080475724697423,0.999072790145874,0.25,-3.5747663398929137,2.354734420776367,0.0666666666666666,-4.698696058172689,28.336649656295776,10.0,0.4766233766233764,10.0,44.09319757338778,6.0
subject-01,1,144,1.14658403396606,knife,keyboard,0,0_keyboard_00_keyboard-0005-ILSVRC2012-val-00001687.png,False,1.7796451351229878,0.999072790145874,0.25,-3.5747663398929137,2.354734420776367,0.0666666666666666,-4.698696058172689,28.336649656295776,10.0,0.4766233766233764,10.0,44.09319757338778,6.0
subject-05,1,551,1.04603505134583,keyboard,keyboard,0,0_keyboard_00_keyboard-0005-ILSVRC2012-val-00001687.png,True,0.7259861388480436,0.999072790145874,0.25,-3.5747663398929137,2.354734420776367,0.0666666666666666,-4.698696058172689,28.336649656295776,10.0,0.4766233766233764,10.0,44.09319757338778,6.0
subject-04,1,542,1.15449190139771,chair,keyboard,0,0_keyboard_00_keyboard-0005-ILSVRC2012-val-00001687.png,False,0.9221438291060216,0.999072790145874,0.25,-3.5747663398929137,2.354734420776367,0.0666666666666666,-4.698696058172689,28.336649656295776,10.0,0.4766233766233764,10.0,44.09319757338778,6.0
subject-03,1,525,1.21389102935791,keyboard,keyboard,0,0_keyboard_00_keyboard-0005-ILSVRC2012-val-00001687.png,True,1.5593609051639763,0.999072790145874,0.25,-3.5747663398929137,2.354734420776367,0.0666666666666666,-4.698696058172689,28.336649656295776,10.0,0.4766233766233764,10.0,44.09319757338778,6.0
subject-02,1,10,1.12935304641724,car,bird,0,0_bird_00_bird-0486-ILSVRC2012-val-00037420.png,False,1.2611959535644244,1.6650853157043457,0.3333333333333333,-2.027325457653116,2.360034704208374,0.0833333333333333,-3.974667060032305,28.448293685913086,9.0,0.7634920634920631,10.0,41.226646747240984,10.0
subject-01,1,526,0.763169050216675,cat,bird,0,0_bird_00_bird-0486-ILSVRC2012-val-00037420.png,False,-0.03833405108047365,1.6650853157043457,0.3333333333333333,-2.027325457653116,2.360034704208374,0.0833333333333333,-3.974667060032305,28.448293685913086,9.0,0.7634920634920631,10.0,41.226646747240984,10.0
subject-05,1,716,0.932969808578491,bird,bird,0,0_bird_00_bird-0486-ILSVRC2012-val-00037420.png,True,0.1602576878659795,1.6650853157043457,0.3333333333333333,-2.027325457653116,2.360034704208374,0.0833333333333333,-3.974667060032305,28.448293685913086,9.0,0.7634920634920631,10.0,41.226646747240984,10.0
subject-04,1,388,0.861546039581299,bird,bird,0,0_bird_00_bird-0486-ILSVRC2012-val-00037420.png,True,-0.2180683406216155,1.6650853157043457,0.3333333333333333,-2.027325457653116,2.360034704208374,0.0833333333333333,-3.974667060032305,28.448293685913086,9.0,0.7634920634920631,10.0,41.226646747240984,10.0
subject-03,1,388,1.26093792915344,oven,bird,0,0_bird_00_bird-0486-ILSVRC2012-val-00037420.png,False,1.800044839425663,1.6650853157043457,0.3333333333333333,-2.027325457653116,2.360034704208374,0.0833333333333333,-3.974667060032305,28.448293685913086,9.0,0.7634920634920631,10.0,41.226646747240984,10.0
subject-02,1,11,1.179123878479,knife,boat,0,0_boat_00_boat-0225-ILSVRC2012-val-00022075.png,False,1.5176233104497128,2.534769058227539,0.2,-2.4438536638819035,2.3847498893737793,0.25,-2.2376419232985607,30.58032464981079,4.0,1.3555555555555552,2.0,32.30273661417336,2.0
subject-01,1,691,0.944307088851929,dog,boat,0,0_boat_00_boat-0225-ILSVRC2012-val-00022075.png,False,0.8205400097305066,2.534769058227539,0.2,-2.4438536638819035,2.3847498893737793,0.25,-2.2376419232985607,30.58032464981079,4.0,1.3555555555555552,2.0,32.30273661417336,2.0
subject-05,1,544,0.875226020812988,bicycle,boat,0,0_boat_00_boat-0225-ILSVRC2012-val-00022075.png,False,-0.12866667833943787,2.534769058227539,0.2,-2.4438536638819035,2.3847498893737793,0.25,-2.2376419232985607,30.58032464981079,4.0,1.3555555555555552,2.0,32.30273661417336,2.0
subject-04,1,338,1.17676997184753,boat,boat,0,0_boat_00_boat-0225-ILSVRC2012-val-00022075.png,True,1.0088551650758522,2.534769058227539,0.2,-2.4438536638819035,2.3847498893737793,0.25,-2.2376419232985607,30.58032464981079,4.0,1.3555555555555552,2.0,32.30273661417336,2.0
subject-03,1,633,0.751469850540161,oven,boat,0,0_boat_00_boat-0225-ILSVRC2012-val-00022075.png,False,-0.8063071640922523,2.534769058227539,0.2,-2.4438536638819035,2.3847498893737793,0.25,-2.2376419232985607,30.58032464981079,4.0,1.3555555555555552,2.0,32.30273661417336,2.0
subject-02,1,12,1.09898710250854,oven,bicycle,0,0_bicycle_00_bicycle-0064-ILSVRC2012-val-00017103.png,False,1.1047457112583978,0.3663005828857422,1.0,-0.06268934081258325,2.3880646228790283,0.5,-1.8364877150046657,28.046665906906128,10.0,6.5,8.0,22.104255584756505,10.0
subject-01,1,394,0.64729905128479,bicycle,bicycle,0,0_bicycle_00_bicycle-0064-ILSVRC2012-val-00017103.png,True,-0.5877368008208771,0.3663005828857422,1.0,-0.06268934081258325,2.3880646228790283,0.5,-1.8364877150046657,28.046665906906128,10.0,6.5,8.0,22.104255584756505,10.0
subject-05,1,686,0.722684144973755,bicycle,bicycle,0,0_bicycle_00_bicycle-0064-ILSVRC2012-val-00017103.png,True,-0.8919187354371838,0.3663005828857422,1.0,-0.06268934081258325,2.3880646228790283,0.5,-1.8364877150046657,28.046665906906128,10.0,6.5,8.0,22.104255584756505,10.0
subject-04,1,110,0.767770051956177,bicycle,bicycle,0,0_bicycle_00_bicycle-0064-ILSVRC2012-val-00017103.png,True,-0.5830658922354425,0.3663005828857422,1.0,-0.06268934081258325,2.3880646228790283,0.5,-1.8364877150046657,28.046665906906128,10.0,6.5,8.0,22.104255584756505,10.0
subject-03,1,740,0.907788991928101,car,bicycle,0,0_bicycle_00_bicycle-0064-ILSVRC2012-val-00017103.png,False,-0.006605034660273985,0.3663005828857422,1.0,-0.06268934081258325,2.3880646228790283,0.5,-1.8364877150046657,28.046665906906128,10.0,6.5,8.0,22.104255584756505,10.0
subject-02,1,13,0.753203868865967,cat,cat,0,0_cat_00_cat-0247-ILSVRC2012-val-00044374.png,True,-0.6767852976704086,0.4368128776550293,1.0,-0.07396319836682033,2.395516872406006,0.1111111111111111,-3.5871344383402444,27.613935470581055,10.0,3.4429292929292927,9.0,30.892150840698616,9.0
subject-01,1,504,0.764909982681274,cat,cat,0,0_cat_00_cat-0247-ILSVRC2012-val-00044374.png,True,-0.030079342424393772,0.4368128776550293,1.0,-0.07396319836682033,2.395516872406006,0.1111111111111111,-3.5871344383402444,27.613935470581055,10.0,3.4429292929292927,9.0,30.892150840698616,9.0
subject-05,1,512,0.613177061080933,cat,cat,0,0_cat_00_cat-0247-ILSVRC2012-val-00044374.png,True,-1.4398437336590502,0.4368128776550293,1.0,-0.07396319836682033,2.395516872406006,0.1111111111111111,-3.5871344383402444,27.613935470581055,10.0,3.4429292929292927,9.0,30.892150840698616,9.0
subject-04,1,48,0.591565847396851,cat,cat,0,0_cat_00_cat-0247-ILSVRC2012-val-00044374.png,True,-1.268892881393022,0.4368128776550293,1.0,-0.07396319836682033,2.395516872406006,0.1111111111111111,-3.5871344383402444,27.613935470581055,10.0,3.4429292929292927,9.0,30.892150840698616,9.0
subject-03,1,604,0.620965003967285,cat,cat,0,0_cat_00_cat-0247-ILSVRC2012-val-00044374.png,True,-1.473947753586779,0.4368128776550293,1.0,-0.07396319836682033,2.395516872406006,0.1111111111111111,-3.5871344383402444,27.613935470581055,10.0,3.4429292929292927,9.0,30.892150840698616,9.0
subject-02,1,14,1.02064895629883,elephant,chair,0,0_chair_00_chair-0170-ILSVRC2012-val-00022051.png,False,0.7011349427881757,1.1874523162841797,0.1,-5.173047483727056,2.4925074577331543,0.0909090909090909,-3.489155415424597,29.164379835128784,10.0,0.9984848484848484,0.0,37.32827216238226,6.0
subject-01,1,348,0.852051973342896,dog,chair,0,0_chair_00_chair-0170-ILSVRC2012-val-00022051.png,False,0.38310827929546104,1.1874523162841797,0.1,-5.173047483727056,2.4925074577331543,0.0909090909090909,-3.489155415424597,29.164379835128784,10.0,0.9984848484848484,0.0,37.32827216238226,6.0
subject-05,1,429,0.717842102050781,cat,chair,0,0_chair_00_chair-0170-ILSVRC2012-val-00022051.png,False,-0.9161461759428352,1.1874523162841797,0.1,-5.173047483727056,2.4925074577331543,0.0909090909090909,-3.489155415424597,29.164379835128784,10.0,0.9984848484848484,0.0,37.32827216238226,6.0
subject-04,1,328,1.09463882446289,dog,chair,0,0_chair_00_chair-0170-ILSVRC2012-val-00022051.png,False,0.6891819900359221,1.1874523162841797,0.1,-5.173047483727056,2.4925074577331543,0.0909090909090909,-3.489155415424597,29.164379835128784,10.0,0.9984848484848484,0.0,37.32827216238226,6.0
subject-03,1,329,1.46005487442017,cat,chair,0,0_chair_00_chair-0170-ILSVRC2012-val-00022051.png,False,2.818693251398578,1.1874523162841797,0.1,-5.173047483727056,2.4925074577331543,0.0909090909090909,-3.489155415424597,29.164379835128784,10.0,0.9984848484848484,0.0,37.32827216238226,6.0
subject-02,1,15,1.01691699028015,dog,dog,0,0_dog_00_dog-1734-ILSVRC2012-val-00031377.png,True,0.6819072517387615,1.7730287313461304,1.0,-0.5926634802861558,2.3879995346069336,0.125,-3.485812090840925,29.31559145450592,10.0,2.3182289932289932,9.0,35.312494672173095,10.0
subject-01,1,97,0.921273946762085,dog,dog,0,0_dog_00_dog-1734-ILSVRC2012-val-00031377.png,True,0.7113273428109117,1.7730287313461304,1.0,-0.5926634802861558,2.3879995346069336,0.125,-3.485812090840925,29.31559145450592,10.0,2.3182289932289932,9.0,35.312494672173095,10.0
subject-05,1,383,0.78240180015564,dog,dog,0,0_dog_00_dog-1734-ILSVRC2012-val-00031377.png,True,-0.5931180099848176,1.7730287313461304,1.0,-0.5926634802861558,2.3879995346069336,0.125,-3.485812090840925,29.31559145450592,10.0,2.3182289932289932,9.0,35.312494672173095,10.0
subject-04,1,102,0.757241010665894,dog,dog,0,0_dog_00_dog-1734-ILSVRC2012-val-00031377.png,True,-0.6240473245735078,1.7730287313461304,1.0,-0.5926634802861558,2.3879995346069336,0.125,-3.485812090840925,29.31559145450592,10.0,2.3182289932289932,9.0,35.312494672173095,10.0
subject-03,1,348,1.04653406143188,cat,dog,0,0_dog_00_dog-1734-ILSVRC2012-val-00031377.png,False,0.7031911332639192,1.7730287313461304,1.0,-0.5926634802861558,2.3879995346069336,0.125,-3.485812090840925,29.31559145450592,10.0,2.3182289932289932,9.0,35.312494672173095,10.0
subject-02,1,16,0.694452047348022,boat,boat,0,0_boat_00_boat-0243-ILSVRC2012-val-00039131.png,True,-0.9794841612407067,1.250393986701965,0.25,-3.425428605227384,2.5163750648498535,0.5,-2.261931650771498,28.99929368495941,10.0,2.378968253968254,4.0,32.19684899010776,2.0
subject-01,1,104,1.06988406181335,bird,boat,0,0_boat_00_boat-0243-ILSVRC2012-val-00039131.png,False,1.4159688082552968,1.250393986701965,0.25,-3.425428605227384,2.5163750648498535,0.5,-2.261931650771498,28.99929368495941,10.0,2.378968253968254,4.0,32.19684899010776,2.0
subject-05,1,542,0.967344999313354,boat,boat,0,0_boat_00_boat-0243-ILSVRC2012-val-00039131.png,True,0.3322559335750021,1.250393986701965,0.25,-3.425428605227384,2.5163750648498535,0.5,-2.261931650771498,28.99929368495941,10.0,2.378968253968254,4.0,32.19684899010776,2.0
subject-04,1,162,0.763534784317017,boat,boat,0,0_boat_00_boat-0243-ILSVRC2012-val-00039131.png,True,-0.5995505207407948,1.250393986701965,0.25,-3.425428605227384,2.5163750648498535,0.5,-2.261931650771498,28.99929368495941,10.0,2.378968253968254,4.0,32.19684899010776,2.0
subject-03,1,599,0.855870008468628,cat,boat,0,0_boat_00_boat-0243-ILSVRC2012-val-00039131.png,False,-0.2722137199552116,1.250393986701965,0.25,-3.425428605227384,2.5163750648498535,0.5,-2.261931650771498,28.99929368495941,10.0,2.378968253968254,4.0,32.19684899010776,2.0
subject-02,1,17,0.912500858306885,bear,chair,0,0_chair_00_chair-0047-ILSVRC2012-val-00045407.png,False,0.1439384931521066,1.1057913303375244,1.0,-0.6257442029610047,2.4614171981811523,0.0714285714285714,-3.9862028719646347,28.737436056137085,10.0,2.37245670995671,10.0,34.27427095175127,6.0
subject-01,1,173,0.592850923538208,elephant,chair,0,0_chair_00_chair-0047-ILSVRC2012-val-00045407.png,False,-0.8459050184608381,1.1057913303375244,1.0,-0.6257442029610047,2.4614171981811523,0.0714285714285714,-3.9862028719646347,28.737436056137085,10.0,2.37245670995671,10.0,34.27427095175127,6.0
subject-05,1,12,1.09021401405334,bear,chair,0,0_chair_00_chair-0047-ILSVRC2012-val-00045407.png,False,0.9470381219932454,1.1057913303375244,1.0,-0.6257442029610047,2.4614171981811523,0.0714285714285714,-3.9862028719646347,28.737436056137085,10.0,2.37245670995671,10.0,34.27427095175127,6.0
subject-04,1,569,0.775777101516724,chair,chair,0,0_chair_00_chair-0047-ILSVRC2012-val-00045407.png,True,-0.5519006274457675,1.1057913303375244,1.0,-0.6257442029610047,2.4614171981811523,0.0714285714285714,-3.9862028719646347,28.737436056137085,10.0,2.37245670995671,10.0,34.27427095175127,6.0
subject-03,1,376,1.01934003829956,car,chair,0,0_chair_00_chair-0047-ILSVRC2012-val-00045407.png,False,0.5640711380179847,1.1057913303375244,1.0,-0.6257442029610047,2.4614171981811523,0.0714285714285714,-3.9862028719646347,28.737436056137085,10.0,2.37245670995671,10.0,34.27427095175127,6.0
subject-02,1,18,0.945769071578979,oven,knife,0,0_knife_00_knife-0034-ILSVRC2012-val-00029248.png,False,0.3153416954749716,1.9046059846878052,0.3333333333333333,-2.3829368836107943,2.367342233657837,0.0625,-4.6707182834760355,29.798704504966736,10.0,1.3532467532467531,9.0,37.430915050288455,5.0
subject-01,1,585,0.80772590637207,keyboard,knife,0,0_knife_00_knife-0034-ILSVRC2012-val-00029248.png,False,0.1729342626954862,1.9046059846878052,0.3333333333333333,-2.3829368836107943,2.367342233657837,0.0625,-4.6707182834760355,29.798704504966736,10.0,1.3532467532467531,9.0,37.430915050288455,5.0
subject-05,1,692,0.971341848373413,clock,knife,0,0_knife_00_knife-0034-ILSVRC2012-val-00029248.png,False,0.35225439793251573,1.9046059846878052,0.3333333333333333,-2.3829368836107943,2.367342233657837,0.0625,-4.6707182834760355,29.798704504966736,10.0,1.3532467532467531,9.0,37.430915050288455,5.0
subject-04,1,250,0.812711954116821,cat,knife,0,0_knife_00_knife-0034-ILSVRC2012-val-00029248.png,False,-0.4081417494039278,1.9046059846878052,0.3333333333333333,-2.3829368836107943,2.367342233657837,0.0625,-4.6707182834760355,29.798704504966736,10.0,1.3532467532467531,9.0,37.430915050288455,5.0
subject-03,1,754,0.753207921981812,oven,knife,0,0_knife_00_knife-0034-ILSVRC2012-val-00029248.png,False,-0.7974154863319214,1.9046059846878052,0.3333333333333333,-2.3829368836107943,2.367342233657837,0.0625,-4.6707182834760355,29.798704504966736,10.0,1.3532467532467531,9.0,37.430915050288455,5.0
subject-02,1,19,0.841678142547607,car,car,0,0_car_00_car-0005-ILSVRC2012-val-00006220.png,True,-0.22095156508630465,0.2894452810287475,1.0,-0.06596604560844098,2.373434543609619,0.1,-3.5460225225556057,25.71431478857994,9.0,3.537337662337662,8.0,33.86867727633694,8.0
subject-01,1,544,0.521405935287476,car,car,0,0_car_00_car-0005-ILSVRC2012-val-00006220.png,True,-1.1846646056012295,0.2894452810287475,1.0,-0.06596604560844098,2.373434543609619,0.1,-3.5460225225556057,25.71431478857994,9.0,3.537337662337662,8.0,33.86867727633694,8.0
subject-05,1,646,0.92425799369812,car,car,0,0_car_00_car-0005-ILSVRC2012-val-00006220.png,True,0.11666762060139602,0.2894452810287475,1.0,-0.06596604560844098,2.373434543609619,0.1,-3.5460225225556057,25.71431478857994,9.0,3.537337662337662,8.0,33.86867727633694,8.0
subject-04,1,774,0.625403881072998,car,car,0,0_car_00_car-0005-ILSVRC2012-val-00006220.png,True,-1.1371875295646487,0.2894452810287475,1.0,-0.06596604560844098,2.373434543609619,0.1,-3.5460225225556057,25.71431478857994,9.0,3.537337662337662,8.0,33.86867727633694,8.0
subject-03,1,102,0.783812046051025,car,car,0,0_car_00_car-0005-ILSVRC2012-val-00006220.png,True,-0.6408499949260285,0.2894452810287475,1.0,-0.06596604560844098,2.373434543609619,0.1,-3.5460225225556057,25.71431478857994,9.0,3.537337662337662,8.0,33.86867727633694,8.0
subject-02,1,20,1.02745699882507,bear,chair,0,0_chair_00_chair-0098-ILSVRC2012-val-00044181.png,False,0.7362110763034858,2.515899896621704,0.0833333333333333,-3.539548288775207,2.3913018703460693,0.0666666666666666,-4.5115686694814015,30.166524410247803,4.0,1.2462301587301583,0.0,38.931655505525804,6.0
subject-01,1,543,0.813650131225586,oven,chair,0,0_chair_00_chair-0098-ILSVRC2012-val-00044181.png,False,0.20102423813870265,2.515899896621704,0.0833333333333333,-3.539548288775207,2.3913018703460693,0.0666666666666666,-4.5115686694814015,30.166524410247803,4.0,1.2462301587301583,0.0,38.931655505525804,6.0
subject-05,1,77,0.984448909759521,cat,chair,0,0_chair_00_chair-0098-ILSVRC2012-val-00044181.png,False,0.41783633410849946,2.515899896621704,0.0833333333333333,-3.539548288775207,2.3913018703460693,0.0666666666666666,-4.5115686694814015,30.166524410247803,4.0,1.2462301587301583,0.0,38.931655505525804,6.0
subject-04,1,296,1.17405200004578,airplane,chair,0,0_chair_00_chair-0098-ILSVRC2012-val-00044181.png,False,0.9982761983476104,2.515899896621704,0.0833333333333333,-3.539548288775207,2.3913018703460693,0.0666666666666666,-4.5115686694814015,30.166524410247803,4.0,1.2462301587301583,0.0,38.931655505525804,6.0
subject-03,1,152,0.772530078887939,bear,chair,0,0_chair_00_chair-0098-ILSVRC2012-val-00044181.png,False,-0.6985666192907369,2.515899896621704,0.0833333333333333,-3.539548288775207,2.3913018703460693,0.0666666666666666,-4.5115686694814015,30.166524410247803,4.0,1.2462301587301583,0.0,38.931655505525804,6.0
subject-02,1,21,0.799660921096802,clock,clock,0,0_clock_00_clock-0048-ILSVRC2012-val-00044752.png,True,-0.4374310691244135,0.0486296862363815,1.0,-0.005506508954122877,2.426605224609375,0.0769230769230769,-3.8618447288203406,25.366131611168385,9.0,3.399679487179487,8.0,33.78780793421831,6.0
subject-01,1,302,0.537040948867798,clock,clock,0,0_clock_00_clock-0048-ILSVRC2012-val-00044752.png,True,-1.1105304938169784,0.0486296862363815,1.0,-0.005506508954122877,2.426605224609375,0.0769230769230769,-3.8618447288203406,25.366131611168385,9.0,3.399679487179487,8.0,33.78780793421831,6.0
subject-05,1,635,0.709904909133911,clock,clock,0,0_clock_00_clock-0048-ILSVRC2012-val-00044752.png,True,-0.9558603776205923,0.0486296862363815,1.0,-0.005506508954122877,2.426605224609375,0.0769230769230769,-3.8618447288203406,25.366131611168385,9.0,3.399679487179487,8.0,33.78780793421831,6.0
subject-04,1,701,0.55905294418335,clock,clock,0,0_clock_00_clock-0048-ILSVRC2012-val-00044752.png,True,-1.3954405229515956,0.0486296862363815,1.0,-0.005506508954122877,2.426605224609375,0.0769230769230769,-3.8618447288203406,25.366131611168385,9.0,3.399679487179487,8.0,33.78780793421831,6.0
subject-03,1,719,0.815713882446289,clock,clock,0,0_clock_00_clock-0048-ILSVRC2012-val-00044752.png,True,-0.47764562806752775,0.0486296862363815,1.0,-0.005506508954122877,2.426605224609375,0.0769230769230769,-3.8618447288203406,25.366131611168385,9.0,3.399679487179487,8.0,33.78780793421831,6.0
subject-02,1,22,1.03111386299133,oven,truck,0,0_truck_00_truck-0028-ILSVRC2012-val-00028536.png,False,0.7550518304921836,2.58555269241333,0.125,-2.914707525275739,2.375645875930786,0.1666666666666666,-2.9099133188915056,30.372822046279907,4.0,0.9142857142857139,2.0,35.71745128983548,0.0
subject-01,1,339,0.777629137039185,keyboard,truck,0,0_truck_00_truck-0028-ILSVRC2012-val-00028536.png,False,0.03022909326236992,2.58555269241333,0.125,-2.914707525275739,2.375645875930786,0.1666666666666666,-2.9099133188915056,30.372822046279907,4.0,0.9142857142857139,2.0,35.71745128983548,0.0
subject-05,1,148,0.868803977966309,cat,truck,0,0_truck_00_truck-0028-ILSVRC2012-val-00028536.png,False,-0.1607997394187672,2.58555269241333,0.125,-2.914707525275739,2.375645875930786,0.1666666666666666,-2.9099133188915056,30.372822046279907,4.0,0.9142857142857139,2.0,35.71745128983548,0.0
subject-04,1,436,1.5001060962677,oven,truck,0,0_truck_00_truck-0028-ILSVRC2012-val-00028536.png,False,2.2673531745390947,2.58555269241333,0.125,-2.914707525275739,2.375645875930786,0.1666666666666666,-2.9099133188915056,30.372822046279907,4.0,0.9142857142857139,2.0,35.71745128983548,0.0
subject-03,1,135,1.29182887077332,airplane,truck,0,0_truck_00_truck-0028-ILSVRC2012-val-00028536.png,False,1.9580776406183833,2.58555269241333,0.125,-2.914707525275739,2.375645875930786,0.1666666666666666,-2.9099133188915056,30.372822046279907,4.0,0.9142857142857139,2.0,35.71745128983548,0.0
subject-02,1,23,0.687018871307373,boat,elephant,0,0_elephant_00_elephant-0081-ILSVRC2012-val-00032404.png,False,-1.017781083482261,2.166228771209717,1.0,-1.2856050828469878,2.3510046005249023,0.25,-2.017961223131101,29.922012090682983,10.0,7.583333333333333,1.0,24.63090663419882,0.0
subject-01,1,433,0.563935041427612,elephant,elephant,0,0_elephant_00_elephant-0081-ILSVRC2012-val-00032404.png,True,-0.9830109586453182,2.166228771209717,1.0,-1.2856050828469878,2.3510046005249023,0.25,-2.017961223131101,29.922012090682983,10.0,7.583333333333333,1.0,24.63090663419882,0.0
subject-05,1,650,0.939449071884155,elephant,elephant,0,0_elephant_00_elephant-0081-ILSVRC2012-val-00032404.png,True,0.19267705480583544,2.166228771209717,1.0,-1.2856050828469878,2.3510046005249023,0.25,-2.017961223131101,29.922012090682983,10.0,7.583333333333333,1.0,24.63090663419882,0.0
subject-04,1,573,0.936556100845337,elephant,elephant,0,0_elephant_00_elephant-0081-ILSVRC2012-val-00032404.png,True,0.07388794159025512,2.166228771209717,1.0,-1.2856050828469878,2.3510046005249023,0.25,-2.017961223131101,29.922012090682983,10.0,7.583333333333333,1.0,24.63090663419882,0.0
subject-03,1,539,0.937328815460205,bear,elephant,0,0_elephant_00_elephant-0081-ILSVRC2012-val-00032404.png,False,0.14451567628991357,2.166228771209717,1.0,-1.2856050828469878,2.3510046005249023,0.25,-2.017961223131101,29.922012090682983,10.0,7.583333333333333,1.0,24.63090663419882,0.0
subject-02,1,24,0.888767957687378,oven,oven,0,0_oven_00_oven-0018-ILSVRC2012-val-00017795.png,True,0.021662760057476717,1.6694395542144775,0.5,-2.01455233105825,2.4377596378326416,0.0714285714285714,-4.176286874647936,29.750382900238037,10.0,3.874206349206349,7.0,33.76015789704522,6.0
subject-01,1,199,1.05015897750854,bicycle,oven,0,0_oven_00_oven-0018-ILSVRC2012-val-00017795.png,False,1.3224414443490062,1.6694395542144775,0.5,-2.01455233105825,2.4377596378326416,0.0714285714285714,-4.176286874647936,29.750382900238037,10.0,3.874206349206349,7.0,33.76015789704522,6.0
subject-05,1,733,0.767681121826172,bicycle,oven,0,0_oven_00_oven-0018-ILSVRC2012-val-00017795.png,False,-0.6667737714275448,1.6694395542144775,0.5,-2.01455233105825,2.4377596378326416,0.0714285714285714,-4.176286874647936,29.750382900238037,10.0,3.874206349206349,7.0,33.76015789704522,6.0
subject-04,1,174,1.14713311195374,bear,oven,0,0_oven_00_oven-0018-ILSVRC2012-val-00017795.png,False,0.8935017406789927,1.6694395542144775,0.5,-2.01455233105825,2.4377596378326416,0.0714285714285714,-4.176286874647936,29.750382900238037,10.0,3.874206349206349,7.0,33.76015789704522,6.0
subject-03,1,321,0.707811832427979,cat,oven,0,0_oven_00_oven-0018-ILSVRC2012-val-00017795.png,False,-1.0296541562846329,1.6694395542144775,0.5,-2.01455233105825,2.4377596378326416,0.0714285714285714,-4.176286874647936,29.750382900238037,10.0,3.874206349206349,7.0,33.76015789704522,6.0
subject-02,1,25,0.716544151306152,keyboard,keyboard,0,0_keyboard_00_keyboard-0074-ILSVRC2012-val-00020967.png,True,-0.8656620772741646,0.1681518256664276,1.0,-0.025503583879167385,2.3614509105682373,0.0909090909090909,-3.897340269777022,27.123344153165817,10.0,4.9015984015984015,6.0,30.28925076908045,6.0
subject-01,1,21,0.533423900604248,keyboard,keyboard,0,0_keyboard_00_keyboard-0074-ILSVRC2012-val-00020967.png,True,-1.1276808889171481,0.1681518256664276,1.0,-0.025503583879167385,2.3614509105682373,0.0909090909090909,-3.897340269777022,27.123344153165817,10.0,4.9015984015984015,6.0,30.28925076908045,6.0
subject-05,1,252,0.719163179397583,keyboard,keyboard,0,0_keyboard_00_keyboard-0074-ILSVRC2012-val-00020967.png,True,-0.9095360893880158,0.1681518256664276,1.0,-0.025503583879167385,2.3614509105682373,0.0909090909090909,-3.897340269777022,27.123344153165817,10.0,4.9015984015984015,6.0,30.28925076908045,6.0
subject-04,1,743,1.07509803771973,keyboard,keyboard,0,0_keyboard_00_keyboard-0074-ILSVRC2012-val-00020967.png,True,0.6131247871368866,0.1681518256664276,1.0,-0.025503583879167385,2.3614509105682373,0.0909090909090909,-3.897340269777022,27.123344153165817,10.0,4.9015984015984015,6.0,30.28925076908045,6.0
subject-03,1,727,0.772608041763306,keyboard,keyboard,0,0_keyboard_00_keyboard-0074-ILSVRC2012-val-00020967.png,True,-0.6981677744858458,0.1681518256664276,1.0,-0.025503583879167385,2.3614509105682373,0.0909090909090909,-3.897340269777022,27.123344153165817,10.0,4.9015984015984015,6.0,30.28925076908045,6.0
subject-02,1,26,1.07050204277039,car,clock,0,0_clock_00_clock-0076-ILSVRC2012-val-00028203.png,False,0.9579860876638088,2.2356653213500977,0.25,-2.4500019099198327,2.428183078765869,0.0769230769230769,-4.1163920265664995,30.419022798538208,10.0,0.39948107448107406,10.0,43.25470302647721,6.0
subject-01,1,679,0.538566112518311,clock,clock,0,0_clock_00_clock-0076-ILSVRC2012-val-00028203.png,True,-1.1032988625826625,2.2356653213500977,0.25,-2.4500019099198327,2.428183078765869,0.0769230769230769,-4.1163920265664995,30.419022798538208,10.0,0.39948107448107406,10.0,43.25470302647721,6.0
subject-05,1,647,0.838258981704712,clock,clock,0,0_clock_00_clock-0076-ILSVRC2012-val-00028203.png,True,-0.31363338658905304,2.2356653213500977,0.25,-2.4500019099198327,2.428183078765869,0.0769230769230769,-4.1163920265664995,30.419022798538208,10.0,0.39948107448107406,10.0,43.25470302647721,6.0
subject-04,1,49,1.37715697288513,car,clock,0,0_clock_00_clock-0076-ILSVRC2012-val-00028203.png,False,1.788807118728937,2.2356653213500977,0.25,-2.4500019099198327,2.428183078765869,0.0769230769230769,-4.1163920265664995,30.419022798538208,10.0,0.39948107448107406,10.0,43.25470302647721,6.0
subject-03,1,83,1.24726796150208,car,clock,0,0_clock_00_clock-0076-ILSVRC2012-val-00028203.png,False,1.7301116108843875,2.2356653213500977,0.25,-2.4500019099198327,2.428183078765869,0.0769230769230769,-4.1163920265664995,30.419022798538208,10.0,0.39948107448107406,10.0,43.25470302647721,6.0
subject-02,1,27,1.10799384117126,clock,knife,0,0_knife_00_knife-0010-ILSVRC2012-val-00009160.png,False,1.1511498820098913,1.6179325580596924,0.25,-3.5248700222807727,2.3982081413269043,0.0769230769230769,-4.115713611336666,29.90014362335205,10.0,1.6587051837051834,9.0,35.62788801181766,5.0
subject-01,1,725,0.604193925857544,clock,knife,0,0_knife_00_knife-0010-ILSVRC2012-val-00009160.png,False,-0.7921216688276134,1.6179325580596924,0.25,-3.5248700222807727,2.3982081413269043,0.0769230769230769,-4.115713611336666,29.90014362335205,10.0,1.6587051837051834,9.0,35.62788801181766,5.0
subject-05,1,417,0.90988302230835,clock,knife,0,0_knife_00_knife-0010-ILSVRC2012-val-00009160.png,False,0.04474162373266411,1.6179325580596924,0.25,-3.5248700222807727,2.3982081413269043,0.0769230769230769,-4.115713611336666,29.90014362335205,10.0,1.6587051837051834,9.0,35.62788801181766,5.0
subject-04,1,750,1.17194604873657,clock,knife,0,0_knife_00_knife-0010-ILSVRC2012-val-00009160.png,False,0.9900793550922522,1.6179325580596924,0.25,-3.5248700222807727,2.3982081413269043,0.0769230769230769,-4.115713611336666,29.90014362335205,10.0,1.6587051837051834,9.0,35.62788801181766,5.0
subject-03,1,15,0.808168172836304,oven,knife,0,0_knife_00_knife-0010-ILSVRC2012-val-00009160.png,False,-0.5162481945197371,1.6179325580596924,0.25,-3.5248700222807727,2.3982081413269043,0.0769230769230769,-4.115713611336666,29.90014362335205,10.0,1.6587051837051834,9.0,35.62788801181766,5.0
subject-02,1,28,0.645861864089966,boat,boat,0,0_boat_00_boat-0236-ILSVRC2012-val-00032584.png,True,-1.229828625001607,2.369039535522461,0.0769230769230769,-3.7157079651525,2.385756492614746,0.5,-1.6832221599768966,30.195096731185913,10.0,3.9558913308913306,5.0,29.912620056165853,0.0
subject-01,1,621,0.616973876953125,boat,boat,0,0_boat_00_boat-0236-ILSVRC2012-val-00032584.png,True,-0.7315249627070959,2.369039535522461,0.0769230769230769,-3.7157079651525,2.385756492614746,0.5,-1.6832221599768966,30.195096731185913,10.0,3.9558913308913306,5.0,29.912620056165853,0.0
subject-05,1,738,0.949022054672241,airplane,boat,0,0_boat_00_boat-0236-ILSVRC2012-val-00032584.png,False,0.2405760252712864,2.369039535522461,0.0769230769230769,-3.7157079651525,2.385756492614746,0.5,-1.6832221599768966,30.195096731185913,10.0,3.9558913308913306,5.0,29.912620056165853,0.0
subject-04,1,470,1.0558180809021,boat,boat,0,0_boat_00_boat-0236-ILSVRC2012-val-00032584.png,True,0.5380827938519234,2.369039535522461,0.0769230769230769,-3.7157079651525,2.385756492614746,0.5,-1.6832221599768966,30.195096731185913,10.0,3.9558913308913306,5.0,29.912620056165853,0.0
subject-03,1,600,0.745839834213257,cat,boat,0,0_boat_00_boat-0236-ILSVRC2012-val-00032584.png,False,-0.8351093696659668,2.369039535522461,0.0769230769230769,-3.7157079651525,2.385756492614746,0.5,-1.6832221599768966,30.195096731185913,10.0,3.9558913308913306,5.0,29.912620056165853,0.0
subject-02,1,29,1.37190508842468,bottle,cat,0,0_cat_00_cat-0260-ILSVRC2012-val-00006612.png,False,2.51086320770874,2.025890350341797,0.5,-1.3859114150057879,2.377725839614868,0.0769230769230769,-4.146361268424548,29.956988096237183,10.0,0.8341380841380838,10.0,38.02330184249812,10.0
subject-01,1,140,0.621129989624023,boat,cat,0,0_cat_00_cat-0260-ILSVRC2012-val-00006612.png,False,-0.7118185697609408,2.025890350341797,0.5,-1.3859114150057879,2.377725839614868,0.0769230769230769,-4.146361268424548,29.956988096237183,10.0,0.8341380841380838,10.0,38.02330184249812,10.0
subject-05,1,318,0.930768013000488,cat,cat,0,0_cat_00_cat-0260-ILSVRC2012-val-00006612.png,True,0.1492408769412818,2.025890350341797,0.5,-1.3859114150057879,2.377725839614868,0.0769230769230769,-4.146361268424548,29.956988096237183,10.0,0.8341380841380838,10.0,38.02330184249812,10.0
subject-04,1,613,0.786949872970581,cat,cat,0,0_cat_00_cat-0260-ILSVRC2012-val-00006612.png,True,-0.5084136503562698,2.025890350341797,0.5,-1.3859114150057879,2.377725839614868,0.0769230769230769,-4.146361268424548,29.956988096237183,10.0,0.8341380841380838,10.0,38.02330184249812,10.0
subject-03,1,484,0.625897884368896,cat,cat,0,0_cat_00_cat-0260-ILSVRC2012-val-00006612.png,True,-1.448711976788264,2.025890350341797,0.5,-1.3859114150057879,2.377725839614868,0.0769230769230769,-4.146361268424548,29.956988096237183,10.0,0.8341380841380838,10.0,38.02330184249812,10.0
subject-02,1,30,0.783740043640137,cat,cat,0,0_cat_00_cat-0274-ILSVRC2012-val-00019370.png,True,-0.5194579984801693,0.405969500541687,0.3333333333333333,-4.661844145019562,2.378727912902832,0.0833333333333333,-3.790712019064259,27.610196948051453,10.0,0.7120240870240868,10.0,41.78838070528217,6.0
subject-01,1,214,0.485100030899048,cat,cat,0,0_cat_00_cat-0274-ILSVRC2012-val-00019370.png,True,-1.3568106648632157,0.405969500541687,0.3333333333333333,-4.661844145019562,2.378727912902832,0.0833333333333333,-3.790712019064259,27.610196948051453,10.0,0.7120240870240868,10.0,41.78838070528217,6.0
subject-05,1,129,0.768539905548096,cat,cat,0,0_cat_00_cat-0274-ILSVRC2012-val-00019370.png,True,-0.6624767976375319,0.405969500541687,0.3333333333333333,-4.661844145019562,2.378727912902832,0.0833333333333333,-3.790712019064259,27.610196948051453,10.0,0.7120240870240868,10.0,41.78838070528217,6.0
subject-04,1,714,0.47875189781189,cat,cat,0,0_cat_00_cat-0274-ILSVRC2012-val-00019370.png,True,-1.7079905270611702,0.405969500541687,0.3333333333333333,-4.661844145019562,2.378727912902832,0.0833333333333333,-3.790712019064259,27.610196948051453,10.0,0.7120240870240868,10.0,41.78838070528217,6.0
subject-03,1,649,0.619110107421875,cat,cat,0,0_cat_00_cat-0274-ILSVRC2012-val-00019370.png,True,-1.4834370886999955,0.405969500541687,0.3333333333333333,-4.661844145019562,2.378727912902832,0.0833333333333333,-3.790712019064259,27.610196948051453,10.0,0.7120240870240868,10.0,41.78838070528217,6.0
subject-02,1,31,0.711482048034668,oven,oven,0,0_oven_00_oven-0031-ILSVRC2012-val-00029125.png,True,-0.8917428500564295,0.1021073311567306,1.0,-0.01377749639653328,2.351322650909424,0.0714285714285714,-4.4202083946420325,27.456029698252678,10.0,3.8817821067821066,8.0,30.534013365861814,9.0
subject-01,1,593,0.644271850585938,oven,oven,0,0_oven_00_oven-0031-ILSVRC2012-val-00029125.png,True,-0.6020904074774461,0.1021073311567306,1.0,-0.01377749639653328,2.351322650909424,0.0714285714285714,-4.4202083946420325,27.456029698252678,10.0,3.8817821067821066,8.0,30.534013365861814,9.0
subject-05,1,497,0.706079006195068,keyboard,oven,0,0_oven_00_oven-0031-ILSVRC2012-val-00029125.png,False,-0.9750035032197938,0.1021073311567306,1.0,-0.01377749639653328,2.351322650909424,0.0714285714285714,-4.4202083946420325,27.456029698252678,10.0,3.8817821067821066,8.0,30.534013365861814,9.0
subject-04,1,206,0.631130933761597,oven,oven,0,0_oven_00_oven-0031-ILSVRC2012-val-00029125.png,True,-1.114896533092733,0.1021073311567306,1.0,-0.01377749639653328,2.351322650909424,0.0714285714285714,-4.4202083946420325,27.456029698252678,10.0,3.8817821067821066,8.0,30.534013365861814,9.0
subject-03,1,485,1.28138113021851,cat,oven,0,0_oven_00_oven-0031-ILSVRC2012-val-00029125.png,False,1.9046287776368533,0.1021073311567306,1.0,-0.01377749639653328,2.351322650909424,0.0714285714285714,-4.4202083946420325,27.456029698252678,10.0,3.8817821067821066,8.0,30.534013365861814,9.0
subject-02,1,32,0.925283908843994,airplane,airplane,0,0_airplane_00_airplane-0022-ILSVRC2012-val-00023781.png,True,0.20979883195645724,2.3853466510772705,1.0,-1.0615407762157,2.3779563903808594,1.0,-1.666787787708327,30.4677631855011,10.0,5.686111111111111,3.0,29.004030928050323,3.0
subject-01,1,408,0.766674995422363,airplane,airplane,0,0_airplane_00_airplane-0022-ILSVRC2012-val-00023781.png,True,-0.021710456067096245,2.3853466510772705,1.0,-1.0615407762157,2.3779563903808594,1.0,-1.666787787708327,30.4677631855011,10.0,5.686111111111111,3.0,29.004030928050323,3.0
subject-05,1,441,1.21331310272217,airplane,airplane,0,0_airplane_00_airplane-0022-ILSVRC2012-val-00023781.png,True,1.5629714985590617,2.3853466510772705,1.0,-1.0615407762157,2.3779563903808594,1.0,-1.666787787708327,30.4677631855011,10.0,5.686111111111111,3.0,29.004030928050323,3.0
subject-04,1,263,0.722303867340088,airplane,airplane,0,0_airplane_00_airplane-0022-ILSVRC2012-val-00023781.png,True,-0.7600306620700713,2.3853466510772705,1.0,-1.0615407762157,2.3779563903808594,1.0,-1.666787787708327,30.4677631855011,10.0,5.686111111111111,3.0,29.004030928050323,3.0
subject-03,1,657,1.02948188781738,airplane,airplane,0,0_airplane_00_airplane-0022-ILSVRC2012-val-00023781.png,True,0.6159551145020374,2.3853466510772705,1.0,-1.0615407762157,2.3779563903808594,1.0,-1.666787787708327,30.4677631855011,10.0,5.686111111111111,3.0,29.004030928050323,3.0
subject-02,1,33,1.23299503326416,bottle,chair,0,0_chair_00_chair-0058-ILSVRC2012-val-00005926.png,False,1.7951761915583757,2.6444852352142334,0.5,-2.2757261731470226,2.341788530349731,0.0909090909090909,-3.8078423274289115,30.45616340637207,4.0,2.142929292929293,8.0,34.159031478075576,6.0
subject-01,1,670,0.91433310508728,cat,chair,0,0_chair_00_chair-0058-ILSVRC2012-val-00005926.png,False,0.6784170335263463,2.6444852352142334,0.5,-2.2757261731470226,2.341788530349731,0.0909090909090909,-3.8078423274289115,30.45616340637207,4.0,2.142929292929293,8.0,34.159031478075576,6.0
subject-05,1,546,1.25672292709351,oven,chair,0,0_chair_00_chair-0058-ILSVRC2012-val-00005926.png,False,1.780175053762463,2.6444852352142334,0.5,-2.2757261731470226,2.341788530349731,0.0909090909090909,-3.8078423274289115,30.45616340637207,4.0,2.142929292929293,8.0,34.159031478075576,6.0
subject-04,1,207,1.36078000068665,chair,chair,0,0_chair_00_chair-0058-ILSVRC2012-val-00005926.png,True,1.7250642042934339,2.6444852352142334,0.5,-2.2757261731470226,2.341788530349731,0.0909090909090909,-3.8078423274289115,30.45616340637207,4.0,2.142929292929293,8.0,34.159031478075576,6.0
subject-03,1,78,0.634188890457153,boat,chair,0,0_chair_00_chair-0058-ILSVRC2012-val-00005926.png,False,-1.4062966003663966,2.6444852352142334,0.5,-2.2757261731470226,2.341788530349731,0.0909090909090909,-3.8078423274289115,30.45616340637207,4.0,2.142929292929293,8.0,34.159031478075576,6.0
subject-02,1,34,1.39684081077576,car,oven,0,0_oven_00_oven-0029-ILSVRC2012-val-00028472.png,False,2.6393360724295545,2.439459800720215,0.1666666666666666,-2.656146603589263,2.527676820755005,0.0625,-4.633792122765655,30.92362380027771,10.0,0.724801587301587,9.0,37.505861657039425,6.0
subject-01,1,237,0.801245927810669,elephant,oven,0,0_oven_00_oven-0029-ILSVRC2012-val-00028472.png,False,0.1422091563460382,2.439459800720215,0.1666666666666666,-2.656146603589263,2.527676820755005,0.0625,-4.633792122765655,30.92362380027771,10.0,0.724801587301587,9.0,37.505861657039425,6.0
subject-05,1,61,0.971253156661987,cat,oven,0,0_oven_00_oven-0029-ILSVRC2012-val-00028472.png,False,0.3518106238487044,2.439459800720215,0.1666666666666666,-2.656146603589263,2.527676820755005,0.0625,-4.633792122765655,30.92362380027771,10.0,0.724801587301587,9.0,37.505861657039425,6.0
subject-04,1,561,0.56302809715271,clock,oven,0,0_oven_00_oven-0029-ILSVRC2012-val-00028472.png,False,-1.3799683201217308,2.439459800720215,0.1666666666666666,-2.656146603589263,2.527676820755005,0.0625,-4.633792122765655,30.92362380027771,10.0,0.724801587301587,9.0,37.505861657039425,6.0
subject-03,1,337,0.874474048614502,clock,oven,0,0_oven_00_oven-0029-ILSVRC2012-val-00028472.png,False,-0.17703861607096524,2.439459800720215,0.1666666666666666,-2.656146603589263,2.527676820755005,0.0625,-4.633792122765655,30.92362380027771,10.0,0.724801587301587,9.0,37.505861657039425,6.0
subject-02,1,35,0.716651916503906,bicycle,bicycle,0,0_bicycle_00_bicycle-0018-ILSVRC2012-val-00018975.png,True,-0.8651068535883321,0.0279514156281948,1.0,-0.0029660896923770766,2.3865556716918945,0.5,-1.808440500352366,24.60435640439391,9.0,6.65,6.0,19.372671144072843,8.0
subject-01,1,344,0.542635202407837,bicycle,bicycle,0,0_bicycle_00_bicycle-0018-ILSVRC2012-val-00018975.png,True,-1.0840050920220823,0.0279514156281948,1.0,-0.0029660896923770766,2.3865556716918945,0.5,-1.808440500352366,24.60435640439391,9.0,6.65,6.0,19.372671144072843,8.0
subject-05,1,782,0.662365913391113,bicycle,bicycle,0,0_bicycle_00_bicycle-0018-ILSVRC2012-val-00018975.png,True,-1.1937244794839543,0.0279514156281948,1.0,-0.0029660896923770766,2.3865556716918945,0.5,-1.808440500352366,24.60435640439391,9.0,6.65,6.0,19.372671144072843,8.0
subject-04,1,287,0.923896789550781,bicycle,bicycle,0,0_bicycle_00_bicycle-0018-ILSVRC2012-val-00018975.png,True,0.024615012084020112,0.0279514156281948,1.0,-0.0029660896923770766,2.3865556716918945,0.5,-1.808440500352366,24.60435640439391,9.0,6.65,6.0,19.372671144072843,8.0
subject-03,1,11,0.862965106964111,bicycle,bicycle,0,0_bicycle_00_bicycle-0018-ILSVRC2012-val-00018975.png,True,-0.23591640329271685,0.0279514156281948,1.0,-0.0029660896923770766,2.3865556716918945,0.5,-1.808440500352366,24.60435640439391,9.0,6.65,6.0,19.372671144072843,8.0
subject-02,1,36,1.41264200210571,knife,bottle,0,0_bottle_00_bottle-0002-ILSVRC2012-val-00002968.png,False,2.7207463595501307,1.421740174293518,0.1428571428571428,-4.22285884071866,2.4424846172332764,0.1428571428571428,-3.0448407920970624,29.312984108924866,10.0,0.815451215451215,0.0,37.81413014851317,0.0
subject-01,1,135,1.19218111038208,keyboard,bottle,0,0_bottle_00_bottle-0002-ILSVRC2012-val-00002968.png,False,1.995845699496957,1.421740174293518,0.1428571428571428,-4.22285884071866,2.4424846172332764,0.1428571428571428,-3.0448407920970624,29.312984108924866,10.0,0.815451215451215,0.0,37.81413014851317,0.0
subject-05,1,669,0.929684162139893,oven,bottle,0,0_bottle_00_bottle-0002-ILSVRC2012-val-00002968.png,False,0.14381776676655117,1.421740174293518,0.1428571428571428,-4.22285884071866,2.4424846172332764,0.1428571428571428,-3.0448407920970624,29.312984108924866,10.0,0.815451215451215,0.0,37.81413014851317,0.0
subject-04,1,94,0.924721002578735,cat,bottle,0,0_bottle_00_bottle-0002-ILSVRC2012-val-00002968.png,False,0.027823037345391318,1.421740174293518,0.1428571428571428,-4.22285884071866,2.4424846172332764,0.1428571428571428,-3.0448407920970624,29.312984108924866,10.0,0.815451215451215,0.0,37.81413014851317,0.0
subject-03,1,742,0.73335599899292,oven,bottle,0,0_bottle_00_bottle-0002-ILSVRC2012-val-00002968.png,False,-0.8989745465121313,1.421740174293518,0.1428571428571428,-4.22285884071866,2.4424846172332764,0.1428571428571428,-3.0448407920970624,29.312984108924866,10.0,0.815451215451215,0.0,37.81413014851317,0.0
subject-02,1,37,1.32428812980652,elephant,elephant,0,0_elephant_00_elephant-0055-ILSVRC2012-val-00003538.png,True,2.2655329543141547,1.534121036529541,0.0909090909090909,-4.35817364566527,2.299732208251953,0.3333333333333333,-1.982555660114812,29.485865116119385,10.0,3.3663419913419914,1.0,30.482793721766637,0.0
subject-01,1,44,0.845355987548828,dog,elephant,0,0_elephant_00_elephant-0055-ILSVRC2012-val-00003538.png,False,0.3513589650519509,1.534121036529541,0.0909090909090909,-4.35817364566527,2.299732208251953,0.3333333333333333,-1.982555660114812,29.485865116119385,10.0,3.3663419913419914,1.0,30.482793721766637,0.0
subject-05,1,575,0.855216979980469,oven,elephant,0,0_elephant_00_elephant-0055-ILSVRC2012-val-00003538.png,False,-0.22878306599988807,1.534121036529541,0.0909090909090909,-4.35817364566527,2.299732208251953,0.3333333333333333,-1.982555660114812,29.485865116119385,10.0,3.3663419913419914,1.0,30.482793721766637,0.0
subject-04,1,364,0.705909967422485,cat,elephant,0,0_elephant_00_elephant-0055-ILSVRC2012-val-00003538.png,False,-0.8238394630527677,1.534121036529541,0.0909090909090909,-4.35817364566527,2.299732208251953,0.3333333333333333,-1.982555660114812,29.485865116119385,10.0,3.3663419913419914,1.0,30.482793721766637,0.0
subject-03,1,184,0.856033086776733,keyboard,elephant,0,0_elephant_00_elephant-0055-ILSVRC2012-val-00003538.png,False,-0.27137943907893675,1.534121036529541,0.0909090909090909,-4.35817364566527,2.299732208251953,0.3333333333333333,-1.982555660114812,29.485865116119385,10.0,3.3663419913419914,1.0,30.482793721766637,0.0
subject-02,1,38,1.40063691139221,bird,clock,0,0_clock_00_clock-0007-ILSVRC2012-val-00005490.png,False,2.6588941952742555,0.2474455535411834,1.0,-0.039717395622666546,2.4489221572875977,0.0769230769230769,-3.8879847765991764,28.531474083662033,10.0,2.1614468864468863,9.0,39.09243804844401,10.0
subject-01,1,184,0.529239177703857,cat,clock,0,0_clock_00_clock-0007-ILSVRC2012-val-00005490.png,False,-1.1475229385380172,0.2474455535411834,1.0,-0.039717395622666546,2.4489221572875977,0.0769230769230769,-3.8879847765991764,28.531474083662033,10.0,2.1614468864468863,9.0,39.09243804844401,10.0
subject-05,1,329,0.844594955444336,keyboard,clock,0,0_clock_00_clock-0007-ILSVRC2012-val-00005490.png,False,-0.28193097724158944,0.2474455535411834,1.0,-0.039717395622666546,2.4489221572875977,0.0769230769230769,-3.8879847765991764,28.531474083662033,10.0,2.1614468864468863,9.0,39.09243804844401,10.0
subject-04,1,347,1.39304780960083,bottle,clock,0,0_clock_00_clock-0007-ILSVRC2012-val-00005490.png,False,1.8506578828873705,0.2474455535411834,1.0,-0.039717395622666546,2.4489221572875977,0.0769230769230769,-3.8879847765991764,28.531474083662033,10.0,2.1614468864468863,9.0,39.09243804844401,10.0
subject-03,1,14,0.650233030319214,cat,clock,0,0_clock_00_clock-0007-ILSVRC2012-val-00005490.png,False,-1.324217510763717,0.2474455535411834,1.0,-0.039717395622666546,2.4489221572875977,0.0769230769230769,-3.8879847765991764,28.531474083662033,10.0,2.1614468864468863,9.0,39.09243804844401,10.0
subject-02,1,39,1.19574594497681,dog,truck,0,0_truck_00_truck-0184-ILSVRC2012-val-00032494.png,False,1.6032628788763739,2.0765798091888428,0.0714285714285714,-5.068656455006805,2.3666305541992188,0.1428571428571428,-3.01023599756807,30.091360807418823,10.0,0.8702741702741699,2.0,36.985554282970405,0.0
subject-01,1,635,0.810407876968384,bicycle,truck,0,0_truck_00_truck-0184-ILSVRC2012-val-00032494.png,False,0.18565094547723054,2.0765798091888428,0.0714285714285714,-5.068656455006805,2.3666305541992188,0.1428571428571428,-3.01023599756807,30.091360807418823,10.0,0.8702741702741699,2.0,36.985554282970405,0.0
subject-05,1,398,0.927395105361938,keyboard,truck,0,0_truck_00_truck-0184-ILSVRC2012-val-00032494.png,False,0.13236433940455244,2.0765798091888428,0.0714285714285714,-5.068656455006805,2.3666305541992188,0.1428571428571428,-3.01023599756807,30.091360807418823,10.0,0.8702741702741699,2.0,36.985554282970405,0.0
subject-04,1,38,0.935492992401123,bicycle,truck,0,0_truck_00_truck-0184-ILSVRC2012-val-00032494.png,False,0.06975008083224019,2.0765798091888428,0.0714285714285714,-5.068656455006805,2.3666305541992188,0.1428571428571428,-3.01023599756807,30.091360807418823,10.0,0.8702741702741699,2.0,36.985554282970405,0.0
subject-03,1,283,1.241614818573,bird,truck,0,0_truck_00_truck-0184-ILSVRC2012-val-00032494.png,False,1.7011910935489627,2.0765798091888428,0.0714285714285714,-5.068656455006805,2.3666305541992188,0.1428571428571428,-3.01023599756807,30.091360807418823,10.0,0.8702741702741699,2.0,36.985554282970405,0.0
subject-02,1,40,0.627651929855347,boat,chair,0,0_chair_00_chair-0196-ILSVRC2012-val-00045844.png,False,-1.323649144197347,2.3993964195251465,0.125,-3.0651880087710777,2.379506826400757,0.0833333333333333,-3.9177796792332815,30.241308450698853,10.0,1.090873015873016,7.0,36.70039295481104,6.0
subject-01,1,595,0.805962085723877,keyboard,chair,0,0_chair_00_chair-0196-ILSVRC2012-val-00045844.png,False,0.164571028699637,2.3993964195251465,0.125,-3.0651880087710777,2.379506826400757,0.0833333333333333,-3.9177796792332815,30.241308450698853,10.0,1.090873015873016,7.0,36.70039295481104,6.0
subject-05,1,2,1.06231713294983,bear,chair,0,0_chair_00_chair-0196-ILSVRC2012-val-00045844.png,False,0.8074544714597635,2.3993964195251465,0.125,-3.0651880087710777,2.379506826400757,0.0833333333333333,-3.9177796792332815,30.241308450698853,10.0,1.090873015873016,7.0,36.70039295481104,6.0
subject-04,1,581,0.699162006378174,keyboard,chair,0,0_chair_00_chair-0196-ILSVRC2012-val-00045844.png,False,-0.850104067904545,2.3993964195251465,0.125,-3.0651880087710777,2.379506826400757,0.0833333333333333,-3.9177796792332815,30.241308450698853,10.0,1.090873015873016,7.0,36.70039295481104,6.0
subject-03,1,410,0.967081785202026,keyboard,chair,0,0_chair_00_chair-0196-ILSVRC2012-val-00045844.png,False,0.2967268069819044,2.3993964195251465,0.125,-3.0651880087710777,2.379506826400757,0.0833333333333333,-3.9177796792332815,30.241308450698853,10.0,1.090873015873016,7.0,36.70039295481104,6.0
subject-02,1,41,0.77352499961853,boat,airplane,0,0_airplane_00_airplane-0026-ILSVRC2012-val-00026189.png,False,-0.5720875533905063,2.0532350540161133,0.1428571428571428,-3.27665824461483,2.4992146492004395,0.5,-1.9407082512950131,30.431460857391357,10.0,1.8282106782106777,3.0,33.42048199913704,3.0
subject-01,1,542,0.778090000152588,keyboard,airplane,0,0_airplane_00_airplane-0026-ILSVRC2012-val-00026189.png,False,0.03241429619748317,2.0532350540161133,0.1428571428571428,-3.27665824461483,2.4992146492004395,0.5,-1.9407082512950131,30.431460857391357,10.0,1.8282106782106777,3.0,33.42048199913704,3.0
subject-05,1,88,1.27007699012756,elephant,airplane,0,0_airplane_00_airplane-0026-ILSVRC2012-val-00026189.png,False,1.846992876902999,2.0532350540161133,0.1428571428571428,-3.27665824461483,2.4992146492004395,0.5,-1.9407082512950131,30.431460857391357,10.0,1.8282106782106777,3.0,33.42048199913704,3.0
subject-04,1,798,1.50006890296936,elephant,airplane,0,0_airplane_00_airplane-0026-ILSVRC2012-val-00026189.png,False,2.2672084097312335,2.0532350540161133,0.1428571428571428,-3.27665824461483,2.4992146492004395,0.5,-1.9407082512950131,30.431460857391357,10.0,1.8282106782106777,3.0,33.42048199913704,3.0
subject-03,1,678,0.982028961181641,cat,airplane,0,0_airplane_00_airplane-0026-ILSVRC2012-val-00026189.png,False,0.37319401601184576,2.0532350540161133,0.1428571428571428,-3.27665824461483,2.4992146492004395,0.5,-1.9407082512950131,30.431460857391357,10.0,1.8282106782106777,3.0,33.42048199913704,3.0
subject-02,1,42,0.695250988006592,keyboard,keyboard,0,0_keyboard_00_keyboard-0038-ILSVRC2012-val-00038711.png,True,-0.9753678900654312,1.7082805633544922,0.3333333333333333,-2.9676152197882075,2.3554797172546387,0.0769230769230769,-4.103909604653463,29.308024168014526,10.0,1.1099317349317348,7.0,39.07028725522417,6.0
subject-01,1,138,0.721758127212524,keyboard,keyboard,0,0_keyboard_00_keyboard-0038-ILSVRC2012-val-00038711.png,True,-0.2346857829998225,1.7082805633544922,0.3333333333333333,-2.9676152197882075,2.3554797172546387,0.0769230769230769,-4.103909604653463,29.308024168014526,10.0,1.1099317349317348,7.0,39.07028725522417,6.0
subject-05,1,113,0.669456005096436,keyboard,keyboard,0,0_keyboard_00_keyboard-0038-ILSVRC2012-val-00038711.png,True,-1.1582487974830145,1.7082805633544922,0.3333333333333333,-2.9676152197882075,2.3554797172546387,0.0769230769230769,-4.103909604653463,29.308024168014526,10.0,1.1099317349317348,7.0,39.07028725522417,6.0
subject-04,1,17,0.745173931121826,keyboard,keyboard,0,0_keyboard_00_keyboard-0038-ILSVRC2012-val-00038711.png,True,-0.6710151529084257,1.7082805633544922,0.3333333333333333,-2.9676152197882075,2.3554797172546387,0.0769230769230769,-4.103909604653463,29.308024168014526,10.0,1.1099317349317348,7.0,39.07028725522417,6.0
subject-03,1,359,0.776396989822388,keyboard,keyboard,0,0_keyboard_00_keyboard-0038-ILSVRC2012-val-00038711.png,True,-0.6787841609101073,1.7082805633544922,0.3333333333333333,-2.9676152197882075,2.3554797172546387,0.0769230769230769,-4.103909604653463,29.308024168014526,10.0,1.1099317349317348,7.0,39.07028725522417,6.0
subject-02,1,43,0.89320707321167,clock,clock,0,0_clock_00_clock-0106-ILSVRC2012-val-00009413.png,True,0.04453379945240055,0.1835904866456985,1.0,-0.027278833342608853,2.466963529586792,0.1,-3.60908635140675,27.404750421643257,10.0,3.6078754578754575,8.0,33.87587372180256,9.0
subject-01,1,465,0.533970832824707,clock,clock,0,0_clock_00_clock-0106-ILSVRC2012-val-00009413.png,True,-1.125087585485615,0.1835904866456985,1.0,-0.027278833342608853,2.466963529586792,0.1,-3.60908635140675,27.404750421643257,10.0,3.6078754578754575,8.0,33.87587372180256,9.0
subject-05,1,645,0.818333864212036,clock,clock,0,0_clock_00_clock-0106-ILSVRC2012-val-00009413.png,True,-0.41332985898740715,0.1835904866456985,1.0,-0.027278833342608853,2.466963529586792,0.1,-3.60908635140675,27.404750421643257,10.0,3.6078754578754575,8.0,33.87587372180256,9.0
subject-04,1,611,0.751266956329346,clock,clock,0,0_clock_00_clock-0106-ILSVRC2012-val-00009413.png,True,-0.6472997078463427,0.1835904866456985,1.0,-0.027278833342608853,2.466963529586792,0.1,-3.60908635140675,27.404750421643257,10.0,3.6078754578754575,8.0,33.87587372180256,9.0
subject-03,1,394,1.38993692398071,oven,clock,0,0_clock_00_clock-0106-ILSVRC2012-val-00009413.png,False,2.4599817476123365,0.1835904866456985,1.0,-0.027278833342608853,2.466963529586792,0.1,-3.60908635140675,27.404750421643257,10.0,3.6078754578754575,8.0,33.87587372180256,9.0
subject-02,1,44,1.11892199516296,bear,cat,0,0_cat_00_cat-0160-ILSVRC2012-val-00011528.png,False,1.2074534945404147,2.0436596870422363,1.0,-1.2042407233548698,2.337833881378174,0.125,-3.3752348788395548,29.358744859695435,10.0,2.760786435786436,10.0,32.39724003041924,5.0
subject-01,1,343,1.19679498672485,dog,cat,0,0_cat_00_cat-0160-ILSVRC2012-val-00011528.png,False,2.0177225992384518,2.0436596870422363,1.0,-1.2042407233548698,2.337833881378174,0.125,-3.3752348788395548,29.358744859695435,10.0,2.760786435786436,10.0,32.39724003041924,5.0
subject-05,1,190,0.73310399055481,cat,cat,0,0_cat_00_cat-0160-ILSVRC2012-val-00011528.png,True,-0.839782438235995,2.0436596870422363,1.0,-1.2042407233548698,2.337833881378174,0.125,-3.3752348788395548,29.358744859695435,10.0,2.760786435786436,10.0,32.39724003041924,5.0
subject-04,1,793,1.02387309074402,dog,cat,0,0_cat_00_cat-0160-ILSVRC2012-val-00011528.png,False,0.41374559955184037,2.0436596870422363,1.0,-1.2042407233548698,2.337833881378174,0.125,-3.3752348788395548,29.358744859695435,10.0,2.760786435786436,10.0,32.39724003041924,5.0
subject-03,1,264,1.28463006019592,dog,cat,0,0_cat_00_cat-0160-ILSVRC2012-val-00011528.png,False,1.9212497505915482,2.0436596870422363,1.0,-1.2042407233548698,2.337833881378174,0.125,-3.3752348788395548,29.358744859695435,10.0,2.760786435786436,10.0,32.39724003041924,5.0
subject-02,1,45,1.36322784423828,bottle,knife,0,0_knife_00_knife-0015-ILSVRC2012-val-00011081.png,False,2.4661566456603956,2.487837791442871,0.0666666666666666,-3.667460354095297,2.270179510116577,0.0833333333333333,-4.068556196889822,30.090893030166626,10.0,1.0996392496392493,9.0,38.591589438131535,7.0
subject-01,1,706,1.46559309959412,truck,knife,0,0_knife_00_knife-0015-ILSVRC2012-val-00011081.png,False,3.292240798053851,2.487837791442871,0.0666666666666666,-3.667460354095297,2.270179510116577,0.0833333333333333,-4.068556196889822,30.090893030166626,10.0,1.0996392496392493,9.0,38.591589438131535,7.0
subject-05,1,594,0.631757020950317,keyboard,knife,0,0_knife_00_knife-0015-ILSVRC2012-val-00011081.png,False,-1.3468778348651556,2.487837791442871,0.0666666666666666,-3.667460354095297,2.270179510116577,0.0833333333333333,-4.068556196889822,30.090893030166626,10.0,1.0996392496392493,9.0,38.591589438131535,7.0
subject-04,1,458,0.868211984634399,bicycle,knife,0,0_knife_00_knife-0015-ILSVRC2012-val-00011081.png,False,-0.19212296073076196,2.487837791442871,0.0666666666666666,-3.667460354095297,2.270179510116577,0.0833333333333333,-4.068556196889822,30.090893030166626,10.0,1.0996392496392493,9.0,38.591589438131535,7.0
subject-03,1,586,0.898296117782593,bicycle,knife,0,0_knife_00_knife-0015-ILSVRC2012-val-00011081.png,False,-0.055168963563597836,2.487837791442871,0.0666666666666666,-3.667460354095297,2.270179510116577,0.0833333333333333,-4.068556196889822,30.090893030166626,10.0,1.0996392496392493,9.0,38.591589438131535,7.0
subject-02,1,46,1.12071585655212,cat,oven,0,0_oven_00_oven-0006-ILSVRC2012-val-00004891.png,False,1.2166957578417406,2.2358388900756836,1.0,-1.195774958156627,2.467721462249756,0.0625,-4.984516635120545,29.97128701210022,9.0,3.351165501165501,8.0,35.44892661724876,6.0
subject-01,1,280,0.974831104278564,bear,oven,0,0_oven_00_oven-0006-ILSVRC2012-val-00004891.png,False,0.9652709855059538,2.2358388900756836,1.0,-1.195774958156627,2.467721462249756,0.0625,-4.984516635120545,29.97128701210022,9.0,3.351165501165501,8.0,35.44892661724876,6.0
subject-05,1,35,0.932291030883789,clock,oven,0,0_oven_00_oven-0006-ILSVRC2012-val-00004891.png,False,0.15686138459552929,2.2358388900756836,1.0,-1.195774958156627,2.467721462249756,0.0625,-4.984516635120545,29.97128701210022,9.0,3.351165501165501,8.0,35.44892661724876,6.0
subject-04,1,772,0.545795917510986,boat,oven,0,0_oven_00_oven-0006-ILSVRC2012-val-00004891.png,False,-1.4470398971585148,2.2358388900756836,1.0,-1.195774958156627,2.467721462249756,0.0625,-4.984516635120545,29.97128701210022,9.0,3.351165501165501,8.0,35.44892661724876,6.0
subject-03,1,698,0.73782205581665,oven,oven,0,0_oven_00_oven-0006-ILSVRC2012-val-00004891.png,True,-0.8761269597074063,2.2358388900756836,1.0,-1.195774958156627,2.467721462249756,0.0625,-4.984516635120545,29.97128701210022,9.0,3.351165501165501,8.0,35.44892661724876,6.0
subject-02,1,47,1.37637591362,bird,bird,0,0_bird_00_bird-2405-ILSVRC2012-val-00007988.png,True,2.533897620444888,0.9261070489883424,1.0,-0.23419676179165577,2.313710927963257,0.1,-3.6280397597950356,28.230435967445374,10.0,1.9111471861471858,10.0,36.73334112218788,10.0
subject-01,1,174,0.596704006195068,elephant,bird,0,0_bird_00_bird-2405-ILSVRC2012-val-00007988.png,False,-0.8276354557943156,0.9261070489883424,1.0,-0.23419676179165577,2.313710927963257,0.1,-3.6280397597950356,28.230435967445374,10.0,1.9111471861471858,10.0,36.73334112218788,10.0
subject-05,1,390,1.15906190872192,bird,bird,0,0_bird_00_bird-2405-ILSVRC2012-val-00007988.png,True,1.2915225263152714,0.9261070489883424,1.0,-0.23419676179165577,2.313710927963257,0.1,-3.6280397597950356,28.230435967445374,10.0,1.9111471861471858,10.0,36.73334112218788,10.0
subject-04,1,363,0.763992071151733,bird,bird,0,0_bird_00_bird-2405-ILSVRC2012-val-00007988.png,True,-0.5977706559877434,0.9261070489883424,1.0,-0.23419676179165577,2.313710927963257,0.1,-3.6280397597950356,28.230435967445374,10.0,1.9111471861471858,10.0,36.73334112218788,10.0
subject-03,1,137,0.805251836776733,bird,bird,0,0_bird_00_bird-2405-ILSVRC2012-val-00007988.png,True,-0.5311676735820638,0.9261070489883424,1.0,-0.23419676179165577,2.313710927963257,0.1,-3.6280397597950356,28.230435967445374,10.0,1.9111471861471858,10.0,36.73334112218788,10.0
subject-02,1,48,1.37611103057861,clock,knife,0,0_knife_00_knife-0030-ILSVRC2012-val-00027427.png,False,2.5325329002790062,1.4710530042648315,1.0,-1.02705636701679,2.408104419708252,0.0666666666666666,-4.5243019303376135,29.156561970710754,10.0,2.672023809523809,9.0,35.92570162611492,9.0
subject-01,1,249,0.566645860671997,bottle,knife,0,0_knife_00_knife-0030-ILSVRC2012-val-00027427.png,False,-0.9701574887165766,1.4710530042648315,1.0,-1.02705636701679,2.408104419708252,0.0666666666666666,-4.5243019303376135,29.156561970710754,10.0,2.672023809523809,9.0,35.92570162611492,9.0
subject-05,1,193,1.18675708770752,bottle,knife,0,0_knife_00_knife-0030-ILSVRC2012-val-00027427.png,False,1.4300969486904598,1.4710530042648315,1.0,-1.02705636701679,2.408104419708252,0.0666666666666666,-4.5243019303376135,29.156561970710754,10.0,2.672023809523809,9.0,35.92570162611492,9.0
subject-04,1,397,1.50001811981201,knife,knife,0,0_knife_00_knife-0030-ILSVRC2012-val-00027427.png,True,2.2670107500897263,1.4710530042648315,1.0,-1.02705636701679,2.408104419708252,0.0666666666666666,-4.5243019303376135,29.156561970710754,10.0,2.672023809523809,9.0,35.92570162611492,9.0
subject-03,1,613,0.709336042404175,oven,knife,0,0_knife_00_knife-0030-ILSVRC2012-val-00027427.png,False,-1.0218565573927578,1.4710530042648315,1.0,-1.02705636701679,2.408104419708252,0.0666666666666666,-4.5243019303376135,29.156561970710754,10.0,2.672023809523809,9.0,35.92570162611492,9.0
subject-02,1,49,0.968672037124634,boat,oven,0,0_oven_00_oven-0005-ILSVRC2012-val-00004125.png,False,0.43334146916610633,0.0758623927831649,1.0,-0.009378043287866629,2.3512418270111084,0.0714285714285714,-4.286550258419694,26.93048821389675,10.0,4.3615079365079366,7.0,29.541425554936353,9.0
subject-01,1,546,0.635173797607422,oven,oven,0,0_oven_00_oven-0005-ILSVRC2012-val-00004125.png,True,-0.6452292300351213,0.0758623927831649,1.0,-0.009378043287866629,2.3512418270111084,0.0714285714285714,-4.286550258419694,26.93048821389675,10.0,4.3615079365079366,7.0,29.541425554936353,9.0
subject-05,1,615,0.683778047561646,keyboard,oven,0,0_oven_00_oven-0005-ILSVRC2012-val-00004125.png,False,-1.0865876335352633,0.0758623927831649,1.0,-0.009378043287866629,2.3512418270111084,0.0714285714285714,-4.286550258419694,26.93048821389675,10.0,4.3615079365079366,7.0,29.541425554936353,9.0
subject-04,1,59,1.02924013137817,bird,oven,0,0_oven_00_oven-0005-ILSVRC2012-val-00004125.png,False,0.4346353469220068,0.0758623927831649,1.0,-0.009378043287866629,2.3512418270111084,0.0714285714285714,-4.286550258419694,26.93048821389675,10.0,4.3615079365079366,7.0,29.541425554936353,9.0
subject-03,1,518,0.779415130615234,oven,oven,0,0_oven_00_oven-0005-ILSVRC2012-val-00004125.png,True,-0.6633438661545561,0.0758623927831649,1.0,-0.009378043287866629,2.3512418270111084,0.0714285714285714,-4.286550258419694,26.93048821389675,10.0,4.3615079365079366,7.0,29.541425554936353,9.0
subject-02,1,50,0.674014091491699,bear,bear,0,0_bear_00_bear-0069-ILSVRC2012-val-00018788.png,True,-1.0847838073039235,2.2198870182037354,1.0,-1.113946019517091,2.442103862762451,0.5,-1.9374590930869358,30.459604024887085,10.0,6.283333333333333,9.0,24.39276028783623,10.0
subject-01,1,715,0.897902011871338,bear,bear,0,0_bear_00_bear-0069-ILSVRC2012-val-00018788.png,True,0.6005082747682987,2.2198870182037354,1.0,-1.113946019517091,2.442103862762451,0.5,-1.9374590930869358,30.459604024887085,10.0,6.283333333333333,9.0,24.39276028783623,10.0
subject-05,1,227,1.0801899433136,bear,bear,0,0_bear_00_bear-0069-ILSVRC2012-val-00018788.png,True,0.896882106994037,2.2198870182037354,1.0,-1.113946019517091,2.442103862762451,0.5,-1.9374590930869358,30.459604024887085,10.0,6.283333333333333,9.0,24.39276028783623,10.0
subject-04,1,668,1.0415620803833,bear,bear,0,0_bear_00_bear-0069-ILSVRC2012-val-00018788.png,True,0.4825951853825934,2.2198870182037354,1.0,-1.113946019517091,2.442103862762451,0.5,-1.9374590930869358,30.459604024887085,10.0,6.283333333333333,9.0,24.39276028783623,10.0
subject-03,1,312,0.801680088043213,bear,bear,0,0_bear_00_bear-0069-ILSVRC2012-val-00018788.png,True,-0.5494401323649795,2.2198870182037354,1.0,-1.113946019517091,2.442103862762451,0.5,-1.9374590930869358,30.459604024887085,10.0,6.283333333333333,9.0,24.39276028783623,10.0
subject-02,1,51,1.22980403900146,truck,truck,0,0_truck_00_truck-0079-ILSVRC2012-val-00028914.png,True,1.7787356742769906,0.1419832110404968,1.0,-0.019280943805156,2.468526840209961,0.25,-2.299406279272573,26.4373596906662,9.0,5.3428571428571425,7.0,23.961387135976143,9.0
subject-01,1,558,0.470803022384644,truck,truck,0,0_truck_00_truck-0079-ILSVRC2012-val-00028914.png,True,-1.4246005661602117,0.1419832110404968,1.0,-0.019280943805156,2.468526840209961,0.25,-2.299406279272573,26.4373596906662,9.0,5.3428571428571425,7.0,23.961387135976143,9.0
subject-05,1,105,0.79883599281311,truck,truck,0,0_truck_00_truck-0079-ILSVRC2012-val-00028914.png,True,-0.5108885809605249,0.1419832110404968,1.0,-0.019280943805156,2.468526840209961,0.25,-2.299406279272573,26.4373596906662,9.0,5.3428571428571425,7.0,23.961387135976143,9.0
subject-04,1,45,0.762024164199829,truck,truck,0,0_truck_00_truck-0079-ILSVRC2012-val-00028914.png,True,-0.6054301990908261,0.1419832110404968,1.0,-0.019280943805156,2.468526840209961,0.25,-2.299406279272573,26.4373596906662,9.0,5.3428571428571425,7.0,23.961387135976143,9.0
subject-03,1,157,1.21790599822998,truck,truck,0,0_truck_00_truck-0079-ILSVRC2012-val-00028914.png,True,1.5799008027612214,0.1419832110404968,1.0,-0.019280943805156,2.468526840209961,0.25,-2.299406279272573,26.4373596906662,9.0,5.3428571428571425,7.0,23.961387135976143,9.0
subject-02,1,52,0.889542818069458,car,car,0,0_car_00_car-0110-ILSVRC2012-val-00006285.png,True,0.025654965763126418,0.075646162033081,1.0,-0.00955440611461428,2.392139434814453,0.0769230769230769,-4.002172750634999,26.30771428346634,9.0,3.0679945054945055,8.0,36.29268115168681,9.0
subject-01,1,523,0.575402021408081,car,car,0,0_car_00_car-0110-ILSVRC2012-val-00006285.png,True,-0.9286397634216834,0.075646162033081,1.0,-0.00955440611461428,2.392139434814453,0.0769230769230769,-4.002172750634999,26.30771428346634,9.0,3.0679945054945055,8.0,36.29268115168681,9.0
subject-05,1,389,1.37917399406433,car,car,0,0_car_00_car-0110-ILSVRC2012-val-00006285.png,True,2.3928660164577993,0.075646162033081,1.0,-0.00955440611461428,2.392139434814453,0.0769230769230769,-4.002172750634999,26.30771428346634,9.0,3.0679945054945055,8.0,36.29268115168681,9.0
subject-04,1,605,0.65044093132019,car,car,0,0_car_00_car-0110-ILSVRC2012-val-00006285.png,True,-1.0397376143860504,0.075646162033081,1.0,-0.00955440611461428,2.392139434814453,0.0769230769230769,-4.002172750634999,26.30771428346634,9.0,3.0679945054945055,8.0,36.29268115168681,9.0
subject-03,1,509,0.881055116653442,car,car,0,0_car_00_car-0110-ILSVRC2012-val-00006285.png,True,-0.1433709917611815,0.075646162033081,1.0,-0.00955440611461428,2.392139434814453,0.0769230769230769,-4.002172750634999,26.30771428346634,9.0,3.0679945054945055,8.0,36.29268115168681,9.0
subject-02,1,53,0.739690780639648,clock,bottle,0,0_bottle_00_bottle-0052-ILSVRC2012-val-00000252.png,False,-0.7464069084349801,1.7422255277633667,1.0,-0.5200880943683613,2.3966946601867676,0.1111111111111111,-3.1227165602033398,29.599312901496887,10.0,3.3427960927960925,9.0,30.139739417637685,9.0
subject-01,1,308,0.49335503578186,clock,bottle,0,0_bottle_00_bottle-0052-ILSVRC2012-val-00000252.png,False,-1.317669192320323,1.7422255277633667,1.0,-0.5200880943683613,2.3966946601867676,0.1111111111111111,-3.1227165602033398,29.599312901496887,10.0,3.3427960927960925,9.0,30.139739417637685,9.0
subject-05,1,321,0.723953008651733,clock,bottle,0,0_bottle_00_bottle-0052-ILSVRC2012-val-00000252.png,False,-0.8855699029800953,1.7422255277633667,1.0,-0.5200880943683613,2.3966946601867676,0.1111111111111111,-3.1227165602033398,29.599312901496887,10.0,3.3427960927960925,9.0,30.139739417637685,9.0
subject-04,1,98,0.979902029037476,clock,bottle,0,0_bottle_00_bottle-0052-ILSVRC2012-val-00000252.png,False,0.24260018939729494,1.7422255277633667,1.0,-0.5200880943683613,2.3966946601867676,0.1111111111111111,-3.1227165602033398,29.599312901496887,10.0,3.3427960927960925,9.0,30.139739417637685,9.0
subject-03,1,597,0.660268068313599,clock,bottle,0,0_bottle_00_bottle-0052-ILSVRC2012-val-00000252.png,False,-1.2728799638594348,1.7422255277633667,1.0,-0.5200880943683613,2.3966946601867676,0.1111111111111111,-3.1227165602033398,29.599312901496887,10.0,3.3427960927960925,9.0,30.139739417637685,9.0
subject-02,1,54,0.889062881469727,bird,bird,0,0_bird_00_bird-1256-ILSVRC2012-val-00005779.png,True,0.023182254967598244,1.111922264099121,0.5,-3.2045201363429103,2.4033000469207764,0.0769230769230769,-4.009873297754121,29.045759201049805,10.0,0.5912087912087908,10.0,43.344311714867565,7.0
subject-01,1,651,0.694010019302368,bird,bird,0,0_bird_00_bird-1256-ILSVRC2012-val-00005779.png,True,-0.36625466991156674,1.111922264099121,0.5,-3.2045201363429103,2.4033000469207764,0.0769230769230769,-4.009873297754121,29.045759201049805,10.0,0.5912087912087908,10.0,43.344311714867565,7.0
subject-05,1,372,0.69041895866394,bird,bird,0,0_bird_00_bird-1256-ILSVRC2012-val-00005779.png,True,-1.053359452539435,1.111922264099121,0.5,-3.2045201363429103,2.4033000469207764,0.0769230769230769,-4.009873297754121,29.045759201049805,10.0,0.5912087912087908,10.0,43.344311714867565,7.0
subject-04,1,92,1.50010704994202,bird,bird,0,0_bird_00_bird-1256-ILSVRC2012-val-00005779.png,True,2.267356886457259,1.111922264099121,0.5,-3.2045201363429103,2.4033000469207764,0.0769230769230769,-4.009873297754121,29.045759201049805,10.0,0.5912087912087908,10.0,43.344311714867565,7.0
subject-03,1,125,0.965450048446655,bottle,bird,0,0_bird_00_bird-1256-ILSVRC2012-val-00005779.png,False,0.28837911938359423,1.111922264099121,0.5,-3.2045201363429103,2.4033000469207764,0.0769230769230769,-4.009873297754121,29.045759201049805,10.0,0.5912087912087908,10.0,43.344311714867565,7.0
subject-02,1,55,1.05885195732117,chair,chair,0,0_chair_00_chair-0138-ILSVRC2012-val-00038750.png,True,0.8979629677866047,2.1488234996795654,0.1111111111111111,-3.9213201058247695,2.397468090057373,0.0909090909090909,-3.903096585853043,30.048694133758545,10.0,1.7301337551337548,0.0,35.39266022189805,6.0
subject-01,1,404,0.64143180847168,cat,chair,0,0_chair_00_chair-0138-ILSVRC2012-val-00038750.png,False,-0.6155565933869598,2.1488234996795654,0.1111111111111111,-3.9213201058247695,2.397468090057373,0.0909090909090909,-3.903096585853043,30.048694133758545,10.0,1.7301337551337548,0.0,35.39266022189805,6.0
subject-05,1,550,0.801935911178589,airplane,chair,0,0_chair_00_chair-0138-ILSVRC2012-val-00038750.png,False,-0.49537796096670433,2.1488234996795654,0.1111111111111111,-3.9213201058247695,2.397468090057373,0.0909090909090909,-3.903096585853043,30.048694133758545,10.0,1.7301337551337548,0.0,35.39266022189805,6.0
subject-04,1,361,1.33656597137451,cat,chair,0,0_chair_00_chair-0138-ILSVRC2012-val-00038750.png,False,1.6308176744784935,2.1488234996795654,0.1111111111111111,-3.9213201058247695,2.397468090057373,0.0909090909090909,-3.903096585853043,30.048694133758545,10.0,1.7301337551337548,0.0,35.39266022189805,6.0
subject-03,1,563,0.888849973678589,cat,chair,0,0_chair_00_chair-0138-ILSVRC2012-val-00038750.png,False,-0.10349382952576552,2.1488234996795654,0.1111111111111111,-3.9213201058247695,2.397468090057373,0.0909090909090909,-3.903096585853043,30.048694133758545,10.0,1.7301337551337548,0.0,35.39266022189805,6.0
subject-02,1,56,0.800768136978149,clock,bottle,0,0_bottle_00_bottle-0283-ILSVRC2012-val-00036864.png,False,-0.4317265142637892,0.1187195628881454,1.0,-0.015295600416751735,2.3858673572540283,0.1428571428571428,-2.8608983938823607,25.28603647649288,9.0,4.6459706959706955,7.0,25.36594820608025,9.0
subject-01,1,508,0.650126934051514,cat,bottle,0,0_bottle_00_bottle-0283-ILSVRC2012-val-00036864.png,False,-0.5743282689981145,0.1187195628881454,1.0,-0.015295600416751735,2.3858673572540283,0.1428571428571428,-2.8608983938823607,25.28603647649288,9.0,4.6459706959706955,7.0,25.36594820608025,9.0
subject-05,1,701,0.843653917312622,bottle,bottle,0,0_bottle_00_bottle-0283-ILSVRC2012-val-00036864.png,True,-0.28663951570610374,0.1187195628881454,1.0,-0.015295600416751735,2.3858673572540283,0.1428571428571428,-2.8608983938823607,25.28603647649288,9.0,4.6459706959706955,7.0,25.36594820608025,9.0
subject-04,1,204,1.01970100402832,car,bottle,0,0_bottle_00_bottle-0283-ILSVRC2012-val-00036864.png,False,0.39750688562393577,0.1187195628881454,1.0,-0.015295600416751735,2.3858673572540283,0.1428571428571428,-2.8608983938823607,25.28603647649288,9.0,4.6459706959706955,7.0,25.36594820608025,9.0
subject-03,1,645,0.747678995132446,cat,bottle,0,0_bottle_00_bottle-0283-ILSVRC2012-val-00036864.png,False,-0.8257005353390595,0.1187195628881454,1.0,-0.015295600416751735,2.3858673572540283,0.1428571428571428,-2.8608983938823607,25.28603647649288,9.0,4.6459706959706955,7.0,25.36594820608025,9.0
subject-02,1,57,0.590498924255371,cat,cat,0,0_cat_00_cat-0032-ILSVRC2012-val-00033420.png,True,-1.5150674233718686,0.1021179109811782,1.0,-0.012884837774386272,2.3357701301574707,0.1428571428571428,-2.8895642622579003,24.869073778390884,9.0,4.321067821067821,8.0,25.839570789184815,9.0
subject-01,1,61,0.476143836975098,cat,cat,0,0_cat_00_cat-0032-ILSVRC2012-val-00033420.png,True,-1.3992768564087859,0.1021179109811782,1.0,-0.012884837774386272,2.3357701301574707,0.1428571428571428,-2.8895642622579003,24.869073778390884,9.0,4.321067821067821,8.0,25.839570789184815,9.0
subject-05,1,186,0.685677051544189,cat,cat,0,0_cat_00_cat-0032-ILSVRC2012-val-00033420.png,True,-1.07708585778917,0.1021179109811782,1.0,-0.012884837774386272,2.3357701301574707,0.1428571428571428,-2.8895642622579003,24.869073778390884,9.0,4.321067821067821,8.0,25.839570789184815,9.0
subject-04,1,146,0.589330911636353,cat,cat,0,0_cat_00_cat-0032-ILSVRC2012-val-00033420.png,True,-1.277591761578182,0.1021179109811782,1.0,-0.012884837774386272,2.3357701301574707,0.1428571428571428,-2.8895642622579003,24.869073778390884,9.0,4.321067821067821,8.0,25.839570789184815,9.0
subject-03,1,133,0.581889152526855,cat,cat,0,0_cat_00_cat-0032-ILSVRC2012-val-00033420.png,True,-1.6738531607481977,0.1021179109811782,1.0,-0.012884837774386272,2.3357701301574707,0.1428571428571428,-2.8895642622579003,24.869073778390884,9.0,4.321067821067821,8.0,25.839570789184815,9.0
subject-02,1,58,0.944741010665894,bicycle,bicycle,0,0_bicycle_00_bicycle-0048-ILSVRC2012-val-00045400.png,True,0.310044959781818,0.1289725303649902,1.0,-0.017044073840858077,2.376063346862793,1.0,-1.7820024684982925,27.207892179489136,10.0,7.116666666666666,7.0,21.428389522605407,9.0
subject-01,1,435,0.597655057907104,bicycle,bicycle,0,0_bicycle_00_bicycle-0048-ILSVRC2012-val-00045400.png,True,-0.8231260018325092,0.1289725303649902,1.0,-0.017044073840858077,2.376063346862793,1.0,-1.7820024684982925,27.207892179489136,10.0,7.116666666666666,7.0,21.428389522605407,9.0
subject-05,1,491,0.797056913375854,bicycle,bicycle,0,0_bicycle_00_bicycle-0048-ILSVRC2012-val-00045400.png,True,-0.519790307340611,0.1289725303649902,1.0,-0.017044073840858077,2.376063346862793,1.0,-1.7820024684982925,27.207892179489136,10.0,7.116666666666666,7.0,21.428389522605407,9.0
subject-04,1,18,0.871113061904907,bicycle,bicycle,0,0_bicycle_00_bicycle-0048-ILSVRC2012-val-00045400.png,True,-0.18083130571763698,0.1289725303649902,1.0,-0.017044073840858077,2.376063346862793,1.0,-1.7820024684982925,27.207892179489136,10.0,7.116666666666666,7.0,21.428389522605407,9.0
subject-03,1,775,0.943246126174927,bicycle,bicycle,0,0_bicycle_00_bicycle-0048-ILSVRC2012-val-00045400.png,True,0.17478763106818448,0.1289725303649902,1.0,-0.017044073840858077,2.376063346862793,1.0,-1.7820024684982925,27.207892179489136,10.0,7.116666666666666,7.0,21.428389522605407,9.0
subject-02,1,59,1.408282995224,dog,dog,0,0_dog_00_dog-2290-ILSVRC2012-val-00036919.png,True,2.698288052806641,2.361057758331299,1.0,-1.4584081176408106,2.350247859954834,0.1428571428571428,-3.1130589107149063,30.370506763458252,10.0,3.5202380952380947,8.0,32.5049696190597,10.0
subject-01,1,81,0.846314907073975,oven,dog,0,0_dog_00_dog-2290-ILSVRC2012-val-00036919.png,False,0.35590572459930575,2.361057758331299,1.0,-1.4584081176408106,2.350247859954834,0.1428571428571428,-3.1130589107149063,30.370506763458252,10.0,3.5202380952380947,8.0,32.5049696190597,10.0
subject-05,1,528,0.856368064880371,oven,dog,0,0_dog_00_dog-2290-ILSVRC2012-val-00036919.png,False,-0.22302354643904101,2.361057758331299,1.0,-1.4584081176408106,2.350247859954834,0.1428571428571428,-3.1130589107149063,30.370506763458252,10.0,3.5202380952380947,8.0,32.5049696190597,10.0
subject-04,1,181,0.939800977706909,bear,dog,0,0_dog_00_dog-2290-ILSVRC2012-val-00036919.png,False,0.08651774309655061,2.361057758331299,1.0,-1.4584081176408106,2.350247859954834,0.1428571428571428,-3.1130589107149063,30.370506763458252,10.0,3.5202380952380947,8.0,32.5049696190597,10.0
subject-03,1,706,0.874377965927124,elephant,dog,0,0_dog_00_dog-2290-ILSVRC2012-val-00036919.png,False,-0.17753015875099434,2.361057758331299,1.0,-1.4584081176408106,2.350247859954834,0.1428571428571428,-3.1130589107149063,30.370506763458252,10.0,3.5202380952380947,8.0,32.5049696190597,10.0
subject-02,1,60,0.828011989593506,clock,clock,0,0_clock_00_clock-0052-ILSVRC2012-val-00003721.png,True,-0.29136179002410906,1.8298547267913816,0.3333333333333333,-2.50687683837207,2.4469923973083496,0.0833333333333333,-3.7194747488766016,29.74314308166504,10.0,0.8526556776556771,9.0,40.02022710895326,6.0
subject-01,1,463,0.960219144821167,bottle,clock,0,0_clock_00_clock-0052-ILSVRC2012-val-00003721.png,False,0.8959877303148629,1.8298547267913816,0.3333333333333333,-2.50687683837207,2.4469923973083496,0.0833333333333333,-3.7194747488766016,29.74314308166504,10.0,0.8526556776556771,9.0,40.02022710895326,6.0
subject-05,1,539,0.66998291015625,keyboard,clock,0,0_clock_00_clock-0052-ILSVRC2012-val-00003721.png,False,-1.1556123976840367,1.8298547267913816,0.3333333333333333,-2.50687683837207,2.4469923973083496,0.0833333333333333,-3.7194747488766016,29.74314308166504,10.0,0.8526556776556771,9.0,40.02022710895326,6.0
subject-04,1,770,0.736304998397827,clock,clock,0,0_clock_00_clock-0052-ILSVRC2012-val-00003721.png,True,-0.7055350637264073,1.8298547267913816,0.3333333333333333,-2.50687683837207,2.4469923973083496,0.0833333333333333,-3.7194747488766016,29.74314308166504,10.0,0.8526556776556771,9.0,40.02022710895326,6.0
subject-03,1,512,0.932352066040039,oven,clock,0,0_clock_00_clock-0052-ILSVRC2012-val-00003721.png,False,0.11905547305684248,1.8298547267913816,0.3333333333333333,-2.50687683837207,2.4469923973083496,0.0833333333333333,-3.7194747488766016,29.74314308166504,10.0,0.8526556776556771,9.0,40.02022710895326,6.0
subject-02,1,61,1.36586117744446,car,bicycle,0,0_bicycle_00_bicycle-0077-ILSVRC2012-val-00030112.png,False,2.4797240032046917,0.1408702731132507,1.0,-0.018648154748293847,2.489494800567627,0.2,-2.233844599549518,26.75035923719406,9.0,6.533333333333333,6.0,21.564947138985424,9.0
subject-01,1,466,1.17982888221741,knife,bicycle,0,0_bicycle_00_bicycle-0077-ILSVRC2012-val-00030112.png,False,1.9372770606633616,0.1408702731132507,1.0,-0.018648154748293847,2.489494800567627,0.2,-2.233844599549518,26.75035923719406,9.0,6.533333333333333,6.0,21.564947138985424,9.0
subject-05,1,141,1.36014795303345,knife,bicycle,0,0_bicycle_00_bicycle-0077-ILSVRC2012-val-00030112.png,False,2.2976681248929287,0.1408702731132507,1.0,-0.018648154748293847,2.489494800567627,0.2,-2.233844599549518,26.75035923719406,9.0,6.533333333333333,6.0,21.564947138985424,9.0
subject-04,1,104,0.710838079452515,bicycle,bicycle,0,0_bicycle_00_bicycle-0077-ILSVRC2012-val-00030112.png,True,-0.8046581260112401,0.1408702731132507,1.0,-0.018648154748293847,2.489494800567627,0.2,-2.233844599549518,26.75035923719406,9.0,6.533333333333333,6.0,21.564947138985424,9.0
subject-03,1,209,1.00912594795227,cat,bicycle,0,0_bicycle_00_bicycle-0077-ILSVRC2012-val-00030112.png,False,0.511817589742235,0.1408702731132507,1.0,-0.018648154748293847,2.489494800567627,0.2,-2.233844599549518,26.75035923719406,9.0,6.533333333333333,6.0,21.564947138985424,9.0
subject-02,1,62,0.951544046401978,car,car,0,0_car_00_car-0041-ILSVRC2012-val-00040706.png,True,0.3450952975064411,0.3073385953903198,1.0,-0.0519099345297965,2.364537477493286,0.1,-3.7279339556477855,26.360774219036102,9.0,3.023946886446886,8.0,36.66924586113949,9.0
subject-01,1,200,0.529924869537354,car,car,0,0_car_00_car-0041-ILSVRC2012-val-00040706.png,True,-1.144271700234138,0.3073385953903198,1.0,-0.0519099345297965,2.364537477493286,0.1,-3.7279339556477855,26.360774219036102,9.0,3.023946886446886,8.0,36.66924586113949,9.0
subject-05,1,246,0.648832082748413,car,car,0,0_car_00_car-0041-ILSVRC2012-val-00040706.png,True,-1.2614417802030038,0.3073385953903198,1.0,-0.0519099345297965,2.364537477493286,0.1,-3.7279339556477855,26.360774219036102,9.0,3.023946886446886,8.0,36.66924586113949,9.0
subject-04,1,135,0.926953077316284,car,car,0,0_car_00_car-0041-ILSVRC2012-val-00040706.png,True,0.03651078177610083,0.3073385953903198,1.0,-0.0519099345297965,2.364537477493286,0.1,-3.7279339556477855,26.360774219036102,9.0,3.023946886446886,8.0,36.66924586113949,9.0
subject-03,1,547,0.921902894973755,car,car,0,0_car_00_car-0041-ILSVRC2012-val-00040706.png,True,0.0655992918220153,0.3073385953903198,1.0,-0.0519099345297965,2.364537477493286,0.1,-3.7279339556477855,26.360774219036102,9.0,3.023946886446886,8.0,36.66924586113949,9.0
subject-02,1,63,0.774161815643311,clock,clock,0,0_clock_00_clock-0039-ILSVRC2012-val-00033429.png,True,-0.5688065744859515,2.386061906814575,0.25,-2.4152030428885722,2.293954849243164,0.0909090909090909,-3.7315717313562655,29.897183895111084,4.0,0.7856893106893104,8.0,40.153415415646826,6.0
subject-01,1,495,0.560567855834961,clock,clock,0,0_clock_00_clock-0039-ILSVRC2012-val-00033429.png,True,-0.9989766187863542,2.386061906814575,0.25,-2.4152030428885722,2.293954849243164,0.0909090909090909,-3.7315717313562655,29.897183895111084,4.0,0.7856893106893104,8.0,40.153415415646826,6.0
subject-05,1,717,0.810812950134277,clock,clock,0,0_clock_00_clock-0039-ILSVRC2012-val-00033429.png,True,-0.4509611855298632,2.386061906814575,0.25,-2.4152030428885722,2.293954849243164,0.0909090909090909,-3.7315717313562655,29.897183895111084,4.0,0.7856893106893104,8.0,40.153415415646826,6.0
subject-04,1,594,0.622622013092041,clock,clock,0,0_clock_00_clock-0039-ILSVRC2012-val-00033429.png,True,-1.148015194808989,2.386061906814575,0.25,-2.4152030428885722,2.293954849243164,0.0909090909090909,-3.7315717313562655,29.897183895111084,4.0,0.7856893106893104,8.0,40.153415415646826,6.0
subject-03,1,684,0.650293111801147,clock,clock,0,0_clock_00_clock-0039-ILSVRC2012-val-00033429.png,True,-1.3239101441250913,2.386061906814575,0.25,-2.4152030428885722,2.293954849243164,0.0909090909090909,-3.7315717313562655,29.897183895111084,4.0,0.7856893106893104,8.0,40.153415415646826,6.0
subject-02,1,64,0.881124019622803,oven,oven,0,0_oven_00_oven-0039-ILSVRC2012-val-00038382.png,True,-0.017720042136016082,0.0267614498734474,1.0,-0.002810310716485047,2.3913958072662354,0.0666666666666666,-4.545903532790663,25.217518389225006,9.0,4.975,6.0,29.427973239826354,6.0
subject-01,1,288,0.999672889709473,oven,oven,0,0_oven_00_oven-0039-ILSVRC2012-val-00038382.png,True,1.08305941521178,0.0267614498734474,1.0,-0.002810310716485047,2.3913958072662354,0.0666666666666666,-4.545903532790663,25.217518389225006,9.0,4.975,6.0,29.427973239826354,6.0
subject-05,1,67,0.9599289894104,oven,oven,0,0_oven_00_oven-0039-ILSVRC2012-val-00038382.png,True,0.29514950111017213,0.0267614498734474,1.0,-0.002810310716485047,2.3913958072662354,0.0666666666666666,-4.545903532790663,25.217518389225006,9.0,4.975,6.0,29.427973239826354,6.0
subject-04,1,170,0.757998943328857,oven,oven,0,0_oven_00_oven-0039-ILSVRC2012-val-00038382.png,True,-0.6210972776235834,0.0267614498734474,1.0,-0.002810310716485047,2.3913958072662354,0.0666666666666666,-4.545903532790663,25.217518389225006,9.0,4.975,6.0,29.427973239826354,6.0
subject-03,1,569,0.991716861724854,cat,oven,0,0_oven_00_oven-0039-ILSVRC2012-val-00038382.png,False,0.42275566678182863,0.0267614498734474,1.0,-0.002810310716485047,2.3913958072662354,0.0666666666666666,-4.545903532790663,25.217518389225006,9.0,4.975,6.0,29.427973239826354,6.0
subject-02,1,65,,na,airplane,0,0_airplane_00_airplane-0016-ILSVRC2012-val-00018685.png,False,,2.4020020961761475,0.25,-2.125095366181066,2.369497776031494,0.3333333333333333,-1.916851542129167,30.286792516708374,9.0,2.638888888888889,3.0,30.828482863392658,3.0
subject-01,1,353,0.673333883285522,airplane,airplane,0,0_airplane_00_airplane-0016-ILSVRC2012-val-00018685.png,True,-0.4642914877796638,2.4020020961761475,0.25,-2.125095366181066,2.369497776031494,0.3333333333333333,-1.916851542129167,30.286792516708374,9.0,2.638888888888889,3.0,30.828482863392658,3.0
subject-05,1,799,0.627315998077393,airplane,airplane,0,0_airplane_00_airplane-0016-ILSVRC2012-val-00018685.png,True,-1.3690987484649713,2.4020020961761475,0.25,-2.125095366181066,2.369497776031494,0.3333333333333333,-1.916851542129167,30.286792516708374,9.0,2.638888888888889,3.0,30.828482863392658,3.0
subject-04,1,52,0.66656494140625,cat,airplane,0,0_airplane_00_airplane-0016-ILSVRC2012-val-00018685.png,False,-0.9769792862398808,2.4020020961761475,0.25,-2.125095366181066,2.369497776031494,0.3333333333333333,-1.916851542129167,30.286792516708374,9.0,2.638888888888889,3.0,30.828482863392658,3.0
subject-03,1,734,0.814883947372437,keyboard,airplane,0,0_airplane_00_airplane-0016-ILSVRC2012-val-00018685.png,False,-0.48189143469080364,2.4020020961761475,0.25,-2.125095366181066,2.369497776031494,0.3333333333333333,-1.916851542129167,30.286792516708374,9.0,2.638888888888889,3.0,30.828482863392658,3.0
subject-02,1,66,1.20465397834778,car,truck,0,0_truck_00_truck-0330-ILSVRC2012-val-00031256.png,False,1.6491585040395078,1.8028427362442017,0.0909090909090909,-4.317038222036365,2.363973617553711,0.1666666666666666,-2.923335290446216,29.422637820243835,10.0,0.8800324675324672,0.0,36.956598045976655,0.0
subject-01,1,106,0.739938974380493,car,truck,0,0_truck_00_truck-0330-ILSVRC2012-val-00031256.png,False,-0.14848048811098666,1.8028427362442017,0.0909090909090909,-4.317038222036365,2.363973617553711,0.1666666666666666,-2.923335290446216,29.422637820243835,10.0,0.8800324675324672,0.0,36.956598045976655,0.0
subject-05,1,666,1.41235113143921,elephant,truck,0,0_truck_00_truck-0330-ILSVRC2012-val-00031256.png,False,2.5588697332121395,1.8028427362442017,0.0909090909090909,-4.317038222036365,2.363973617553711,0.1666666666666666,-2.923335290446216,29.422637820243835,10.0,0.8800324675324672,0.0,36.956598045976655,0.0
subject-04,1,687,1.0338089466095,car,truck,0,0_truck_00_truck-0330-ILSVRC2012-val-00031256.png,False,0.45241821880044314,1.8028427362442017,0.0909090909090909,-4.317038222036365,2.363973617553711,0.1666666666666666,-2.923335290446216,29.422637820243835,10.0,0.8800324675324672,0.0,36.956598045976655,0.0
subject-03,1,210,1.27330994606018,boat,truck,0,0_truck_00_truck-0330-ILSVRC2012-val-00031256.png,False,1.8633379728054997,1.8028427362442017,0.0909090909090909,-4.317038222036365,2.363973617553711,0.1666666666666666,-2.923335290446216,29.422637820243835,10.0,0.8800324675324672,0.0,36.956598045976655,0.0
subject-02,1,67,0.722602128982544,clock,bottle,0,0_bottle_00_bottle-0222-ILSVRC2012-val-00018657.png,False,-0.8344503988818959,1.3369815349578855,1.0,-0.3615829964488536,2.386895656585694,0.1428571428571428,-3.178003465691432,28.900442361831665,10.0,2.5487484737484736,10.0,31.523281362873426,10.0
subject-01,1,531,0.870408058166504,cat,bottle,0,0_bottle_00_bottle-0222-ILSVRC2012-val-00018657.png,False,0.47014447131689047,1.3369815349578855,1.0,-0.3615829964488536,2.386895656585694,0.1428571428571428,-3.178003465691432,28.900442361831665,10.0,2.5487484737484736,10.0,31.523281362873426,10.0
subject-05,1,612,0.736325979232788,oven,bottle,0,0_bottle_00_bottle-0222-ILSVRC2012-val-00018657.png,False,-0.8236610324063977,1.3369815349578855,1.0,-0.3615829964488536,2.386895656585694,0.1428571428571428,-3.178003465691432,28.900442361831665,10.0,2.5487484737484736,10.0,31.523281362873426,10.0
subject-04,1,78,1.49999284744263,chair,bottle,0,0_bottle_00_bottle-0222-ILSVRC2012-val-00018657.png,False,2.266912384258763,1.3369815349578855,1.0,-0.3615829964488536,2.386895656585694,0.1428571428571428,-3.178003465691432,28.900442361831665,10.0,2.5487484737484736,10.0,31.523281362873426,10.0
subject-03,1,646,0.659696102142334,cat,bottle,0,0_bottle_00_bottle-0222-ILSVRC2012-val-00018657.png,False,-1.2758060454708258,1.3369815349578855,1.0,-0.3615829964488536,2.386895656585694,0.1428571428571428,-3.178003465691432,28.900442361831665,10.0,2.5487484737484736,10.0,31.523281362873426,10.0
subject-02,1,68,0.580470085144043,cat,cat,0,0_cat_00_cat-0185-ILSVRC2012-val-00038168.png,True,-1.5667376205418597,2.376905918121338,0.3333333333333333,-1.9099814366727716,2.3999524116516113,0.0666666666666666,-4.338114103897538,29.808943033218384,9.0,0.5509920634920631,10.0,41.766723531814336,10.0
subject-01,1,360,0.605710983276367,cat,cat,0,0_cat_00_cat-0185-ILSVRC2012-val-00038168.png,True,-0.7849284736511345,2.376905918121338,0.3333333333333333,-1.9099814366727716,2.3999524116516113,0.0666666666666666,-4.338114103897538,29.808943033218384,9.0,0.5509920634920631,10.0,41.766723531814336,10.0
subject-05,1,371,0.786401033401489,cat,cat,0,0_cat_00_cat-0185-ILSVRC2012-val-00038168.png,True,-0.5731076162164533,2.376905918121338,0.3333333333333333,-1.9099814366727716,2.3999524116516113,0.0666666666666666,-4.338114103897538,29.808943033218384,9.0,0.5509920634920631,10.0,41.766723531814336,10.0
subject-04,1,420,0.667418956756592,cat,cat,0,0_cat_00_cat-0185-ILSVRC2012-val-00038168.png,True,-0.9736552635363124,2.376905918121338,0.3333333333333333,-1.9099814366727716,2.3999524116516113,0.0666666666666666,-4.338114103897538,29.808943033218384,9.0,0.5509920634920631,10.0,41.766723531814336,10.0
subject-03,1,478,0.695819139480591,cat,cat,0,0_cat_00_cat-0185-ILSVRC2012-val-00038168.png,True,-1.0910067328308977,2.376905918121338,0.3333333333333333,-1.9099814366727716,2.3999524116516113,0.0666666666666666,-4.338114103897538,29.808943033218384,9.0,0.5509920634920631,10.0,41.766723531814336,10.0
subject-02,1,69,0.542423963546753,clock,clock,0,0_clock_00_clock-0029-ILSVRC2012-val-00022719.png,True,-1.7627573774312604,0.0695865526795387,1.0,-0.008366258176133023,2.4162635803222656,0.0833333333333333,-3.885326623290732,25.557602278888226,9.0,4.258170995670995,7.0,32.84037727993555,6.0
subject-01,1,35,0.493013143539429,clock,clock,0,0_clock_00_clock-0029-ILSVRC2012-val-00022719.png,True,-1.3192902895831007,0.0695865526795387,1.0,-0.008366258176133023,2.4162635803222656,0.0833333333333333,-3.885326623290732,25.557602278888226,9.0,4.258170995670995,7.0,32.84037727993555,6.0
subject-05,1,760,0.742441892623901,clock,clock,0,0_clock_00_clock-0029-ILSVRC2012-val-00022719.png,True,-0.7930597076808621,0.0695865526795387,1.0,-0.008366258176133023,2.4162635803222656,0.0833333333333333,-3.885326623290732,25.557602278888226,9.0,4.258170995670995,7.0,32.84037727993555,6.0
