subject_id,Session,trial,rt,object_response,category,condition,item_id,response_correct,rt_zscore,output_entropy,output_rank_correct,output_logprob_correct,midpoint_entropy,midpoint_rank_correct,midpoint_logprob_correct,auc_entropy,layer_biggest_change_entropy,auc_rank_correct,layer_biggest_change_rank_correct,auc_logprob_correct,layer_biggest_change_logprob_correct
subject-04,1,1,0.906422853469849,cat,cat,c01,c01_cat_10_n02123159_386.png,True,0.937533727695546,1.614069938659668,0.3333333333333333,-2.791945078289717,2.640293598175049,0.0833333333333333,-3.08001297040006,29.049811840057373,9.0,0.576501276501276,10.0,40.84162037731613,10.0
subject-03,1,817,1.08768010139465,bear,cat,c01,c01_cat_10_n02123159_386.png,False,0.900967196701495,1.614069938659668,0.3333333333333333,-2.791945078289717,2.640293598175049,0.0833333333333333,-3.08001297040006,29.049811840057373,9.0,0.576501276501276,10.0,40.84162037731613,10.0
subject-02,1,472,0.737253904342651,bicycle,cat,c01,c01_cat_10_n02123159_386.png,False,-0.4677373897483177,1.614069938659668,0.3333333333333333,-2.791945078289717,2.640293598175049,0.0833333333333333,-3.08001297040006,29.049811840057373,9.0,0.576501276501276,10.0,40.84162037731613,10.0
subject-01,1,233,1.0562539100647,cat,cat,c01,c01_cat_10_n02123159_386.png,True,0.7485023965693427,1.614069938659668,0.3333333333333333,-2.791945078289717,2.640293598175049,0.0833333333333333,-3.08001297040006,29.049811840057373,9.0,0.576501276501276,10.0,40.84162037731613,10.0
subject-04,1,2,0.712171077728271,boat,oven,c10,c10_oven_10_n04111531_6128.png,False,-0.07328213585191518,1.8119356632232664,1.0,-0.9526875650863305,2.629610776901245,0.0625,-5.274615235312751,30.366235733032227,10.0,1.23525641025641,10.0,42.44547752051365,10.0
subject-03,1,1135,0.84286904335022,bear,oven,c10,c10_oven_10_n04111531_6128.png,False,-0.09982571690167372,1.8119356632232664,1.0,-0.9526875650863305,2.629610776901245,0.0625,-5.274615235312751,30.366235733032227,10.0,1.23525641025641,10.0,42.44547752051365,10.0
subject-02,1,586,0.90288782119751,truck,oven,c10,c10_oven_10_n04111531_6128.png,False,0.3060469579683924,1.8119356632232664,1.0,-0.9526875650863305,2.629610776901245,0.0625,-5.274615235312751,30.366235733032227,10.0,1.23525641025641,10.0,42.44547752051365,10.0
subject-01,1,1076,1.26679587364197,keyboard,oven,c10,c10_oven_10_n04111531_6128.png,False,1.8474588658738536,1.8119356632232664,1.0,-0.9526875650863305,2.629610776901245,0.0625,-5.274615235312751,30.366235733032227,10.0,1.23525641025641,10.0,42.44547752051365,10.0
subject-04,1,3,0.693978071212769,airplane,airplane,c15,c15_airplane_10_n02690373_1933.png,True,-0.1679519504329492,0.1276812553405761,1.0,-0.01931041527864024,2.5254993438720703,1.0,-1.5503404472311741,25.109483309090137,9.0,7.715811965811966,3.0,21.018219748779426,9.0
subject-03,1,203,0.579658985137939,airplane,airplane,c15,c15_airplane_10_n02690373_1933.png,True,-1.1758341421425025,0.1276812553405761,1.0,-0.01931041527864024,2.5254993438720703,1.0,-1.5503404472311741,25.109483309090137,9.0,7.715811965811966,3.0,21.018219748779426,9.0
subject-02,1,454,0.866344928741455,boat,airplane,c15,c15_airplane_10_n02690373_1933.png,False,0.1353312088047215,0.1276812553405761,1.0,-0.01931041527864024,2.5254993438720703,1.0,-1.5503404472311741,25.109483309090137,9.0,7.715811965811966,3.0,21.018219748779426,9.0
subject-01,1,457,1.0973219871521,airplane,airplane,c15,c15_airplane_10_n02690373_1933.png,True,0.9628636014819729,0.1276812553405761,1.0,-0.01931041527864024,2.5254993438720703,1.0,-1.5503404472311741,25.109483309090137,9.0,7.715811965811966,3.0,21.018219748779426,9.0
subject-04,1,4,1.01393890380859,cat,clock,c01,c01_clock_10_n04548280_2374.png,False,1.497008300596992,1.881531238555908,0.5,-1.587341987912431,2.6696276664733887,0.2,-2.6717893957152987,29.98415184020996,9.0,1.7880952380952377,6.0,35.05580587057014,9.0
subject-03,1,392,1.0634241104126,truck,clock,c01,c01_clock_10_n04548280_2374.png,False,0.8018081796163589,1.881531238555908,0.5,-1.587341987912431,2.6696276664733887,0.2,-2.6717893957152987,29.98415184020996,9.0,1.7880952380952377,6.0,35.05580587057014,9.0
subject-02,1,123,0.675333023071289,clock,clock,c01,c01_clock_10_n04548280_2374.png,True,-0.7570103214908552,1.881531238555908,0.5,-1.587341987912431,2.6696276664733887,0.2,-2.6717893957152987,29.98415184020996,9.0,1.7880952380952377,6.0,35.05580587057014,9.0
subject-01,1,368,0.855435848236084,clock,clock,c01,c01_clock_10_n04548280_2374.png,True,-0.2996986577480604,1.881531238555908,0.5,-1.587341987912431,2.6696276664733887,0.2,-2.6717893957152987,29.98415184020996,9.0,1.7880952380952377,6.0,35.05580587057014,9.0
subject-04,1,5,1.3655800819397,knife,bottle,c15,c15_bottle_10_n04591713_6842.png,False,3.326821592004473,1.9851731061935425,0.1428571428571428,-3.3133303680412594,2.6162450313568115,0.25,-2.602930804123402,30.58117640018463,10.0,1.2797619047619044,7.0,34.148910644190615,0.0
subject-03,1,80,1.39283800125122,car,bottle,c15,c15_bottle_10_n04591713_6842.png,False,2.1484593081528276,1.9851731061935425,0.1428571428571428,-3.3133303680412594,2.6162450313568115,0.25,-2.602930804123402,30.58117640018463,10.0,1.2797619047619044,7.0,34.148910644190615,0.0
subject-02,1,1157,0.951030969619751,car,bottle,c15,c15_bottle_10_n04591713_6842.png,False,0.530955089142854,1.9851731061935425,0.1428571428571428,-3.3133303680412594,2.6162450313568115,0.25,-2.602930804123402,30.58117640018463,10.0,1.2797619047619044,7.0,34.148910644190615,0.0
subject-01,1,525,0.705161094665527,oven,bottle,c15,c15_bottle_10_n04591713_6842.png,False,-1.0840810668581353,1.9851731061935425,0.1428571428571428,-3.3133303680412594,2.6162450313568115,0.25,-2.602930804123402,30.58117640018463,10.0,1.2797619047619044,7.0,34.148910644190615,0.0
subject-04,1,6,1.12531495094299,bear,dog,c10,c10_dog_10_n02110806_642.png,False,2.076568898346341,1.7497212886810305,0.3333333333333333,-2.0972535373292747,2.641730785369873,0.125,-2.926579882959149,29.87462043762207,9.0,0.9436868686868687,8.0,35.55124621296866,10.0
subject-03,1,754,0.715999841690063,car,dog,c10,c10_dog_10_n02110806_642.png,False,-0.6184697642344255,1.7497212886810305,0.3333333333333333,-2.0972535373292747,2.641730785369873,0.125,-2.926579882959149,29.87462043762207,9.0,0.9436868686868687,8.0,35.55124621296866,10.0
subject-02,1,366,0.738894939422607,dog,dog,c10,c10_dog_10_n02110806_642.png,True,-0.4600710416776103,1.7497212886810305,0.3333333333333333,-2.0972535373292747,2.641730785369873,0.125,-2.926579882959149,29.87462043762207,9.0,0.9436868686868687,8.0,35.55124621296866,10.0
subject-01,1,1256,0.637929201126099,cat,dog,c10,c10_dog_10_n02110806_642.png,False,-1.4350083741435091,1.7497212886810305,0.3333333333333333,-2.0972535373292747,2.641730785369873,0.125,-2.926579882959149,29.87462043762207,9.0,0.9436868686868687,8.0,35.55124621296866,10.0
subject-04,1,7,0.711137056350708,bear,bear,c100,c100_bear_10_n02132136_14778.png,True,-0.07866280847484346,0.0303263030946254,1.0,-0.0032304195199017974,2.435619354248047,1.0,-1.4900813210148207,24.20141459815204,9.0,8.916666666666666,4.0,15.750761633420701,9.0
subject-03,1,355,0.980437994003296,bear,bear,c100,c100_bear_10_n02132136_14778.png,True,0.46255913632025775,0.0303263030946254,1.0,-0.0032304195199017974,2.435619354248047,1.0,-1.4900813210148207,24.20141459815204,9.0,8.916666666666666,4.0,15.750761633420701,9.0
subject-02,1,317,0.936686992645264,bear,bear,c100,c100_bear_10_n02132136_14778.png,True,0.46394499195006217,0.0303263030946254,1.0,-0.0032304195199017974,2.435619354248047,1.0,-1.4900813210148207,24.20141459815204,9.0,8.916666666666666,4.0,15.750761633420701,9.0
subject-01,1,1085,0.938987970352173,bear,bear,c100,c100_bear_10_n02132136_14778.png,True,0.13641461660115495,0.0303263030946254,1.0,-0.0032304195199017974,2.435619354248047,1.0,-1.4900813210148207,24.20141459815204,9.0,8.916666666666666,4.0,15.750761633420701,9.0
subject-04,1,8,0.649130821228027,bear,bear,c100,c100_bear_10_n02134084_1207.png,True,-0.4013207911964102,0.0451950281858444,1.0,-0.00506573334491075,2.4166507720947266,1.0,-1.583970021903989,24.29278904851526,9.0,9.75,4.0,15.187650858985272,9.0
subject-03,1,846,1.10625982284546,bear,bear,c100,c100_bear_10_n02134084_1207.png,True,0.9769215008625305,0.0451950281858444,1.0,-0.00506573334491075,2.4166507720947266,1.0,-1.583970021903989,24.29278904851526,9.0,9.75,4.0,15.187650858985272,9.0
subject-02,1,506,0.627417087554932,bear,bear,c100,c100_bear_10_n02134084_1207.png,True,-0.9808569925881134,0.0451950281858444,1.0,-0.00506573334491075,2.4166507720947266,1.0,-1.583970021903989,24.29278904851526,9.0,9.75,4.0,15.187650858985272,9.0
subject-01,1,1012,0.859711885452271,bear,bear,c100,c100_bear_10_n02134084_1207.png,True,-0.27737921756676426,0.0451950281858444,1.0,-0.00506573334491075,2.4166507720947266,1.0,-1.583970021903989,24.29278904851526,9.0,9.75,4.0,15.187650858985272,9.0
subject-04,1,9,1.13689112663269,bottle,bottle,c50,c50_bottle_10_n04560804_5756.png,True,2.1368071225874825,0.2913056015968323,1.0,-0.044340465218402014,2.6085293292999268,0.1111111111111111,-2.8964146830289943,28.18035727739334,10.0,3.4635642135642133,8.0,30.060864959258197,9.0
subject-03,1,520,1.39418077468872,bottle,bottle,c50,c50_bottle_10_n04560804_5756.png,True,2.1539485950811192,0.2913056015968323,1.0,-0.044340465218402014,2.6085293292999268,0.1111111111111111,-2.8964146830289943,28.18035727739334,10.0,3.4635642135642133,8.0,30.060864959258197,9.0
subject-02,1,946,1.141930103302,bottle,bottle,c50,c50_bottle_10_n04560804_5756.png,True,1.4227697877316883,0.2913056015968323,1.0,-0.044340465218402014,2.6085293292999268,0.1111111111111111,-2.8964146830289943,28.18035727739334,10.0,3.4635642135642133,8.0,30.060864959258197,9.0
subject-01,1,231,1.2946400642395,keyboard,bottle,c50,c50_bottle_10_n04560804_5756.png,False,1.992795942007245,0.2913056015968323,1.0,-0.044340465218402014,2.6085293292999268,0.1111111111111111,-2.8964146830289943,28.18035727739334,10.0,3.4635642135642133,8.0,30.060864959258197,9.0
subject-04,1,10,1.10082697868347,oven,elephant,c01,c01_elephant_10_n02504013_3599.png,False,1.9491423626993103,1.6745082139968872,0.3333333333333333,-2.0300807435680244,2.633671283721924,0.125,-2.8415720740587807,29.3294278383255,9.0,2.347161172161172,1.0,33.693082426287965,10.0
subject-03,1,713,1.42168307304382,oven,elephant,c01,c01_elephant_10_n02504013_3599.png,False,2.2663785870980186,1.6745082139968872,0.3333333333333333,-2.0300807435680244,2.633671283721924,0.125,-2.8415720740587807,29.3294278383255,9.0,2.347161172161172,1.0,33.693082426287965,10.0
subject-02,1,1139,1.23053979873657,cat,elephant,c01,c01_elephant_10_n02504013_3599.png,False,1.8367236245131782,1.6745082139968872,0.3333333333333333,-2.0300807435680244,2.633671283721924,0.125,-2.8415720740587807,29.3294278383255,9.0,2.347161172161172,1.0,33.693082426287965,10.0
subject-01,1,950,0.746545076370239,clock,elephant,c01,c01_elephant_10_n02504013_3599.png,False,-0.8680709487455925,1.6745082139968872,0.3333333333333333,-2.0300807435680244,2.633671283721924,0.125,-2.8415720740587807,29.3294278383255,9.0,2.347161172161172,1.0,33.693082426287965,10.0
subject-04,1,11,1.02257609367371,bottle,bottle,c100,c100_bottle_10_n02823428_6050.png,True,1.541953107401484,0.2537780106067657,1.0,-0.039403687541304765,2.548325300216675,0.1666666666666666,-2.9860589455523487,26.247411638498306,9.0,3.46541514041514,8.0,28.858692086457896,9.0
subject-03,1,1206,0.782783031463623,bottle,bottle,c100,c100_bottle_10_n02823428_6050.png,True,-0.34545863635855734,0.2537780106067657,1.0,-0.039403687541304765,2.548325300216675,0.1666666666666666,-2.9860589455523487,26.247411638498306,9.0,3.46541514041514,8.0,28.858692086457896,9.0
subject-02,1,96,1.01630997657776,bottle,bottle,c100,c100_bottle_10_n02823428_6050.png,True,0.8359160221313546,0.2537780106067657,1.0,-0.039403687541304765,2.548325300216675,0.1666666666666666,-2.9860589455523487,26.247411638498306,9.0,3.46541514041514,8.0,28.858692086457896,9.0
subject-01,1,53,0.975738048553467,bottle,bottle,c100,c100_bottle_10_n02823428_6050.png,True,0.328237355881045,0.2537780106067657,1.0,-0.039403687541304765,2.548325300216675,0.1666666666666666,-2.9860589455523487,26.247411638498306,9.0,3.46541514041514,8.0,28.858692086457896,9.0
subject-04,1,12,1.03438305854797,cat,bicycle,c01,c01_bicycle_10_n02835271_1436.png,False,1.603392274944163,1.4060068130493164,0.3333333333333333,-3.183693910614507,2.6325371265411377,0.25,-2.4936940349837977,28.72069478034973,9.0,1.9416666666666662,10.0,32.585702641647636,10.0
subject-03,1,84,1.19443011283875,oven,bicycle,c01,c01_bicycle_10_n02835271_1436.png,False,1.337363558180082,1.4060068130493164,0.3333333333333333,-3.183693910614507,2.6325371265411377,0.25,-2.4936940349837977,28.72069478034973,9.0,1.9416666666666662,10.0,32.585702641647636,10.0
subject-02,1,1160,0.776505947113037,knife,bicycle,c01,c01_bicycle_10_n02835271_1436.png,False,-0.28436542772289325,1.4060068130493164,0.3333333333333333,-3.183693910614507,2.6325371265411377,0.25,-2.4936940349837977,28.72069478034973,9.0,1.9416666666666662,10.0,32.585702641647636,10.0
subject-01,1,265,0.656836986541748,cat,bicycle,c01,c01_bicycle_10_n02835271_1436.png,False,-1.336316252393998,1.4060068130493164,0.3333333333333333,-3.183693910614507,2.6325371265411377,0.25,-2.4936940349837977,28.72069478034973,9.0,1.9416666666666662,10.0,32.585702641647636,10.0
subject-04,1,13,0.816271066665649,boat,boat,c30,c30_boat_10_n04273569_10099.png,True,0.4684164911557664,0.2798011302947998,1.0,-0.05037117779844766,2.4530019760131836,0.3333333333333333,-2.0841301095645224,25.510360032320023,9.0,5.994047619047619,7.0,22.113470864043983,9.0
subject-03,1,990,0.938277006149292,airplane,boat,c30,c30_boat_10_n04273569_10099.png,False,0.2902041037827212,0.2798011302947998,1.0,-0.05037117779844766,2.4530019760131836,0.3333333333333333,-2.0841301095645224,25.510360032320023,9.0,5.994047619047619,7.0,22.113470864043983,9.0
subject-02,1,660,0.694689989089966,boat,boat,c30,c30_boat_10_n04273569_10099.png,True,-0.6665812740532973,0.2798011302947998,1.0,-0.05037117779844766,2.4530019760131836,0.3333333333333333,-2.0841301095645224,25.510360032320023,9.0,5.994047619047619,7.0,22.113470864043983,9.0
subject-01,1,693,1.22183704376221,car,boat,c30,c30_boat_10_n04273569_10099.png,False,1.6127892726524038,0.2798011302947998,1.0,-0.05037117779844766,2.4530019760131836,0.3333333333333333,-2.0841301095645224,25.510360032320023,9.0,5.994047619047619,7.0,22.113470864043983,9.0
subject-04,1,14,0.696114063262939,airplane,airplane,c30,c30_airplane_10_n02690373_6138.png,True,-0.15683702167371122,0.0527934916317462,1.0,-0.006140389496513064,2.456371307373047,1.0,-1.532456218501828,24.67935809865594,9.0,7.805555555555555,3.0,20.47507301677315,8.0
subject-03,1,858,0.722406148910522,airplane,airplane,c30,c30_airplane_10_n02690373_6138.png,True,-0.5922806414071528,0.0527934916317462,1.0,-0.006140389496513064,2.456371307373047,1.0,-1.532456218501828,24.67935809865594,9.0,7.805555555555555,3.0,20.47507301677315,8.0
subject-02,1,1225,0.53040599822998,airplane,airplane,c30,c30_airplane_10_n02690373_6138.png,True,-1.4340592346166812,0.0527934916317462,1.0,-0.006140389496513064,2.456371307373047,1.0,-1.532456218501828,24.67935809865594,9.0,7.805555555555555,3.0,20.47507301677315,8.0
subject-01,1,648,0.689938068389893,airplane,airplane,c30,c30_airplane_10_n02690373_6138.png,True,-1.1635400161514469,0.0527934916317462,1.0,-0.006140389496513064,2.456371307373047,1.0,-1.532456218501828,24.67935809865594,9.0,7.805555555555555,3.0,20.47507301677315,8.0
subject-04,1,15,0.917696952819824,airplane,airplane,c100,c100_airplane_10_n02690373_5007.png,True,0.9962000561070069,0.0136815458536148,1.0,-0.0013326938249145505,2.413130283355713,1.0,-1.547774717805705,24.218196765054017,9.0,7.684498834498834,3.0,21.056425771705932,8.0
subject-03,1,642,0.859397172927856,airplane,airplane,c100,c100_airplane_10_n02690373_5007.png,True,-0.032258364803505524,0.0136815458536148,1.0,-0.0013326938249145505,2.413130283355713,1.0,-1.547774717805705,24.218196765054017,9.0,7.684498834498834,3.0,21.056425771705932,8.0
subject-02,1,968,0.582782983779907,airplane,airplane,c100,c100_airplane_10_n02690373_5007.png,True,-1.1893720813530657,0.0136815458536148,1.0,-0.0013326938249145505,2.413130283355713,1.0,-1.547774717805705,24.218196765054017,9.0,7.684498834498834,3.0,21.056425771705932,8.0
subject-01,1,896,0.838773012161255,airplane,airplane,c100,c100_airplane_10_n02690373_5007.png,True,-0.3866729178445442,0.0136815458536148,1.0,-0.0013326938249145505,2.413130283355713,1.0,-1.547774717805705,24.218196765054017,9.0,7.684498834498834,3.0,21.056425771705932,8.0
subject-04,1,16,1.37366509437561,car,cat,c03,c03_cat_10_n02123045_840.png,False,3.368893067521219,1.689857006072998,1.0,-1.04789544790604,2.6606733798980713,0.125,-2.8546107616549237,29.885844945907593,9.0,2.1309274059274057,10.0,33.185330316963885,9.0
subject-03,1,403,1.05319499969482,car,cat,c03,c03_cat_10_n02123045_840.png,False,0.7599913532009499,1.689857006072998,1.0,-1.04789544790604,2.6606733798980713,0.125,-2.8546107616549237,29.885844945907593,9.0,2.1309274059274057,10.0,33.185330316963885,9.0
subject-02,1,1204,0.650474071502686,cat,cat,c03,c03_cat_10_n02123045_840.png,True,-0.8731427416478229,1.689857006072998,1.0,-1.04789544790604,2.6606733798980713,0.125,-2.8546107616549237,29.885844945907593,9.0,2.1309274059274057,10.0,33.185330316963885,9.0
subject-01,1,413,1.09748911857605,knife,cat,c03,c03_cat_10_n02123045_840.png,False,0.9637359698994286,1.689857006072998,1.0,-1.04789544790604,2.6606733798980713,0.125,-2.8546107616549237,29.885844945907593,9.0,2.1309274059274057,10.0,33.185330316963885,9.0
subject-04,1,17,1.07747197151184,knife,knife,c50,c50_knife_10_n03041632_4714.png,True,1.827611366896448,0.036685723811388,1.0,-0.004026282129413746,2.565715074539185,0.1666666666666666,-2.8556681890538695,25.73816354945302,9.0,6.976190476190476,5.0,21.345508507249217,9.0
subject-03,1,161,0.925689935684204,oven,knife,c50,c50_knife_10_n03041632_4714.png,False,0.23874788679191186,0.036685723811388,1.0,-0.004026282129413746,2.565715074539185,0.1666666666666666,-2.8556681890538695,25.73816354945302,9.0,6.976190476190476,5.0,21.345508507249217,9.0
subject-02,1,970,0.784140825271606,knife,knife,c50,c50_knife_10_n03041632_4714.png,True,-0.2486979187488605,0.036685723811388,1.0,-0.004026282129413746,2.565715074539185,0.1666666666666666,-2.8556681890538695,25.73816354945302,9.0,6.976190476190476,5.0,21.345508507249217,9.0
subject-01,1,362,1.03867983818054,knife,knife,c50,c50_knife_10_n03041632_4714.png,True,0.6567717996803665,0.036685723811388,1.0,-0.004026282129413746,2.565715074539185,0.1666666666666666,-2.8556681890538695,25.73816354945302,9.0,6.976190476190476,5.0,21.345508507249217,9.0
subject-04,1,18,0.911098957061768,dog,dog,c01,c01_dog_10_n02111500_8079.png,True,0.9618664766357212,1.5286636352539062,0.1666666666666666,-4.137522851690097,2.618252992630005,0.0909090909090909,-3.058897096592745,28.82323431968689,9.0,0.4782828282828281,10.0,40.4108576750107,6.0
subject-03,1,75,0.881379127502441,clock,dog,c01,c01_dog_10_n02111500_8079.png,False,0.05760434213924533,1.5286636352539062,0.1666666666666666,-4.137522851690097,2.618252992630005,0.0909090909090909,-3.058897096592745,28.82323431968689,9.0,0.4782828282828281,10.0,40.4108576750107,6.0
subject-02,1,1002,0.53593111038208,boat,dog,c01,c01_dog_10_n02111500_8079.png,False,-1.4082478224140667,1.5286636352539062,0.1666666666666666,-4.137522851690097,2.618252992630005,0.0909090909090909,-3.058897096592745,28.82323431968689,9.0,0.4782828282828281,10.0,40.4108576750107,6.0
subject-01,1,1007,0.608410120010376,oven,dog,c01,c01_dog_10_n02111500_8079.png,False,-1.5890878013933774,1.5286636352539062,0.1666666666666666,-4.137522851690097,2.618252992630005,0.0909090909090909,-3.058897096592745,28.82323431968689,9.0,0.4782828282828281,10.0,40.4108576750107,6.0
subject-04,1,19,0.819046020507812,truck,truck,c10,c10_truck_10_n04467665_56815.png,True,0.48285634558470036,1.0598652362823486,1.0,-0.3205640906909865,2.581148147583008,0.2,-2.6347284928016887,29.115493297576904,10.0,3.9428571428571426,9.0,26.675280133665925,10.0
subject-03,1,592,0.952568054199219,truck,truck,c10,c10_truck_10_n04467665_56815.png,True,0.3486262180882507,1.0598652362823486,1.0,-0.3205640906909865,2.581148147583008,0.2,-2.6347284928016887,29.115493297576904,10.0,3.9428571428571426,9.0,26.675280133665925,10.0
subject-02,1,1109,0.651977062225342,truck,truck,c10,c10_truck_10_n04467665_56815.png,True,-0.8661212890489947,1.0598652362823486,1.0,-0.3205640906909865,2.581148147583008,0.2,-2.6347284928016887,29.115493297576904,10.0,3.9428571428571426,9.0,26.675280133665925,10.0
subject-01,1,1116,0.779304981231689,truck,truck,c10,c10_truck_10_n04467665_56815.png,True,-0.6970755387589371,1.0598652362823486,1.0,-0.3205640906909865,2.581148147583008,0.2,-2.6347284928016887,29.115493297576904,10.0,3.9428571428571426,9.0,26.675280133665925,10.0
subject-04,1,20,0.752878904342651,boat,cat,c03,c03_cat_10_n02123597_11138.png,False,0.13854664540512757,1.5241611003875732,1.0,-0.7947964800574148,2.6595849990844727,0.1,-2.9580529196702643,29.39920401573181,9.0,1.6459706959706957,10.0,36.19913183312,10.0
subject-03,1,44,1.09948801994324,cat,cat,c03,c03_cat_10_n02123597_11138.png,True,0.9492382237630569,1.5241611003875732,1.0,-0.7947964800574148,2.6595849990844727,0.1,-2.9580529196702643,29.39920401573181,9.0,1.6459706959706957,10.0,36.19913183312,10.0
subject-02,1,26,0.679955959320068,bird,cat,c03,c03_cat_10_n02123597_11138.png,False,-0.7354135629421094,1.5241611003875732,1.0,-0.7947964800574148,2.6595849990844727,0.1,-2.9580529196702643,29.39920401573181,9.0,1.6459706959706957,10.0,36.19913183312,10.0
subject-01,1,215,1.10938882827759,bird,cat,c03,c03_cat_10_n02123597_11138.png,False,1.0258483523298008,1.5241611003875732,1.0,-0.7947964800574148,2.6595849990844727,0.1,-2.9580529196702643,29.39920401573181,9.0,1.6459706959706957,10.0,36.19913183312,10.0
subject-04,1,21,0.562525987625122,boat,boat,c100,c100_boat_10_n04273569_24747.png,True,-0.8519809683376744,0.1229849159717559,1.0,-0.016074536499735108,2.408514499664306,0.3333333333333333,-1.991338743809788,25.07835729420185,9.0,6.561111111111111,6.0,21.046916819767375,9.0
subject-03,1,126,0.516204833984375,boat,boat,c100,c100_boat_10_n04273569_24747.png,True,-1.4352360879552033,0.1229849159717559,1.0,-0.016074536499735108,2.408514499664306,0.3333333333333333,-1.991338743809788,25.07835729420185,9.0,6.561111111111111,6.0,21.046916819767375,9.0
subject-02,1,461,0.722884178161621,boat,boat,c100,c100_boat_10_n04273569_24747.png,True,-0.5348677783244656,0.1229849159717559,1.0,-0.016074536499735108,2.408514499664306,0.3333333333333333,-1.991338743809788,25.07835729420185,9.0,6.561111111111111,6.0,21.046916819767375,9.0
subject-01,1,538,0.622703075408936,boat,boat,c100,c100_boat_10_n04273569_24747.png,True,-1.5144835014531248,0.1229849159717559,1.0,-0.016074536499735108,2.408514499664306,0.3333333333333333,-1.991338743809788,25.07835729420185,9.0,6.561111111111111,6.0,21.046916819767375,9.0
subject-04,1,22,0.652868986129761,bird,bird,c30,c30_bird_10_n02013706_19220.png,True,-0.3818687353848028,1.0383862257003784,1.0,-0.3061921242288592,2.5571634769439697,0.1111111111111111,-3.0693971741745534,27.833016753196716,9.0,4.386086136086136,7.0,30.57092898693263,9.0
subject-03,1,730,0.562508106231689,bird,bird,c30,c30_bird_10_n02013706_19220.png,True,-1.24594730699932,1.0383862257003784,1.0,-0.3061921242288592,2.5571634769439697,0.1111111111111111,-3.0693971741745534,27.833016753196716,9.0,4.386086136086136,7.0,30.57092898693263,9.0
subject-02,1,5,0.542098045349121,bird,bird,c30,c30_bird_10_n02013706_19220.png,True,-1.3794380361004055,1.0383862257003784,1.0,-0.3061921242288592,2.5571634769439697,0.1111111111111111,-3.0693971741745534,27.833016753196716,9.0,4.386086136086136,7.0,30.57092898693263,9.0
subject-01,1,548,0.886812925338745,bird,bird,c30,c30_bird_10_n02013706_19220.png,True,-0.13592113195719513,1.0383862257003784,1.0,-0.3061921242288592,2.5571634769439697,0.1111111111111111,-3.0693971741745534,27.833016753196716,9.0,4.386086136086136,7.0,30.57092898693263,9.0
subject-04,1,23,0.880724191665649,chair,chair,c30,c30_chair_10_n04429376_6242.png,True,0.8038072022907823,0.8347790241241455,1.0,-0.19058752812112728,2.5622119903564453,0.0909090909090909,-3.2650553672009988,29.36627769470215,10.0,4.290584415584416,8.0,29.226640339072205,10.0
subject-03,1,1086,0.855253934860229,chair,chair,c30,c30_chair_10_n04429376_6242.png,True,-0.04919601186313876,0.8347790241241455,1.0,-0.19058752812112728,2.5622119903564453,0.0909090909090909,-3.2650553672009988,29.36627769470215,10.0,4.290584415584416,8.0,29.226640339072205,10.0
subject-02,1,375,0.89172887802124,boat,chair,c30,c30_chair_10_n04429376_6242.png,False,0.25391623661121887,0.8347790241241455,1.0,-0.19058752812112728,2.5622119903564453,0.0909090909090909,-3.2650553672009988,29.36627769470215,10.0,4.290584415584416,8.0,29.226640339072205,10.0
subject-01,1,1120,0.862334012985229,chair,chair,c30,c30_chair_10_n04429376_6242.png,True,-0.26369261577619907,0.8347790241241455,1.0,-0.19058752812112728,2.5622119903564453,0.0909090909090909,-3.2650553672009988,29.36627769470215,10.0,4.290584415584416,8.0,29.226640339072205,10.0
subject-04,1,24,0.623991012573242,airplane,airplane,c30,c30_airplane_10_n02690373_8876.png,True,-0.5321392472840953,0.0333707630634307,1.0,-0.0036361680926986707,2.50524377822876,1.0,-1.5502443768199161,24.526912983506918,9.0,7.882478632478632,3.0,20.225052548340646,8.0
subject-03,1,522,0.660372018814087,airplane,airplane,c30,c30_airplane_10_n02690373_8876.png,True,-0.8458775103475332,0.0333707630634307,1.0,-0.0036361680926986707,2.50524377822876,1.0,-1.5502443768199161,24.526912983506918,9.0,7.882478632478632,3.0,20.225052548340646,8.0
subject-02,1,287,0.912328958511353,airplane,airplane,c30,c30_airplane_10_n02690373_8876.png,True,0.35015268472300054,0.0333707630634307,1.0,-0.0036361680926986707,2.50524377822876,1.0,-1.5502443768199161,24.526912983506918,9.0,7.882478632478632,3.0,20.225052548340646,8.0
subject-01,1,895,0.828898906707764,airplane,airplane,c30,c30_airplane_10_n02690373_8876.png,True,-0.4382123443908651,0.0333707630634307,1.0,-0.0036361680926986707,2.50524377822876,1.0,-1.5502443768199161,24.526912983506918,9.0,7.882478632478632,3.0,20.225052548340646,8.0
subject-04,1,25,0.879863977432251,elephant,elephant,c100,c100_elephant_10_n02504458_12217.png,True,0.7993309590757665,0.0271764956414699,1.0,-0.002852630462616146,2.4288065433502197,0.25,-2.368617070141538,25.231646712869406,9.0,6.916666666666666,1.0,22.518946785272842,9.0
subject-03,1,36,0.923058032989502,elephant,elephant,c100,c100_elephant_10_n02504458_12217.png,True,0.22798861150757055,0.0271764956414699,1.0,-0.002852630462616146,2.4288065433502197,0.25,-2.368617070141538,25.231646712869406,9.0,6.916666666666666,1.0,22.518946785272842,9.0
subject-02,1,88,0.805934906005859,elephant,elephant,c100,c100_elephant_10_n02504458_12217.png,True,-0.14688351463851904,0.0271764956414699,1.0,-0.002852630462616146,2.4288065433502197,0.25,-2.368617070141538,25.231646712869406,9.0,6.916666666666666,1.0,22.518946785272842,9.0
subject-01,1,336,0.7795569896698,elephant,elephant,c100,c100_elephant_10_n02504458_12217.png,True,-0.6957601415873905,0.0271764956414699,1.0,-0.002852630462616146,2.4288065433502197,0.25,-2.368617070141538,25.231646712869406,9.0,6.916666666666666,1.0,22.518946785272842,9.0
subject-04,1,26,0.999691963195801,bird,cat,c05,c05_cat_10_n02125311_37322.png,False,1.4228723833141352,1.6708780527114868,1.0,-0.8781217992819481,2.6333189010620117,0.125,-2.9407999091497428,29.85818874835968,10.0,1.6330086580086578,10.0,35.55925544906054,10.0
subject-03,1,971,1.1919469833374,clock,cat,c05,c05_cat_10_n02125311_37322.png,False,1.3272124709360609,1.6708780527114868,1.0,-0.8781217992819481,2.6333189010620117,0.125,-2.9407999091497428,29.85818874835968,10.0,1.6330086580086578,10.0,35.55925544906054,10.0
subject-02,1,127,0.906445026397705,oven,cat,c05,c05_cat_10_n02125311_37322.png,False,0.32266498981714303,1.6708780527114868,1.0,-0.8781217992819481,2.6333189010620117,0.125,-2.9407999091497428,29.85818874835968,10.0,1.6330086580086578,10.0,35.55925544906054,10.0
subject-01,1,472,0.570647001266479,oven,cat,c05,c05_cat_10_n02125311_37322.png,False,-1.786198263078082,1.6708780527114868,1.0,-0.8781217992819481,2.6333189010620117,0.125,-2.9407999091497428,29.85818874835968,10.0,1.6330086580086578,10.0,35.55925544906054,10.0
subject-04,1,27,0.701657056808472,oven,chair,c03,c03_chair_10_n04429376_31331.png,False,-0.1279932914891295,1.7577468156814575,0.3333333333333333,-1.9059454936859852,2.6486148834228516,0.0769230769230769,-3.2660929834410126,30.020538449287415,10.0,1.1217032967032965,10.0,34.51404180033406,10.0
subject-03,1,410,0.936074018478394,elephant,chair,c03,c03_chair_10_n04429376_31331.png,False,0.28119824241599434,1.7577468156814575,0.3333333333333333,-1.9059454936859852,2.6486148834228516,0.0769230769230769,-3.2660929834410126,30.020538449287415,10.0,1.1217032967032965,10.0,34.51404180033406,10.0
subject-02,1,1196,1.22976803779602,bear,chair,c03,c03_chair_10_n04429376_31331.png,False,1.8331182244398345,1.7577468156814575,0.3333333333333333,-1.9059454936859852,2.6486148834228516,0.0769230769230769,-3.2660929834410126,30.020538449287415,10.0,1.1217032967032965,10.0,34.51404180033406,10.0
subject-01,1,867,0.565032005310059,cat,chair,c03,c03_chair_10_n04429376_31331.png,False,-1.8155066063013643,1.7577468156814575,0.3333333333333333,-1.9059454936859852,2.6486148834228516,0.0769230769230769,-3.2660929834410126,30.020538449287415,10.0,1.1217032967032965,10.0,34.51404180033406,10.0
subject-04,1,28,1.0756561756134,bear,bear,c50,c50_bear_10_n02133161_1247.png,True,1.8181626229037584,0.0546140521764755,1.0,-0.006298067701174803,2.4197030067443848,1.0,-1.4365285212941226,25.391086593270302,9.0,9.25,4.0,16.826072647843546,9.0
subject-03,1,136,1.16442894935608,cat,bear,c50,c50_bear_10_n02133161_1247.png,False,1.214718151337973,0.0546140521764755,1.0,-0.006298067701174803,2.4197030067443848,1.0,-1.4365285212941226,25.391086593270302,9.0,9.25,4.0,16.826072647843546,9.0
subject-02,1,388,1.10476994514465,elephant,bear,c50,c50_bear_10_n02133161_1247.png,False,1.2491703867947943,0.0546140521764755,1.0,-0.006298067701174803,2.4197030067443848,1.0,-1.4365285212941226,25.391086593270302,9.0,9.25,4.0,16.826072647843546,9.0
subject-01,1,415,0.913398027420044,cat,bear,c50,c50_bear_10_n02133161_1247.png,False,0.0028439361696721453,0.0546140521764755,1.0,-0.006298067701174803,2.4197030067443848,1.0,-1.4365285212941226,25.391086593270302,9.0,9.25,4.0,16.826072647843546,9.0
subject-04,1,29,0.983218193054199,bicycle,dog,c05,c05_dog_10_n02091831_510.png,False,1.3371488519435974,1.702340841293335,0.3333333333333333,-2.798244628238149,2.648170232772827,0.0909090909090909,-3.0713701507600843,29.682970762252808,9.0,0.8179292929292927,10.0,37.22938831268085,10.0
subject-03,1,832,0.910996913909912,cat,dog,c05,c05_dog_10_n02091831_510.png,False,0.1786824951850516,1.702340841293335,0.3333333333333333,-2.798244628238149,2.648170232772827,0.0909090909090909,-3.0713701507600843,29.682970762252808,9.0,0.8179292929292927,10.0,37.22938831268085,10.0
subject-02,1,1128,1.4524028301239,cat,dog,c05,c05_dog_10_n02091831_510.png,False,2.87319093920532,1.702340841293335,0.3333333333333333,-2.798244628238149,2.648170232772827,0.0909090909090909,-3.0713701507600843,29.682970762252808,9.0,0.8179292929292927,10.0,37.22938831268085,10.0
subject-01,1,167,0.688573122024536,boat,dog,c05,c05_dog_10_n02091831_510.png,False,-1.170664565637812,1.702340841293335,0.3333333333333333,-2.798244628238149,2.648170232772827,0.0909090909090909,-3.0713701507600843,29.682970762252808,9.0,0.8179292929292927,10.0,37.22938831268085,10.0
subject-04,1,30,0.809024095535278,bottle,knife,c10,c10_knife_10_n03041632_46185.png,False,0.43070587897070856,0.0303864292800426,1.0,-0.003430163131102702,2.638367176055908,0.2,-2.3791368383016622,25.922357123345137,9.0,8.95,5.0,19.103868610252945,9.0
subject-03,1,959,1.02998995780945,bottle,knife,c10,c10_knife_10_n03041632_46185.png,False,0.6651286388111112,0.0303864292800426,1.0,-0.003430163131102702,2.638367176055908,0.2,-2.3791368383016622,25.922357123345137,9.0,8.95,5.0,19.103868610252945,9.0
subject-02,1,849,1.05886602401733,knife,knife,c10,c10_knife_10_n03041632_46185.png,True,1.0347231507358432,0.0303864292800426,1.0,-0.003430163131102702,2.638367176055908,0.2,-2.3791368383016622,25.922357123345137,9.0,8.95,5.0,19.103868610252945,9.0
subject-01,1,340,1.23509097099304,boat,knife,c10,c10_knife_10_n03041632_46185.png,False,1.6819702037434463,0.0303864292800426,1.0,-0.003430163131102702,2.638367176055908,0.2,-2.3791368383016622,25.922357123345137,9.0,8.95,5.0,19.103868610252945,9.0
subject-04,1,31,0.657072067260742,bird,bird,c30,c30_bird_10_n01796340_10024.png,True,-0.35999742395532774,1.4406596422195437,1.0,-0.532685760934167,2.544822931289673,0.1,-3.1617818933291266,27.861146450042725,9.0,4.018290043290043,7.0,31.757569803798923,9.0
subject-03,1,112,1.29721188545227,cat,bird,c30,c30_bird_10_n01796340_10024.png,False,1.7575376732746493,1.4406596422195437,1.0,-0.532685760934167,2.544822931289673,0.1,-3.1617818933291266,27.861146450042725,9.0,4.018290043290043,7.0,31.757569803798923,9.0
subject-02,1,235,0.772641897201538,bird,bird,c30,c30_bird_10_n01796340_10024.png,True,-0.30241693188996605,1.4406596422195437,1.0,-0.532685760934167,2.544822931289673,0.1,-3.1617818933291266,27.861146450042725,9.0,4.018290043290043,7.0,31.757569803798923,9.0
subject-01,1,465,0.869681835174561,bird,bird,c30,c30_bird_10_n01796340_10024.png,True,-0.22533951697790638,1.4406596422195437,1.0,-0.532685760934167,2.544822931289673,0.1,-3.1617818933291266,27.861146450042725,9.0,4.018290043290043,7.0,31.757569803798923,9.0
subject-04,1,32,0.832445859909058,car,car,c15,c15_car_10_n03100240_10096.png,True,0.5525842550674276,0.424881100654602,1.0,-0.07982776662363657,2.610849618911743,0.1,-2.926405939881894,26.599517732858658,9.0,5.041666666666666,6.0,30.95035850760922,9.0
subject-03,1,209,0.710395097732544,car,car,c15,c15_car_10_n03100240_10096.png,True,-0.6413820790622438,0.424881100654602,1.0,-0.07982776662363657,2.610849618911743,0.1,-2.926405939881894,26.599517732858658,9.0,5.041666666666666,6.0,30.95035850760922,9.0
subject-02,1,835,0.655449151992798,car,car,c15,c15_car_10_n03100240_10096.png,True,-0.8499008870507794,0.424881100654602,1.0,-0.07982776662363657,2.610849618911743,0.1,-2.926405939881894,26.599517732858658,9.0,5.041666666666666,6.0,30.95035850760922,9.0
subject-01,1,685,1.11113595962524,car,car,c15,c15_car_10_n03100240_10096.png,True,1.034967775672312,0.424881100654602,1.0,-0.07982776662363657,2.610849618911743,0.1,-2.926405939881894,26.599517732858658,9.0,5.041666666666666,6.0,30.95035850760922,9.0
subject-04,1,33,0.776412963867188,car,car,c100,c100_car_10_n03100240_1443.png,True,0.26100936478185705,0.0159145072102546,1.0,-0.0016089501452588822,2.3929595947265625,0.1,-3.3638813317168452,24.193280965089798,9.0,4.3858516483516485,7.0,31.152164417580824,5.0
subject-03,1,903,1.18629193305969,car,car,c100,c100_car_10_n03100240_1443.png,True,1.304094502780494,0.0159145072102546,1.0,-0.0016089501452588822,2.3929595947265625,0.1,-3.3638813317168452,24.193280965089798,9.0,4.3858516483516485,7.0,31.152164417580824,5.0
subject-02,1,786,0.720966815948486,car,car,c100,c100_car_10_n03100240_1443.png,True,-0.5438250311480367,0.0159145072102546,1.0,-0.0016089501452588822,2.3929595947265625,0.1,-3.3638813317168452,24.193280965089798,9.0,4.3858516483516485,7.0,31.152164417580824,5.0
subject-01,1,1010,1.0699360370636,car,car,c100,c100_car_10_n03100240_1443.png,True,0.8199183828355142,0.0159145072102546,1.0,-0.0016089501452588822,2.3929595947265625,0.1,-3.3638813317168452,24.193280965089798,9.0,4.3858516483516485,7.0,31.152164417580824,5.0
subject-04,1,34,,na,oven,c15,c15_oven_10_n04111531_8305.png,False,,0.189558744430542,1.0,-0.0291328407633024,2.6053004264831543,0.0625,-4.748371668538574,26.921948552131653,9.0,3.15,8.0,34.2861923029062,9.0
subject-03,1,455,1.12328100204468,oven,oven,c15,c15_oven_10_n04111531_8305.png,True,1.046504450504688,0.189558744430542,1.0,-0.0291328407633024,2.6053004264831543,0.0625,-4.748371668538574,26.921948552131653,9.0,3.15,8.0,34.2861923029062,9.0
subject-02,1,803,1.00953912734985,chair,oven,c15,c15_oven_10_n04111531_8305.png,False,0.8042849573543414,0.189558744430542,1.0,-0.0291328407633024,2.6053004264831543,0.0625,-4.748371668538574,26.921948552131653,9.0,3.15,8.0,34.2861923029062,9.0
subject-01,1,662,1.09930896759033,oven,oven,c15,c15_oven_10_n04111531_8305.png,True,0.9732349543936358,0.189558744430542,1.0,-0.0291328407633024,2.6053004264831543,0.0625,-4.748371668538574,26.921948552131653,9.0,3.15,8.0,34.2861923029062,9.0
subject-04,1,35,0.624162197113037,car,car,c10,c10_car_10_n03100240_13929.png,True,-0.5312484649591549,1.4191774129867554,1.0,-0.46301260909990694,2.60935115814209,0.0909090909090909,-3.1031875617171014,29.68394696712494,10.0,4.540151515151515,7.0,33.54060532385845,9.0
subject-03,1,464,0.655565977096558,car,car,c10,c10_car_10_n03100240_13929.png,True,-0.8655247130997528,1.4191774129867554,1.0,-0.46301260909990694,2.60935115814209,0.0909090909090909,-3.1031875617171014,29.68394696712494,10.0,4.540151515151515,7.0,33.54060532385845,9.0
subject-02,1,885,0.95914101600647,car,car,c10,c10_car_10_n03100240_13929.png,True,0.5688424196634418,1.4191774129867554,1.0,-0.46301260909990694,2.60935115814209,0.0909090909090909,-3.1031875617171014,29.68394696712494,10.0,4.540151515151515,7.0,33.54060532385845,9.0
subject-01,1,601,1.16412019729614,car,car,c10,c10_car_10_n03100240_13929.png,True,1.3115272309479988,1.4191774129867554,1.0,-0.46301260909990694,2.60935115814209,0.0909090909090909,-3.1031875617171014,29.68394696712494,10.0,4.540151515151515,7.0,33.54060532385845,9.0
subject-04,1,36,0.665917873382568,cat,bottle,c01,c01_bottle_10_n02823428_4245.png,False,-0.3139670537326004,1.6598247289657593,0.1428571428571428,-4.212441420401222,2.62784194946289,0.1428571428571428,-2.860810176808926,29.13987672328949,9.0,0.7293401043401039,0.0,39.23882397089538,0.0
subject-03,1,443,0.669682025909424,car,bottle,c01,c01_bottle_10_n02823428_4245.png,False,-0.8078179994698933,1.6598247289657593,0.1428571428571428,-4.212441420401222,2.62784194946289,0.1428571428571428,-2.860810176808926,29.13987672328949,9.0,0.7293401043401039,0.0,39.23882397089538,0.0
subject-02,1,1111,0.643903017044067,truck,bottle,c01,c01_bottle_10_n02823428_4245.png,False,-0.9038404343947072,1.6598247289657593,0.1428571428571428,-4.212441420401222,2.62784194946289,0.1428571428571428,-2.860810176808926,29.13987672328949,9.0,0.7293401043401039,0.0,39.23882397089538,0.0
subject-01,1,475,0.846040010452271,oven,bottle,c01,c01_bottle_10_n02823428_4245.png,False,-0.34874169193287047,1.6598247289657593,0.1428571428571428,-4.212441420401222,2.62784194946289,0.1428571428571428,-2.860810176808926,29.13987672328949,9.0,0.7293401043401039,0.0,39.23882397089538,0.0
subject-04,1,37,0.75170111656189,bottle,bottle,c100,c100_bottle_10_n04560804_14130.png,True,0.13241786450651977,0.0317040681838989,1.0,-0.003419995576379788,2.53976058959961,0.1428571428571428,-2.9059732598033112,25.207502394914627,9.0,4.690018315018315,7.0,25.09074088843989,0.0
subject-03,1,276,0.61354398727417,bottle,bottle,c100,c100_bottle_10_n04560804_14130.png,True,-1.0373115186701032,0.0317040681838989,1.0,-0.003419995576379788,2.53976058959961,0.1428571428571428,-2.9059732598033112,25.207502394914627,9.0,4.690018315018315,7.0,25.09074088843989,0.0
subject-02,1,763,0.984935998916626,bottle,bottle,c100,c100_bottle_10_n04560804_14130.png,True,0.6893476543672075,0.0317040681838989,1.0,-0.003419995576379788,2.53976058959961,0.1428571428571428,-2.9059732598033112,25.207502394914627,9.0,4.690018315018315,7.0,25.09074088843989,0.0
subject-01,1,43,0.909940004348755,bottle,bottle,c100,c100_bottle_10_n04560804_14130.png,True,-0.01520575217097329,0.0317040681838989,1.0,-0.003419995576379788,2.53976058959961,0.1428571428571428,-2.9059732598033112,25.207502394914627,9.0,4.690018315018315,7.0,25.09074088843989,0.0
subject-04,1,38,0.647808074951172,oven,oven,c10,c10_oven_10_n04111531_20429.png,True,-0.40820388359023285,0.8019251823425293,1.0,-0.1787148352744229,2.6496052742004395,0.0625,-4.886769969635256,29.320832014083862,10.0,2.578943278943279,9.0,36.89949316911467,6.0
subject-03,1,566,0.675382137298584,oven,oven,c10,c10_oven_10_n04111531_20429.png,True,-0.7845158205136443,0.8019251823425293,1.0,-0.1787148352744229,2.6496052742004395,0.0625,-4.886769969635256,29.320832014083862,10.0,2.578943278943279,9.0,36.89949316911467,6.0
subject-02,1,735,0.954206943511963,oven,oven,c10,c10_oven_10_n04111531_20429.png,True,0.5457921402324811,0.8019251823425293,1.0,-0.1787148352744229,2.6496052742004395,0.0625,-4.886769969635256,29.320832014083862,10.0,2.578943278943279,9.0,36.89949316911467,6.0
subject-01,1,1224,0.859930992126465,boat,oven,c10,c10_oven_10_n04111531_20429.png,False,-0.2762355562605709,0.8019251823425293,1.0,-0.1787148352744229,2.6496052742004395,0.0625,-4.886769969635256,29.320832014083862,10.0,2.578943278943279,9.0,36.89949316911467,6.0
subject-04,1,39,0.613427877426147,keyboard,keyboard,c50,c50_keyboard_10_n04505470_3117.png,True,-0.5871059755660748,0.0344259478151798,1.0,-0.0037309900964639475,2.5764670372009277,0.25,-2.402220653166824,24.791450768709183,9.0,5.515584415584415,6.0,23.3347775213368,6.0
subject-03,1,539,0.806740045547485,keyboard,keyboard,c50,c50_keyboard_10_n04505470_3117.png,True,-0.2475218433160264,0.0344259478151798,1.0,-0.0037309900964639475,2.5764670372009277,0.25,-2.402220653166824,24.791450768709183,9.0,5.515584415584415,6.0,23.3347775213368,6.0
subject-02,1,306,0.942852973937988,keyboard,keyboard,c50,c50_keyboard_10_n04505470_3117.png,True,0.49275032302729965,0.0344259478151798,1.0,-0.0037309900964639475,2.5764670372009277,0.25,-2.402220653166824,24.791450768709183,9.0,5.515584415584415,6.0,23.3347775213368,6.0
subject-01,1,701,0.768005132675171,keyboard,keyboard,c50,c50_keyboard_10_n04505470_3117.png,True,-0.7560568528036749,0.0344259478151798,1.0,-0.0037309900964639475,2.5764670372009277,0.25,-2.402220653166824,24.791450768709183,9.0,5.515584415584415,6.0,23.3347775213368,6.0
subject-04,1,40,1.13709402084351,car,bear,c05,c05_bear_10_n02132136_1726.png,False,2.1378629105520246,1.7327485084533691,0.5,-1.402768197520326,2.641946792602539,0.5,-2.1734842038484357,29.925400018692017,10.0,4.4,4.0,26.075853566234276,10.0
subject-03,1,961,1.50000905990601,boat,bear,c05,c05_bear_10_n02132136_1726.png,False,2.5865769197584183,1.7327485084533691,0.5,-1.402768197520326,2.641946792602539,0.5,-2.1734842038484357,29.925400018692017,10.0,4.4,4.0,26.075853566234276,10.0
subject-02,1,392,0.874096155166626,elephant,bear,c05,c05_bear_10_n02132136_1726.png,False,0.17154225662206668,1.7327485084533691,0.5,-1.402768197520326,2.641946792602539,0.5,-2.1734842038484357,29.925400018692017,10.0,4.4,4.0,26.075853566234276,10.0
subject-01,1,1146,0.872904062271118,car,bear,c05,c05_bear_10_n02132136_1726.png,False,-0.2085206023389248,1.7327485084533691,0.5,-1.402768197520326,2.641946792602539,0.5,-2.1734842038484357,29.925400018692017,10.0,4.4,4.0,26.075853566234276,10.0
subject-04,1,41,0.772946119308472,boat,airplane,c15,c15_airplane_10_n02690373_1952.png,False,0.24296916173596386,0.127862274646759,1.0,-0.017272975484762053,2.556333541870117,1.0,-1.7041451272073187,24.960088476538658,9.0,7.715811965811966,3.0,21.1763843532353,8.0
subject-03,1,519,0.868370056152344,chair,airplane,c15,c15_airplane_10_n02690373_1952.png,False,0.004422976380137243,0.127862274646759,1.0,-0.017272975484762053,2.556333541870117,1.0,-1.7041451272073187,24.960088476538658,9.0,7.715811965811966,3.0,21.1763843532353,8.0
subject-02,1,28,1.17351603507996,car,airplane,c15,c15_airplane_10_n02690373_1952.png,False,1.5703283317903316,0.127862274646759,1.0,-0.017272975484762053,2.556333541870117,1.0,-1.7041451272073187,24.960088476538658,9.0,7.715811965811966,3.0,21.1763843532353,8.0
subject-01,1,642,0.88515305519104,airplane,airplane,c15,c15_airplane_10_n02690373_1952.png,True,-0.14458508191772804,0.127862274646759,1.0,-0.017272975484762053,2.556333541870117,1.0,-1.7041451272073187,24.960088476538658,9.0,7.715811965811966,3.0,21.1763843532353,8.0
subject-04,1,42,0.834786176681519,oven,bottle,c03,c03_bottle_10_n04560804_722.png,False,0.5647624156546283,1.956881403923035,0.3333333333333333,-2.4542256809911724,2.6771581172943115,0.125,-2.776538884281822,30.36082899570465,10.0,0.9832722832722829,10.0,35.09072100396021,0.0
subject-03,1,378,1.19408893585205,car,bottle,c03,c03_bottle_10_n04560804_722.png,False,1.3359688192606007,1.956881403923035,0.3333333333333333,-2.4542256809911724,2.6771581172943115,0.125,-2.776538884281822,30.36082899570465,10.0,0.9832722832722829,10.0,35.09072100396021,0.0
subject-02,1,184,0.948025941848755,elephant,bottle,c03,c03_bottle_10_n04560804_722.png,False,0.5169166391816165,1.956881403923035,0.3333333333333333,-2.4542256809911724,2.6771581172943115,0.125,-2.776538884281822,30.36082899570465,10.0,0.9832722832722829,10.0,35.09072100396021,0.0
subject-01,1,110,0.650132179260254,boat,bottle,c03,c03_bottle_10_n04560804_722.png,False,-1.3713130350412428,1.956881403923035,0.3333333333333333,-2.4542256809911724,2.6771581172943115,0.125,-2.776538884281822,30.36082899570465,10.0,0.9832722832722829,10.0,35.09072100396021,0.0
subject-04,1,43,0.638680934906006,bicycle,bicycle,c100,c100_bicycle_10_n03792782_5966.png,True,-0.4556982136227505,0.006328159943223,1.0,-0.0005987290453028476,2.483288526535034,1.0,-1.6499471780021666,24.402246141806245,9.0,9.416666666666666,2.0,17.437622907726958,8.0
subject-03,1,1138,0.886032819747925,bicycle,bicycle,c100,c100_bicycle_10_n03792782_5966.png,True,0.07662873694630186,0.006328159943223,1.0,-0.0005987290453028476,2.483288526535034,1.0,-1.6499471780021666,24.402246141806245,9.0,9.416666666666666,2.0,17.437622907726958,8.0
subject-02,1,887,0.744906902313232,bicycle,bicycle,c100,c100_bicycle_10_n03792782_5966.png,True,-0.43198523128229294,0.006328159943223,1.0,-0.0005987290453028476,2.483288526535034,1.0,-1.6499471780021666,24.402246141806245,9.0,9.416666666666666,2.0,17.437622907726958,8.0
subject-01,1,2,0.825402021408081,bicycle,bicycle,c100,c100_bicycle_10_n03792782_5966.png,True,-0.4564648801666704,0.006328159943223,1.0,-0.0005987290453028476,2.483288526535034,1.0,-1.6499471780021666,24.402246141806245,9.0,9.416666666666666,2.0,17.437622907726958,8.0
subject-04,1,44,0.796422004699707,car,knife,c05,c05_knife_10_n03041632_37618.png,False,0.3651291639994762,0.3499661982059479,1.0,-0.06703326351851756,2.6636552810668945,0.25,-2.449180980170841,26.56523472070694,9.0,7.333333333333333,5.0,21.431239609500935,9.0
subject-03,1,669,0.708137035369873,boat,knife,c05,c05_knife_10_n03041632_37618.png,False,-0.6506130869631407,0.3499661982059479,1.0,-0.06703326351851756,2.6636552810668945,0.25,-2.449180980170841,26.56523472070694,9.0,7.333333333333333,5.0,21.431239609500935,9.0
subject-02,1,717,1.07177376747131,airplane,knife,c05,c05_knife_10_n03041632_37618.png,False,1.0950236618792497,0.3499661982059479,1.0,-0.06703326351851756,2.6636552810668945,0.25,-2.449180980170841,26.56523472070694,9.0,7.333333333333333,5.0,21.431239609500935,9.0
subject-01,1,814,0.769080877304077,oven,knife,c05,c05_knife_10_n03041632_37618.png,False,-0.750441836684468,0.3499661982059479,1.0,-0.06703326351851756,2.6636552810668945,0.25,-2.449180980170841,26.56523472070694,9.0,7.333333333333333,5.0,21.431239609500935,9.0
subject-04,1,45,0.766250848770142,bird,bird,c15,c15_bird_10_n01592084_4764.png,True,0.20812939955078186,1.5098272562026978,1.0,-0.7817360730973011,2.585456371307373,0.1111111111111111,-2.988559295110645,29.073000073432922,9.0,4.231324231324232,7.0,31.262896032084576,9.0
subject-03,1,941,0.941048145294189,bird,bird,c15,c15_bird_10_n01592084_4764.png,True,0.3015325806945687,1.5098272562026978,1.0,-0.7817360730973011,2.585456371307373,0.1111111111111111,-2.988559295110645,29.073000073432922,9.0,4.231324231324232,7.0,31.262896032084576,9.0
subject-02,1,691,0.732618093490601,bird,bird,c15,c15_bird_10_n01592084_4764.png,True,-0.48939429398873885,1.5098272562026978,1.0,-0.7817360730973011,2.585456371307373,0.1111111111111111,-2.988559295110645,29.073000073432922,9.0,4.231324231324232,7.0,31.262896032084576,9.0
subject-01,1,645,0.72650408744812,bird,bird,c15,c15_bird_10_n01592084_4764.png,True,-0.9726780021472757,1.5098272562026978,1.0,-0.7817360730973011,2.585456371307373,0.1111111111111111,-2.988559295110645,29.073000073432922,9.0,4.231324231324232,7.0,31.262896032084576,9.0
subject-04,1,46,1.03590202331543,boat,oven,c15,c15_oven_10_n04111531_22403.png,False,1.6112964172731405,0.3059897124767303,1.0,-0.051356176127717305,2.5738115310668945,0.0625,-5.031080614257534,26.485115885734558,9.0,3.4678321678321677,8.0,34.37943492442074,9.0
subject-03,1,379,0.91404914855957,chair,oven,c15,c15_oven_10_n04111531_22403.png,False,0.1911600966154469,0.3059897124767303,1.0,-0.051356176127717305,2.5738115310668945,0.0625,-5.031080614257534,26.485115885734558,9.0,3.4678321678321677,8.0,34.37943492442074,9.0
subject-02,1,353,0.957474946975708,dog,oven,c15,c15_oven_10_n04111531_22403.png,False,0.5610591216366928,0.3059897124767303,1.0,-0.051356176127717305,2.5738115310668945,0.0625,-5.031080614257534,26.485115885734558,9.0,3.4678321678321677,8.0,34.37943492442074,9.0
subject-01,1,504,0.743286848068237,oven,oven,c15,c15_oven_10_n04111531_22403.png,True,-0.8850777772662266,0.3059897124767303,1.0,-0.051356176127717305,2.5738115310668945,0.0625,-5.031080614257534,26.485115885734558,9.0,3.4678321678321677,8.0,34.37943492442074,9.0
subject-04,1,47,0.64159893989563,airplane,airplane,c50,c50_airplane_10_n02690373_2675.png,True,-0.44051397284985505,0.0278537664562463,1.0,-0.0029345254529599394,2.5239949226379395,1.0,-1.6072677392668548,25.186343455687165,9.0,7.692002442002442,3.0,21.827568552530078,9.0
subject-03,1,755,0.665807962417603,airplane,airplane,c50,c50_airplane_10_n02690373_2675.png,True,-0.8236552550270325,0.0278537664562463,1.0,-0.0029345254529599394,2.5239949226379395,1.0,-1.6072677392668548,25.186343455687165,9.0,7.692002442002442,3.0,21.827568552530078,9.0
subject-02,1,79,0.926130056381226,airplane,airplane,c50,c50_airplane_10_n02690373_2675.png,True,0.4146266385833805,0.0278537664562463,1.0,-0.0029345254529599394,2.5239949226379395,1.0,-1.6072677392668548,25.186343455687165,9.0,7.692002442002442,3.0,21.827568552530078,9.0
subject-01,1,482,0.669091939926147,airplane,airplane,c50,c50_airplane_10_n02690373_2675.png,True,-1.2723496204029947,0.0278537664562463,1.0,-0.0029345254529599394,2.5239949226379395,1.0,-1.6072677392668548,25.186343455687165,9.0,7.692002442002442,3.0,21.827568552530078,9.0
subject-04,1,48,0.621509075164795,chair,chair,c50,c50_chair_10_n03376595_12602.png,True,-0.5450543503518149,0.0677045434713363,1.0,-0.008016085302118319,2.5323591232299805,0.0833333333333333,-3.447079645804528,25.789844900369644,9.0,3.7587662337662335,8.0,27.851285294653543,9.0
subject-03,1,911,0.692946910858154,chair,chair,c50,c50_chair_10_n03376595_12602.png,True,-0.7127106453394427,0.0677045434713363,1.0,-0.008016085302118319,2.5323591232299805,0.0833333333333333,-3.447079645804528,25.789844900369644,9.0,3.7587662337662335,8.0,27.851285294653543,9.0
subject-02,1,428,1.12120699882507,chair,chair,c50,c50_chair_10_n03376595_12602.png,True,1.325958614121649,0.0677045434713363,1.0,-0.008016085302118319,2.5323591232299805,0.0833333333333333,-3.447079645804528,25.789844900369644,9.0,3.7587662337662335,8.0,27.851285294653543,9.0
subject-01,1,1112,0.805890083312988,chair,chair,c50,c50_chair_10_n03376595_12602.png,True,-0.55831047063207,0.0677045434713363,1.0,-0.008016085302118319,2.5323591232299805,0.0833333333333333,-3.447079645804528,25.789844900369644,9.0,3.7587662337662335,8.0,27.851285294653543,9.0
subject-04,1,49,0.673440933227539,bear,bear,c01,c01_bear_10_n02132136_10428.png,True,-0.2748197759036964,1.5608985424041748,0.5,-1.1351223715929621,2.645357608795166,0.25,-2.4717837600351227,29.26901340484619,9.0,3.5051587301587306,10.0,28.931515265760435,10.0
subject-03,1,731,1.08635401725769,truck,bear,c01,c01_bear_10_n02132136_10428.png,False,0.8955461359956902,1.5608985424041748,0.5,-1.1351223715929621,2.645357608795166,0.25,-2.4717837600351227,29.26901340484619,9.0,3.5051587301587306,10.0,28.931515265760435,10.0
subject-02,1,1033,0.900254011154175,bird,bear,c01,c01_bear_10_n02132136_10428.png,False,0.2937427087838638,1.5608985424041748,0.5,-1.1351223715929621,2.645357608795166,0.25,-2.4717837600351227,29.26901340484619,9.0,3.5051587301587306,10.0,28.931515265760435,10.0
subject-01,1,898,0.739954948425293,oven,bear,c01,c01_bear_10_n02132136_10428.png,False,-0.9024691447897031,1.5608985424041748,0.5,-1.1351223715929621,2.645357608795166,0.25,-2.4717837600351227,29.26901340484619,9.0,3.5051587301587306,10.0,28.931515265760435,10.0
subject-04,1,50,1.0054759979248,bicycle,bottle,c10,c10_bottle_10_n04557648_4165.png,False,1.4529704044882614,1.1166954040527344,1.0,-0.33431386344942093,2.619319200515747,0.1,-3.125001764630506,29.571709632873535,10.0,2.6297619047619047,9.0,31.94934013450309,9.0
subject-03,1,673,1.13552904129028,bird,bottle,c10,c10_bottle_10_n04557648_4165.png,False,1.096574700518907,1.1166954040527344,1.0,-0.33431386344942093,2.619319200515747,0.1,-3.125001764630506,29.571709632873535,10.0,2.6297619047619047,9.0,31.94934013450309,9.0
subject-02,1,1094,0.97884202003479,bird,bottle,c10,c10_bottle_10_n04557648_4165.png,False,0.6608786936397204,1.1166954040527344,1.0,-0.33431386344942093,2.619319200515747,0.1,-3.125001764630506,29.571709632873535,10.0,2.6297619047619047,9.0,31.94934013450309,9.0
subject-01,1,230,1.2266891002655,knife,bottle,c10,c10_bottle_10_n04557648_4165.png,False,1.638115334940052,1.1166954040527344,1.0,-0.33431386344942093,2.619319200515747,0.1,-3.125001764630506,29.571709632873535,10.0,2.6297619047619047,9.0,31.94934013450309,9.0
subject-04,1,51,0.579026937484741,car,car,c50,c50_car_10_n03100240_21982.png,True,-0.7661160035617871,0.158387154340744,1.0,-0.024833422085567835,2.5331897735595703,0.1111111111111111,-3.1305469427627934,25.32667139172554,9.0,5.213034188034188,6.0,30.123196318123263,5.0
subject-03,1,115,0.646233081817627,car,car,c50,c50_car_10_n03100240_21982.png,True,-0.9036777913682167,0.158387154340744,1.0,-0.024833422085567835,2.5331897735595703,0.1111111111111111,-3.1305469427627934,25.32667139172554,9.0,5.213034188034188,6.0,30.123196318123263,5.0
subject-02,1,809,0.64049506187439,car,car,c50,c50_car_10_n03100240_21982.png,True,-0.919761221743636,0.158387154340744,1.0,-0.024833422085567835,2.5331897735595703,0.1111111111111111,-3.1305469427627934,25.32667139172554,9.0,5.213034188034188,6.0,30.123196318123263,5.0
subject-01,1,1259,0.709326028823853,car,car,c50,c50_car_10_n03100240_21982.png,True,-1.0623415463380854,0.158387154340744,1.0,-0.024833422085567835,2.5331897735595703,0.1111111111111111,-3.1305469427627934,25.32667139172554,9.0,5.213034188034188,6.0,30.123196318123263,5.0
subject-04,1,52,0.796779870986938,bottle,dog,c05,c05_dog_10_n02094433_5139.png,False,0.36699137050328273,1.8963708877563477,0.1666666666666666,-3.3381448988390265,2.6552395820617676,0.0833333333333333,-3.1047004459898426,30.269290924072266,10.0,0.45719003219003207,10.0,38.62154092929094,6.0
subject-03,1,584,1.12591695785522,elephant,dog,c05,c05_dog_10_n02094433_5139.png,False,1.05728029501446,1.8963708877563477,0.1666666666666666,-3.3381448988390265,2.6552395820617676,0.0833333333333333,-3.1047004459898426,30.269290924072266,10.0,0.45719003219003207,10.0,38.62154092929094,6.0
subject-02,1,766,0.764563083648682,car,dog,c05,c05_dog_10_n02094433_5139.png,False,-0.3401583534177769,1.8963708877563477,0.1666666666666666,-3.3381448988390265,2.6552395820617676,0.0833333333333333,-3.1047004459898426,30.269290924072266,10.0,0.45719003219003207,10.0,38.62154092929094,6.0
subject-01,1,1096,0.888942003250122,airplane,dog,c05,c05_dog_10_n02094433_5139.png,False,-0.12480807922126236,1.8963708877563477,0.1666666666666666,-3.3381448988390265,2.6552395820617676,0.0833333333333333,-3.1047004459898426,30.269290924072266,10.0,0.45719003219003207,10.0,38.62154092929094,6.0
subject-04,1,53,0.636640071868896,oven,car,c03,c03_car_10_n04285008_3193.png,False,-0.46631812546326196,1.803720474243164,1.0,-0.7494950403631326,2.6683311462402344,0.0714285714285714,-3.1574652460907076,30.38765859603882,10.0,1.421540959040959,10.0,38.32993747009236,10.0
subject-03,1,401,0.881623029708862,boat,car,c03,c03_car_10_n04285008_3193.png,False,0.05860141964770503,1.803720474243164,1.0,-0.7494950403631326,2.6683311462402344,0.0714285714285714,-3.1574652460907076,30.38765859603882,10.0,1.421540959040959,10.0,38.32993747009236,10.0
subject-02,1,412,0.678154945373535,car,car,c03,c03_car_10_n04285008_3193.png,True,-0.7438272769223679,1.803720474243164,1.0,-0.7494950403631326,2.6683311462402344,0.0714285714285714,-3.1574652460907076,30.38765859603882,10.0,1.421540959040959,10.0,38.32993747009236,10.0
subject-01,1,434,0.897698879241943,bicycle,car,c03,c03_car_10_n04285008_3193.png,False,-0.07910020532002335,1.803720474243164,1.0,-0.7494950403631326,2.6683311462402344,0.0714285714285714,-3.1574652460907076,30.38765859603882,10.0,1.421540959040959,10.0,38.32993747009236,10.0
subject-04,1,54,0.804509878158569,cat,cat,c10,c10_cat_10_n02123597_488.png,True,0.40721552724311627,1.08839213848114,1.0,-0.3038740822484341,2.6278202533721924,0.1111111111111111,-2.9682987808176438,28.97869622707367,9.0,4.332972582972583,7.0,30.341302681462437,9.0
subject-03,1,1088,0.654874801635742,cat,cat,c10,c10_cat_10_n02123597_488.png,True,-0.86835025337055,1.08839213848114,1.0,-0.3038740822484341,2.6278202533721924,0.1111111111111111,-2.9682987808176438,28.97869622707367,9.0,4.332972582972583,7.0,30.341302681462437,9.0
subject-02,1,152,0.905946016311646,cat,cat,c10,c10_cat_10_n02123597_488.png,True,0.32033378736007867,1.08839213848114,1.0,-0.3038740822484341,2.6278202533721924,0.1111111111111111,-2.9682987808176438,28.97869622707367,9.0,4.332972582972583,7.0,30.341302681462437,9.0
subject-01,1,278,1.22048497200012,dog,cat,c10,c10_cat_10_n02123597_488.png,False,1.6057319241568044,1.08839213848114,1.0,-0.3038740822484341,2.6278202533721924,0.1111111111111111,-2.9682987808176438,28.97869622707367,9.0,4.332972582972583,7.0,30.341302681462437,9.0
subject-04,1,55,0.750708103179932,chair,airplane,c01,c01_airplane_10_n02690373_4793.png,False,0.12725058263552463,0.8392303586006165,1.0,-0.20239750158169506,2.6658453941345215,1.0,-2.0104099835531204,28.042785942554474,9.0,7.305555555555555,4.0,23.617999162023946,9.0
subject-03,1,701,0.844223976135254,knife,airplane,c01,c01_airplane_10_n02690373_4793.png,False,-0.0942867222970076,0.8392303586006165,1.0,-0.20239750158169506,2.6658453941345215,1.0,-2.0104099835531204,28.042785942554474,9.0,7.305555555555555,4.0,23.617999162023946,9.0
subject-02,1,35,0.934535026550293,airplane,airplane,c01,c01_airplane_10_n02690373_4793.png,True,0.45389175096702866,0.8392303586006165,1.0,-0.20239750158169506,2.6658453941345215,1.0,-2.0104099835531204,28.042785942554474,9.0,7.305555555555555,4.0,23.617999162023946,9.0
subject-01,1,419,0.890323877334595,chair,airplane,c01,c01_airplane_10_n02690373_4793.png,False,-0.11759517287663952,0.8392303586006165,1.0,-0.20239750158169506,2.6658453941345215,1.0,-2.0104099835531204,28.042785942554474,9.0,7.305555555555555,4.0,23.617999162023946,9.0
subject-04,1,56,0.904129981994629,keyboard,bottle,c05,c05_bottle_10_n04557648_4168.png,False,0.9256024552457585,1.5346479415893557,1.0,-0.6824148687668521,2.6599884033203125,0.1666666666666666,-2.723006686218145,30.02885389328003,10.0,2.9476551226551226,8.0,30.920367505774703,10.0
subject-03,1,571,1.21862602233887,chair,bottle,c05,c05_bottle_10_n04557648_4168.png,False,1.4362769608643229,1.5346479415893557,1.0,-0.6824148687668521,2.6599884033203125,0.1666666666666666,-2.723006686218145,30.02885389328003,10.0,2.9476551226551226,8.0,30.920367505774703,10.0
subject-02,1,953,0.592426061630249,cat,bottle,c05,c05_bottle_10_n04557648_4168.png,False,-1.1443229582864005,1.5346479415893557,1.0,-0.6824148687668521,2.6599884033203125,0.1666666666666666,-2.723006686218145,30.02885389328003,10.0,2.9476551226551226,8.0,30.920367505774703,10.0
subject-01,1,837,0.702527046203613,oven,bottle,c05,c05_bottle_10_n04557648_4168.png,False,-1.097829891788324,1.5346479415893557,1.0,-0.6824148687668521,2.6599884033203125,0.1666666666666666,-2.723006686218145,30.02885389328003,10.0,2.9476551226551226,8.0,30.920367505774703,10.0
subject-04,1,57,0.861974954605103,elephant,elephant,c15,c15_elephant_10_n02504013_2479.png,True,0.706242965475647,0.6067949533462524,1.0,-0.14018642944877963,2.6089630126953125,0.25,-2.4137032816034836,27.456996083259583,9.0,8.243589743589743,1.0,22.57525386399274,0.0
subject-03,1,1015,1.50000095367432,elephant,elephant,c15,c15_elephant_10_n02504013_2479.png,True,2.5865437813074994,0.6067949533462524,1.0,-0.14018642944877963,2.6089630126953125,0.25,-2.4137032816034836,27.456996083259583,9.0,8.243589743589743,1.0,22.57525386399274,0.0
subject-02,1,1260,0.761902809143066,elephant,elephant,c15,c15_elephant_10_n02504013_2479.png,True,-0.35258623541298,0.6067949533462524,1.0,-0.14018642944877963,2.6089630126953125,0.25,-2.4137032816034836,27.456996083259583,9.0,8.243589743589743,1.0,22.57525386399274,0.0
subject-01,1,975,1.10063982009888,elephant,elephant,c15,c15_elephant_10_n02504013_2479.png,True,0.9801815457007148,0.6067949533462524,1.0,-0.14018642944877963,2.6089630126953125,0.25,-2.4137032816034836,27.456996083259583,9.0,8.243589743589743,1.0,22.57525386399274,0.0
subject-04,1,58,0.837816953659058,chair,chair,c50,c50_chair_10_n04099969_25664.png,True,0.5805334809953455,0.0728779286146164,1.0,-0.008716734093549018,2.6348743438720703,0.1428571428571428,-2.6386600541752037,24.87327378243208,9.0,5.177380952380952,7.0,22.468805244935783,6.0
subject-03,1,887,0.633321046829224,chair,chair,c50,c50_chair_10_n04099969_25664.png,True,-0.9564624703766488,0.0728779286146164,1.0,-0.008716734093549018,2.6348743438720703,0.1428571428571428,-2.6386600541752037,24.87327378243208,9.0,5.177380952380952,7.0,22.468805244935783,6.0
subject-02,1,527,0.667580127716064,chair,chair,c50,c50_chair_10_n04099969_25664.png,True,-0.7932291659719375,0.0728779286146164,1.0,-0.008716734093549018,2.6348743438720703,0.1428571428571428,-2.6386600541752037,24.87327378243208,9.0,5.177380952380952,7.0,22.468805244935783,6.0
subject-01,1,937,0.94861102104187,chair,chair,c50,c50_chair_10_n04099969_25664.png,True,0.1866436238271021,0.0728779286146164,1.0,-0.008716734093549018,2.6348743438720703,0.1428571428571428,-2.6386600541752037,24.87327378243208,9.0,5.177380952380952,7.0,22.468805244935783,6.0
subject-04,1,59,0.54988694190979,boat,boat,c50,c50_boat_10_n03344393_4243.png,True,-0.9177499831144312,0.1098126396536827,1.0,-0.013995315353941468,2.529564380645752,0.3333333333333333,-2.2365120910499625,26.01290252059698,9.0,5.360714285714286,7.0,23.75613592917204,9.0
subject-03,1,192,0.543768882751465,boat,boat,c50,c50_boat_10_n03344393_4243.png,True,-1.3225536589151339,0.1098126396536827,1.0,-0.013995315353941468,2.529564380645752,0.3333333333333333,-2.2365120910499625,26.01290252059698,9.0,5.360714285714286,7.0,23.75613592917204,9.0
subject-02,1,931,0.574741125106812,boat,boat,c50,c50_boat_10_n03344393_4243.png,True,-1.2269408624695781,0.1098126396536827,1.0,-0.013995315353941468,2.529564380645752,0.3333333333333333,-2.2365120910499625,26.01290252059698,9.0,5.360714285714286,7.0,23.75613592917204,9.0
subject-01,1,747,0.764753103256226,boat,boat,c50,c50_boat_10_n03344393_4243.png,True,-0.7730313252917048,0.1098126396536827,1.0,-0.013995315353941468,2.529564380645752,0.3333333333333333,-2.2365120910499625,26.01290252059698,9.0,5.360714285714286,7.0,23.75613592917204,9.0
subject-04,1,60,0.65350079536438,bird,bird,c10,c10_bird_10_n02009229_263.png,True,-0.37858102903230945,1.364264726638794,1.0,-0.4354391789734603,2.6174445152282715,0.125,-2.943295175950354,28.544543266296387,9.0,4.920970695970696,6.0,30.23580587662538,9.0
subject-03,1,1074,0.873492002487183,bird,bird,c10,c10_bird_10_n02009229_263.png,True,0.025361604057781886,1.364264726638794,1.0,-0.4354391789734603,2.6174445152282715,0.125,-2.943295175950354,28.544543266296387,9.0,4.920970695970696,6.0,30.23580587662538,9.0
subject-02,1,1150,0.62227201461792,bird,bird,c10,c10_bird_10_n02009229_263.png,True,-1.0048929930771273,1.364264726638794,1.0,-0.4354391789734603,2.6174445152282715,0.125,-2.943295175950354,28.544543266296387,9.0,4.920970695970696,6.0,30.23580587662538,9.0
subject-01,1,654,1.00095891952515,bird,bird,c10,c10_bird_10_n02009229_263.png,True,0.459881607909944,1.364264726638794,1.0,-0.4354391789734603,2.6174445152282715,0.125,-2.943295175950354,28.544543266296387,9.0,4.920970695970696,6.0,30.23580587662538,9.0
subject-04,1,61,0.767553091049194,keyboard,bicycle,c03,c03_bicycle_10_n02835271_7355.png,False,0.21490579656863507,1.4071366786956787,1.0,-0.5682907049409069,2.6548566818237305,0.5,-2.216826108053364,29.479808807373047,10.0,4.376190476190477,9.0,25.430904820674147,9.0
subject-03,1,835,0.868285179138184,truck,bicycle,c03,c03_bicycle_10_n02835271_7355.png,False,0.004075997305835617,1.4071366786956787,1.0,-0.5682907049409069,2.6548566818237305,0.5,-2.216826108053364,29.479808807373047,10.0,4.376190476190477,9.0,25.430904820674147,9.0
subject-02,1,670,0.782416105270386,car,bicycle,c03,c03_bicycle_10_n02835271_7355.png,False,-0.2567552138154709,1.4071366786956787,1.0,-0.5682907049409069,2.6548566818237305,0.5,-2.216826108053364,29.479808807373047,10.0,4.376190476190477,9.0,25.430904820674147,9.0
subject-01,1,775,0.86362099647522,bicycle,bicycle,c03,c03_bicycle_10_n02835271_7355.png,True,-0.2569750056229408,1.4071366786956787,1.0,-0.5682907049409069,2.6548566818237305,0.5,-2.216826108053364,29.479808807373047,10.0,4.376190476190477,9.0,25.430904820674147,9.0
subject-04,1,62,0.686928987503052,keyboard,keyboard,c100,c100_keyboard_10_n04505470_9395.png,True,-0.2046328281755295,0.0579576753079891,1.0,-0.006722044873112935,2.465695381164551,0.1428571428571428,-3.024040472020518,25.3182588852942,9.0,5.115584415584415,6.0,26.48088862377828,9.0
subject-03,1,400,1.01393413543701,keyboard,keyboard,c100,c100_keyboard_10_n04505470_9395.png,True,0.5994920888089744,0.0579576753079891,1.0,-0.006722044873112935,2.465695381164551,0.1428571428571428,-3.024040472020518,25.3182588852942,9.0,5.115584415584415,6.0,26.48088862377828,9.0
subject-02,1,1079,0.611640930175781,keyboard,keyboard,c100,c100_keyboard_10_n04505470_9395.png,True,-1.054557741075511,0.0579576753079891,1.0,-0.006722044873112935,2.465695381164551,0.1428571428571428,-3.024040472020518,25.3182588852942,9.0,5.115584415584415,6.0,26.48088862377828,9.0
subject-01,1,875,0.911800146102905,keyboard,keyboard,c100,c100_keyboard_10_n04505470_9395.png,True,-0.005496453464844292,0.0579576753079891,1.0,-0.006722044873112935,2.465695381164551,0.1428571428571428,-3.024040472020518,25.3182588852942,9.0,5.115584415584415,6.0,26.48088862377828,9.0
subject-04,1,63,0.612920045852661,oven,oven,c100,c100_oven_10_n04111531_4685.png,True,-0.5897485470871342,0.0101883858442306,1.0,-0.0009722666264706742,2.4975900650024414,0.0625,-4.457727917828148,25.395241773687303,9.0,4.233134920634921,7.0,28.92023326729104,6.0
subject-03,1,1130,1.45746994018555,bird,oven,c100,c100_oven_10_n04111531_4685.png,False,2.4126760759516537,0.0101883858442306,1.0,-0.0009722666264706742,2.4975900650024414,0.0625,-4.457727917828148,25.395241773687303,9.0,4.233134920634921,7.0,28.92023326729104,6.0
subject-02,1,36,0.712236881256104,oven,oven,c100,c100_oven_10_n04111531_4685.png,True,-0.584608265341995,0.0101883858442306,1.0,-0.0009722666264706742,2.4975900650024414,0.0625,-4.457727917828148,25.395241773687303,9.0,4.233134920634921,7.0,28.92023326729104,6.0
subject-01,1,523,0.827410936355591,oven,oven,c100,c100_oven_10_n04111531_4685.png,True,-0.44597903667809485,0.0101883858442306,1.0,-0.0009722666264706742,2.4975900650024414,0.0625,-4.457727917828148,25.395241773687303,9.0,4.233134920634921,7.0,28.92023326729104,6.0
subject-04,1,64,0.672630071640015,oven,oven,c30,c30_oven_10_n04111531_8963.png,True,-0.2790392058300457,0.0674036145210266,1.0,-0.008963764156643829,2.581871032714844,0.0625,-5.123404764828121,26.96504896879196,9.0,2.525274725274725,9.0,35.7101895105113,9.0
subject-03,1,242,0.687768936157227,oven,oven,c30,c30_oven_10_n04111531_8963.png,True,-0.7338783181925362,0.0674036145210266,1.0,-0.008963764156643829,2.581871032714844,0.0625,-5.123404764828121,26.96504896879196,9.0,2.525274725274725,9.0,35.7101895105113,9.0
subject-02,1,1078,0.756036996841431,oven,oven,c30,c30_oven_10_n04111531_8963.png,True,-0.37998928082684036,0.0674036145210266,1.0,-0.008963764156643829,2.581871032714844,0.0625,-5.123404764828121,26.96504896879196,9.0,2.525274725274725,9.0,35.7101895105113,9.0
subject-01,1,715,0.791520833969116,oven,oven,c30,c30_oven_10_n04111531_8963.png,True,-0.6333129986658803,0.0674036145210266,1.0,-0.008963764156643829,2.581871032714844,0.0625,-5.123404764828121,26.96504896879196,9.0,2.525274725274725,9.0,35.7101895105113,9.0
subject-04,1,65,0.664709091186523,cat,car,c01,c01_car_10_n03100240_3289.png,False,-0.3202571183390705,1.7621986865997314,0.2,-2.9489903080813873,2.6286730766296387,0.0909090909090909,-3.2000731895705012,29.40940833091736,9.0,0.328185703185703,10.0,43.7116269718754,10.0
subject-03,1,843,0.906830072402954,dog,car,c01,c01_car_10_n03100240_3289.png,False,0.161648356753632,1.7621986865997314,0.2,-2.9489903080813873,2.6286730766296387,0.0909090909090909,-3.2000731895705012,29.40940833091736,9.0,0.328185703185703,10.0,43.7116269718754,10.0
subject-02,1,134,0.649519920349121,oven,car,c01,c01_car_10_n03100240_3289.png,False,-0.8776002056866128,1.7621986865997314,0.2,-2.9489903080813873,2.6286730766296387,0.0909090909090909,-3.2000731895705012,29.40940833091736,9.0,0.328185703185703,10.0,43.7116269718754,10.0
subject-01,1,881,0.773364782333374,oven,car,c01,c01_car_10_n03100240_3289.png,False,-0.728081329231025,1.7621986865997314,0.2,-2.9489903080813873,2.6286730766296387,0.0909090909090909,-3.2000731895705012,29.40940833091736,9.0,0.328185703185703,10.0,43.7116269718754,10.0
subject-04,1,66,0.598235130310059,cat,cat,c30,c30_cat_10_n02123394_5466.png,True,-0.6661635272264359,0.4411139786243438,1.0,-0.091520268624501,2.5577638149261475,0.1428571428571428,-2.835600432556679,26.28533884882927,9.0,5.141341991341991,6.0,26.847761562042294,9.0
subject-03,1,1038,0.55525016784668,cat,cat,c30,c30_cat_10_n02123394_5466.png,True,-1.2756179164934678,0.4411139786243438,1.0,-0.091520268624501,2.5577638149261475,0.1428571428571428,-2.835600432556679,26.28533884882927,9.0,5.141341991341991,6.0,26.847761562042294,9.0
subject-02,1,295,0.594746112823486,cat,cat,c30,c30_cat_10_n02123394_5466.png,True,-1.1334844818842433,0.4411139786243438,1.0,-0.091520268624501,2.5577638149261475,0.1428571428571428,-2.835600432556679,26.28533884882927,9.0,5.141341991341991,6.0,26.847761562042294,9.0
subject-01,1,134,0.681501865386963,cat,cat,c30,c30_cat_10_n02123394_5466.png,True,-1.2075740875969407,0.4411139786243438,1.0,-0.091520268624501,2.5577638149261475,0.1428571428571428,-2.835600432556679,26.28533884882927,9.0,5.141341991341991,6.0,26.847761562042294,9.0
subject-04,1,67,0.880112171173096,airplane,bicycle,c50,c50_bicycle_10_n03792782_11023.png,False,0.8006224693825403,0.0412939488887786,1.0,-0.004584254071275338,2.5354690551757812,0.3333333333333333,-2.0328000645742383,25.664801508188248,9.0,6.333333333333333,6.0,20.47303240821349,9.0
subject-03,1,103,0.832533121109009,bicycle,bicycle,c50,c50_bicycle_10_n03792782_11023.png,True,-0.14207919114089687,0.0412939488887786,1.0,-0.004584254071275338,2.5354690551757812,0.3333333333333333,-2.0328000645742383,25.664801508188248,9.0,6.333333333333333,6.0,20.47303240821349,9.0
subject-02,1,1084,,na,bicycle,c50,c50_bicycle_10_n03792782_11023.png,False,,0.0412939488887786,1.0,-0.004584254071275338,2.5354690551757812,0.3333333333333333,-2.0328000645742383,25.664801508188248,9.0,6.333333333333333,6.0,20.47303240821349,9.0
subject-01,1,34,0.843461036682129,bicycle,bicycle,c50,c50_bicycle_10_n03792782_11023.png,True,-0.3622030459580217,0.0412939488887786,1.0,-0.004584254071275338,2.5354690551757812,0.3333333333333333,-2.0328000645742383,25.664801508188248,9.0,6.333333333333333,6.0,20.47303240821349,9.0
subject-04,1,68,0.94579005241394,boat,elephant,c10,c10_elephant_10_n02504458_7359.png,False,1.142386368265764,1.1721731424331665,1.0,-0.36592276156283876,2.6042442321777344,0.2,-2.4300766482977787,29.194626212120056,10.0,5.153113553113553,9.0,25.695439935268652,0.0
subject-03,1,1045,1.10092210769653,bear,elephant,c10,c10_elephant_10_n02504458_7359.png,False,0.9551008055942966,1.1721731424331665,1.0,-0.36592276156283876,2.6042442321777344,0.2,-2.4300766482977787,29.194626212120056,10.0,5.153113553113553,9.0,25.695439935268652,0.0
subject-02,1,836,1.28946805000305,truck,elephant,c10,c10_elephant_10_n02504458_7359.png,False,2.112016024367948,1.1721731424331665,1.0,-0.36592276156283876,2.6042442321777344,0.2,-2.4300766482977787,29.194626212120056,10.0,5.153113553113553,9.0,25.695439935268652,0.0
subject-01,1,829,0.926263093948364,dog,elephant,c10,c10_elephant_10_n02504458_7359.png,False,0.06999514844637113,1.1721731424331665,1.0,-0.36592276156283876,2.6042442321777344,0.2,-2.4300766482977787,29.194626212120056,10.0,5.153113553113553,9.0,25.695439935268652,0.0
subject-04,1,69,0.841611862182617,chair,dog,c15,c15_dog_10_n02091032_3390.png,False,0.6002808100567183,1.836077094078064,0.5,-1.2287381595803586,2.594639301300049,0.125,-2.9413210013134057,30.145790457725525,10.0,2.2992424242424243,9.0,31.900125066020568,9.0
subject-03,1,1033,0.800078153610229,boat,dog,c15,c15_dog_10_n02091032_3390.png,False,-0.27475580200749145,1.836077094078064,0.5,-1.2287381595803586,2.594639301300049,0.125,-2.9413210013134057,30.145790457725525,10.0,2.2992424242424243,9.0,31.900125066020568,9.0
subject-02,1,377,0.588842153549194,airplane,dog,c15,c15_dog_10_n02091032_3390.png,False,-1.1610657367549304,1.836077094078064,0.5,-1.2287381595803586,2.594639301300049,0.125,-2.9413210013134057,30.145790457725525,10.0,2.2992424242424243,9.0,31.900125066020568,9.0
subject-01,1,1040,0.83422589302063,airplane,dog,c15,c15_dog_10_n02091032_3390.png,False,-0.41040731222077154,1.836077094078064,0.5,-1.2287381595803586,2.594639301300049,0.125,-2.9413210013134057,30.145790457725525,10.0,2.2992424242424243,9.0,31.900125066020568,9.0
subject-04,1,70,0.757473945617676,bottle,elephant,c05,c05_elephant_10_n02504013_7633.png,False,0.16245757541706066,1.39914870262146,1.0,-0.5499648328759079,2.655224323272705,0.1666666666666666,-2.5672985483501067,29.717697858810425,10.0,4.326923076923077,1.0,27.961678684076965,0.0
subject-03,1,820,0.77916407585144,cat,elephant,c05,c05_elephant_10_n02504013_7633.png,False,-0.3602530053721495,1.39914870262146,1.0,-0.5499648328759079,2.655224323272705,0.1666666666666666,-2.5672985483501067,29.717697858810425,10.0,4.326923076923077,1.0,27.961678684076965,0.0
subject-02,1,893,0.871894121170044,oven,elephant,c05,c05_elephant_10_n02504013_7633.png,False,0.16125511572695442,1.39914870262146,1.0,-0.5499648328759079,2.655224323272705,0.1666666666666666,-2.5672985483501067,29.717697858810425,10.0,4.326923076923077,1.0,27.961678684076965,0.0
subject-01,1,969,0.753968000411987,oven,elephant,c05,c05_elephant_10_n02504013_7633.png,False,-0.829325844167706,1.39914870262146,1.0,-0.5499648328759079,2.655224323272705,0.1666666666666666,-2.5672985483501067,29.717697858810425,10.0,4.326923076923077,1.0,27.961678684076965,0.0
subject-04,1,71,0.919337034225464,knife,knife,c100,c100_knife_10_n03041632_10263.png,True,1.0047344455405203,0.0165826342999935,1.0,-0.0018251494700558136,2.534719467163086,0.1666666666666666,-2.7387002320138927,25.89036985859275,9.0,6.101190476190476,5.0,22.449768873203336,5.0
subject-03,1,1139,0.925681829452515,knife,knife,c100,c100_knife_10_n03041632_10263.png,True,0.23871474834099712,0.0165826342999935,1.0,-0.0018251494700558136,2.534719467163086,0.1666666666666666,-2.7387002320138927,25.89036985859275,9.0,6.101190476190476,5.0,22.449768873203336,5.0
subject-02,1,1257,1.01856303215027,bottle,knife,c100,c100_knife_10_n03041632_10263.png,False,0.8464415181749698,0.0165826342999935,1.0,-0.0018251494700558136,2.534719467163086,0.1666666666666666,-2.7387002320138927,25.89036985859275,9.0,6.101190476190476,5.0,22.449768873203336,5.0
subject-01,1,412,1.31184101104736,knife,knife,c100,c100_knife_10_n03041632_10263.png,True,2.082578954626119,0.0165826342999935,1.0,-0.0018251494700558136,2.534719467163086,0.1666666666666666,-2.7387002320138927,25.89036985859275,9.0,6.101190476190476,5.0,22.449768873203336,5.0
subject-04,1,72,0.563235998153687,keyboard,keyboard,c50,c50_keyboard_10_n03085013_14279.png,True,-0.8482863307838123,0.1940772235393524,1.0,-0.03257048787813472,2.5602855682373047,0.25,-2.572343575264952,25.11825554072857,9.0,5.325840825840825,6.0,24.60524876530621,6.0
subject-03,1,883,0.542104959487915,keyboard,keyboard,c50,c50_keyboard_10_n03085013_14279.png,True,-1.3293558132959136,0.1940772235393524,1.0,-0.03257048787813472,2.5602855682373047,0.25,-2.572343575264952,25.11825554072857,9.0,5.325840825840825,6.0,24.60524876530621,6.0
subject-02,1,107,1.09814214706421,keyboard,keyboard,c50,c50_keyboard_10_n03085013_14279.png,True,1.21820760748091,0.1940772235393524,1.0,-0.03257048787813472,2.5602855682373047,0.25,-2.572343575264952,25.11825554072857,9.0,5.325840825840825,6.0,24.60524876530621,6.0
subject-01,1,651,0.761439085006714,keyboard,keyboard,c50,c50_keyboard_10_n03085013_14279.png,True,-0.7903293581057564,0.1940772235393524,1.0,-0.03257048787813472,2.5602855682373047,0.25,-2.572343575264952,25.11825554072857,9.0,5.325840825840825,6.0,24.60524876530621,6.0
subject-04,1,73,0.716804027557373,bicycle,bicycle,c50,c50_bicycle_10_n02835271_5751.png,True,-0.04917394345883303,0.0481861233711242,1.0,-0.005625484552188275,2.559727191925049,0.5,-2.0631668484621404,25.879700869321823,9.0,6.449999999999999,6.0,21.179913494147822,9.0
subject-03,1,374,0.873330116271973,bicycle,bicycle,c50,c50_bicycle_10_n02835271_5751.png,True,0.024699809699772278,0.0481861233711242,1.0,-0.005625484552188275,2.559727191925049,0.5,-2.0631668484621404,25.879700869321823,9.0,6.449999999999999,6.0,21.179913494147822,9.0
subject-02,1,284,0.898902893066406,bicycle,bicycle,c50,c50_bicycle_10_n02835271_5751.png,True,0.28743075258500933,0.0481861233711242,1.0,-0.005625484552188275,2.559727191925049,0.5,-2.0631668484621404,25.879700869321823,9.0,6.449999999999999,6.0,21.179913494147822,9.0
subject-01,1,880,0.766531944274902,bicycle,bicycle,c50,c50_bicycle_10_n02835271_5751.png,True,-0.763746388397779,0.0481861233711242,1.0,-0.005625484552188275,2.559727191925049,0.5,-2.0631668484621404,25.879700869321823,9.0,6.449999999999999,6.0,21.179913494147822,9.0
subject-04,1,74,0.96851110458374,cat,truck,c03,c03_truck_10_n04467665_30581.png,False,1.260618491920979,1.9332356452941897,0.2,-3.1219773142444893,2.64668345451355,0.1428571428571428,-2.7326376971132356,30.150249481201172,10.0,1.3940476190476188,1.0,33.71219969330931,0.0
subject-03,1,66,1.50016307830811,boat,truck,c03,c03_truck_10_n04467665_30581.png,False,2.5872065503258335,1.9332356452941897,0.2,-3.1219773142444893,2.64668345451355,0.1428571428571428,-2.7326376971132356,30.150249481201172,10.0,1.3940476190476188,1.0,33.71219969330931,0.0
subject-02,1,427,1.2713508605957,car,truck,c03,c03_truck_10_n04467665_30581.png,False,2.027378784277136,1.9332356452941897,0.2,-3.1219773142444893,2.64668345451355,0.1428571428571428,-2.7326376971132356,30.150249481201172,10.0,1.3940476190476188,1.0,33.71219969330931,0.0
subject-01,1,608,0.612596035003662,clock,truck,c03,c03_truck_10_n04467665_30581.png,False,-1.5672387681476028,1.9332356452941897,0.2,-3.1219773142444893,2.64668345451355,0.1428571428571428,-2.7326376971132356,30.150249481201172,10.0,1.3940476190476188,1.0,33.71219969330931,0.0
subject-04,1,75,0.816728115081787,knife,keyboard,c100,c100_keyboard_10_n03085013_2808.png,False,0.47079480552472314,0.7576576471328735,1.0,-0.15881157135439763,2.5829172134399414,0.1111111111111111,-3.001513077025659,28.496508479118347,10.0,5.169191919191919,6.0,27.918075166453427,5.0
subject-03,1,1267,0.713472843170166,keyboard,keyboard,c100,c100_keyboard_10_n03085013_2808.png,True,-0.6288001889774927,0.7576576471328735,1.0,-0.15881157135439763,2.5829172134399414,0.1111111111111111,-3.001513077025659,28.496508479118347,10.0,5.169191919191919,6.0,27.918075166453427,5.0
subject-02,1,650,0.840230941772461,knife,keyboard,c100,c100_keyboard_10_n03085013_2808.png,False,0.013335697518272948,0.7576576471328735,1.0,-0.15881157135439763,2.5829172134399414,0.1111111111111111,-3.001513077025659,28.496508479118347,10.0,5.169191919191919,6.0,27.918075166453427,5.0
subject-01,1,1020,1.0983259677887,knife,keyboard,c100,c100_keyboard_10_n03085013_2808.png,False,0.9681040343006928,0.7576576471328735,1.0,-0.15881157135439763,2.5829172134399414,0.1111111111111111,-3.001513077025659,28.496508479118347,10.0,5.169191919191919,6.0,27.918075166453427,5.0
subject-04,1,76,0.946367979049683,boat,clock,c03,c03_clock_10_n04548280_750.png,False,1.14539368909537,1.3099044561386108,1.0,-0.45173255967043907,2.6672301292419434,0.1666666666666666,-2.6661695687572515,28.85433781147003,9.0,3.133333333333333,9.0,31.603467753307328,9.0
subject-03,1,12,0.803172826766968,boat,clock,c03,c03_clock_10_n04548280_750.png,False,-0.2621047110399413,1.3099044561386108,1.0,-0.45173255967043907,2.6672301292419434,0.1666666666666666,-2.6661695687572515,28.85433781147003,9.0,3.133333333333333,9.0,31.603467753307328,9.0
subject-02,1,964,0.867197036743164,boat,clock,c03,c03_clock_10_n04548280_750.png,False,0.13931196254650705,1.3099044561386108,1.0,-0.45173255967043907,2.6672301292419434,0.1666666666666666,-2.6661695687572515,28.85433781147003,9.0,3.133333333333333,9.0,31.603467753307328,9.0
subject-01,1,876,0.865509986877441,oven,clock,c03,c03_clock_10_n04548280_750.png,False,-0.24711512691893583,1.3099044561386108,1.0,-0.45173255967043907,2.6672301292419434,0.1666666666666666,-2.6661695687572515,28.85433781147003,9.0,3.133333333333333,9.0,31.603467753307328,9.0
subject-04,1,77,0.630477905273438,car,car,c30,c30_car_10_n04285008_11323.png,True,-0.49838380787327846,0.0988563150167465,1.0,-0.012658688820831146,2.566540241241455,0.0833333333333333,-3.2688157285659676,26.043675765395164,9.0,4.417857142857143,7.0,31.88618543249973,9.0
subject-03,1,940,0.951194047927856,car,car,c30,c30_car_10_n04285008_11323.png,True,0.34300925065789545,0.0988563150167465,1.0,-0.012658688820831146,2.566540241241455,0.0833333333333333,-3.2688157285659676,26.043675765395164,9.0,4.417857142857143,7.0,31.88618543249973,9.0
subject-02,1,188,1.25710606575012,car,car,c30,c30_car_10_n04285008_11323.png,True,1.9608320316720875,0.0988563150167465,1.0,-0.012658688820831146,2.566540241241455,0.0833333333333333,-3.2688157285659676,26.043675765395164,9.0,4.417857142857143,7.0,31.88618543249973,9.0
subject-01,1,1103,0.855710983276367,car,car,c30,c30_car_10_n04285008_11323.png,True,-0.29826254768565774,0.0988563150167465,1.0,-0.012658688820831146,2.566540241241455,0.0833333333333333,-3.2688157285659676,26.043675765395164,9.0,4.417857142857143,7.0,31.88618543249973,9.0
subject-04,1,78,0.604135990142822,keyboard,keyboard,c05,c05_keyboard_10_n04505470_6080.png,True,-0.6354575905380528,0.9723917245864868,1.0,-0.29139956157941055,2.6373448371887207,0.1428571428571428,-2.7732337929049584,28.44366705417633,9.0,5.042063492063492,6.0,29.129726727218713,9.0
subject-03,1,645,1.04478693008423,keyboard,keyboard,c05,c05_keyboard_10_n04505470_6080.png,True,0.725618982317959,0.9723917245864868,1.0,-0.29139956157941055,2.6373448371887207,0.1428571428571428,-2.7732337929049584,28.44366705417633,9.0,5.042063492063492,6.0,29.129726727218713,9.0
subject-02,1,435,0.665760040283203,keyboard,keyboard,c05,c05_keyboard_10_n04505470_6080.png,True,-0.8017319846806071,0.9723917245864868,1.0,-0.29139956157941055,2.6373448371887207,0.1428571428571428,-2.7732337929049584,28.44366705417633,9.0,5.042063492063492,6.0,29.129726727218713,9.0
subject-01,1,155,0.843644142150879,keyboard,keyboard,c05,c05_keyboard_10_n04505470_6080.png,True,-0.36124729853347565,0.9723917245864868,1.0,-0.29139956157941055,2.6373448371887207,0.1428571428571428,-2.7732337929049584,28.44366705417633,9.0,5.042063492063492,6.0,29.129726727218713,9.0
subject-04,1,79,0.660006999969482,truck,truck,c100,c100_truck_10_n03417042_3338.png,True,-0.34472509746506474,0.1144876480102539,1.0,-0.014663270935031806,2.5520644187927246,0.1666666666666666,-2.7891369110944564,25.903823874890804,9.0,3.935714285714285,8.0,25.68014710424257,9.0
subject-03,1,157,0.630409002304077,truck,truck,c100,c100_truck_10_n03417042_3338.png,True,-0.968366971538255,0.1144876480102539,1.0,-0.014663270935031806,2.5520644187927246,0.1666666666666666,-2.7891369110944564,25.903823874890804,9.0,3.935714285714285,8.0,25.68014710424257,9.0
subject-02,1,313,1.25573706626892,truck,truck,c100,c100_truck_10_n03417042_3338.png,True,1.9544365397903543,0.1144876480102539,1.0,-0.014663270935031806,2.5520644187927246,0.1666666666666666,-2.7891369110944564,25.903823874890804,9.0,3.935714285714285,8.0,25.68014710424257,9.0
subject-01,1,681,1.13971304893494,car,truck,c100,c100_truck_10_n03417042_3338.png,False,1.1841303304295347,0.1144876480102539,1.0,-0.014663270935031806,2.5520644187927246,0.1666666666666666,-2.7891369110944564,25.903823874890804,9.0,3.935714285714285,8.0,25.68014710424257,9.0
subject-04,1,80,0.843464136123657,bicycle,bicycle,c15,c15_bicycle_10_n03792782_20193.png,True,0.6099193725671052,0.2863335013389587,1.0,-0.050738698364174925,2.573748826980591,0.5,-1.9949734679511588,25.901207208633423,9.0,6.319047619047619,6.0,20.742689119076573,9.0
subject-03,1,117,0.938217163085938,bicycle,bicycle,c15,c15_bicycle_10_n03792782_20193.png,True,0.28995946404213374,0.2863335013389587,1.0,-0.050738698364174925,2.573748826980591,0.5,-1.9949734679511588,25.901207208633423,9.0,6.319047619047619,6.0,20.742689119076573,9.0
subject-02,1,733,0.606533050537109,bicycle,bicycle,c15,c15_bicycle_10_n03792782_20193.png,True,-1.0784199873441218,0.2863335013389587,1.0,-0.050738698364174925,2.573748826980591,0.5,-1.9949734679511588,25.901207208633423,9.0,6.319047619047619,6.0,20.742689119076573,9.0
subject-01,1,282,0.823670148849487,bicycle,bicycle,c15,c15_bicycle_10_n03792782_20193.png,True,-0.46550465789050366,0.2863335013389587,1.0,-0.050738698364174925,2.573748826980591,0.5,-1.9949734679511588,25.901207208633423,9.0,6.319047619047619,6.0,20.742689119076573,9.0
subject-04,1,81,0.878767013549805,keyboard,keyboard,c03,c03_keyboard_10_n04505470_4887.png,True,0.7936227564614948,1.3070902824401855,1.0,-0.4253532484799242,2.6713080406188965,0.1,-2.861104806665944,29.224302768707275,9.0,3.764199689199689,8.0,30.504832217129945,9.0
subject-03,1,337,1.33978295326233,keyboard,keyboard,c03,c03_keyboard_10_n04505470_4887.png,True,1.931569121564439,1.3070902824401855,1.0,-0.4253532484799242,2.6713080406188965,0.1,-2.861104806665944,29.224302768707275,9.0,3.764199689199689,8.0,30.504832217129945,9.0
subject-02,1,638,0.621474027633667,keyboard,keyboard,c03,c03_keyboard_10_n04505470_4887.png,True,-1.0086209121520457,1.3070902824401855,1.0,-0.4253532484799242,2.6713080406188965,0.1,-2.861104806665944,29.224302768707275,9.0,3.764199689199689,8.0,30.504832217129945,9.0
subject-01,1,182,0.841577053070068,keyboard,keyboard,c03,c03_keyboard_10_n04505470_4887.png,True,-0.37203679094339254,1.3070902824401855,1.0,-0.4253532484799242,2.6713080406188965,0.1,-2.861104806665944,29.224302768707275,9.0,3.764199689199689,8.0,30.504832217129945,9.0
subject-04,1,82,0.66656494140625,oven,bottle,c01,c01_bottle_10_n04591713_1879.png,False,-0.3105999461700823,1.583083987236023,0.25,-3.217645303046657,2.626455545425415,0.1428571428571428,-2.8243237657793903,29.094071865081787,9.0,0.8741813741813739,10.0,37.97433284156118,0.0
subject-03,1,563,0.713837146759033,oven,bottle,c01,c01_bottle_10_n04591713_1879.png,False,-0.6273109080068916,1.583083987236023,0.25,-3.217645303046657,2.626455545425415,0.1428571428571428,-2.8243237657793903,29.094071865081787,9.0,0.8741813741813739,10.0,37.97433284156118,0.0
subject-02,1,436,0.625937938690186,cat,bottle,c01,c01_bottle_10_n04591713_1879.png,False,-0.9877670642764279,1.583083987236023,0.25,-3.217645303046657,2.626455545425415,0.1428571428571428,-2.8243237657793903,29.094071865081787,9.0,0.8741813741813739,10.0,37.97433284156118,0.0
subject-01,1,245,0.902717113494873,cat,bottle,c01,c01_bottle_10_n04591713_1879.png,False,-0.05290675246605599,1.583083987236023,0.25,-3.217645303046657,2.626455545425415,0.1428571428571428,-2.8243237657793903,29.094071865081787,9.0,0.8741813741813739,10.0,37.97433284156118,0.0
subject-04,1,83,0.568460941314697,clock,oven,c01,c01_oven_10_n04111531_5102.png,False,-0.8210976195706445,1.5363590717315674,0.0666666666666666,-4.881723723311682,2.621618270874023,0.0625,-4.700352041500843,28.96543061733246,9.0,0.2829725829725828,9.0,46.101536736837886,6.0
subject-03,1,1011,1.12242388725281,keyboard,oven,c01,c01_oven_10_n04111531_5102.png,False,1.043000546650426,1.5363590717315674,0.0666666666666666,-4.881723723311682,2.621618270874023,0.0625,-4.700352041500843,28.96543061733246,9.0,0.2829725829725828,9.0,46.101536736837886,6.0
subject-02,1,590,0.64610481262207,bicycle,oven,c01,c01_oven_10_n04111531_5102.png,False,-0.8935544073087001,1.5363590717315674,0.0666666666666666,-4.881723723311682,2.621618270874023,0.0625,-4.700352041500843,28.96543061733246,9.0,0.2829725829725828,9.0,46.101536736837886,6.0
subject-01,1,1039,1.1309540271759,oven,oven,c01,c01_oven_10_n04111531_5102.png,True,1.1384112563631272,1.5363590717315674,0.0666666666666666,-4.881723723311682,2.621618270874023,0.0625,-4.700352041500843,28.96543061733246,9.0,0.2829725829725828,9.0,46.101536736837886,6.0
subject-04,1,84,0.732028007507324,dog,dog,c30,c30_dog_10_n02101388_8775.png,True,0.030046132553296297,1.5859003067016602,1.0,-0.5822325167201158,2.5588507652282715,0.1428571428571428,-2.842934784998072,29.550944328308105,10.0,3.7206349206349207,8.0,29.4468823486865,9.0
subject-03,1,191,0.707775115966797,dog,dog,c30,c30_dog_10_n02101388_8775.png,True,-0.6520926213305314,1.5859003067016602,1.0,-0.5822325167201158,2.5588507652282715,0.1428571428571428,-2.842934784998072,29.550944328308105,10.0,3.7206349206349207,8.0,29.4468823486865,9.0
subject-02,1,328,1.00257587432861,dog,dog,c30,c30_dog_10_n02101388_8775.png,True,0.7717550486294994,1.5859003067016602,1.0,-0.5822325167201158,2.5588507652282715,0.1428571428571428,-2.842934784998072,29.550944328308105,10.0,3.7206349206349207,8.0,29.4468823486865,9.0
subject-01,1,477,0.995477914810181,dog,dog,c30,c30_dog_10_n02101388_8775.png,True,0.43127265277595644,1.5859003067016602,1.0,-0.5822325167201158,2.5588507652282715,0.1428571428571428,-2.842934784998072,29.550944328308105,10.0,3.7206349206349207,8.0,29.4468823486865,9.0
subject-04,1,85,0.628350019454956,bird,bird,c50,c50_bird_10_n02027492_6499.png,True,-0.5094565547396995,0.5534026622772217,1.0,-0.09672578429465066,2.496978759765625,0.1111111111111111,-3.103401532837294,26.039702266454697,9.0,4.946825396825396,6.0,28.791106690134697,9.0
subject-03,1,402,0.773469924926758,bird,bird,c50,c50_bird_10_n02027492_6499.png,True,-0.38353081782036985,0.5534026622772217,1.0,-0.09672578429465066,2.496978759765625,0.1111111111111111,-3.103401532837294,26.039702266454697,9.0,4.946825396825396,6.0,28.791106690134697,9.0
subject-02,1,537,0.593614101409912,bird,bird,c50,c50_bird_10_n02027492_6499.png,True,-1.138772847515467,0.5534026622772217,1.0,-0.09672578429465066,2.496978759765625,0.1111111111111111,-3.103401532837294,26.039702266454697,9.0,4.946825396825396,6.0,28.791106690134697,9.0
subject-01,1,339,0.803296804428101,bird,bird,c50,c50_bird_10_n02027492_6499.png,True,-0.5718464924247579,0.5534026622772217,1.0,-0.09672578429465066,2.496978759765625,0.1111111111111111,-3.103401532837294,26.039702266454697,9.0,4.946825396825396,6.0,28.791106690134697,9.0
subject-04,1,86,0.779700040817261,bird,bird,c05,c05_bird_10_n02056570_13462.png,True,0.2781141223221698,1.78864324092865,1.0,-0.8890581280883967,2.601731061935425,0.0769230769230769,-3.278485743462509,29.842813372612,9.0,3.9609279609279606,7.0,33.182022204304374,9.0
subject-03,1,62,0.633798122406006,bird,bird,c05,c05_bird_10_n02056570_13462.png,True,-0.9545121750741796,1.78864324092865,1.0,-0.8890581280883967,2.601731061935425,0.0769230769230769,-3.278485743462509,29.842813372612,9.0,3.9609279609279606,7.0,33.182022204304374,9.0
subject-02,1,397,0.993448972702026,bird,bird,c05,c05_bird_10_n02056570_13462.png,True,0.7291173222754864,1.78864324092865,1.0,-0.8890581280883967,2.601731061935425,0.0769230769230769,-3.278485743462509,29.842813372612,9.0,3.9609279609279606,7.0,33.182022204304374,9.0
subject-01,1,878,0.942876100540161,bird,bird,c05,c05_bird_10_n02056570_13462.png,True,0.15670931581924916,1.78864324092865,1.0,-0.8890581280883967,2.601731061935425,0.0769230769230769,-3.278485743462509,29.842813372612,9.0,3.9609279609279606,7.0,33.182022204304374,9.0
subject-04,1,87,0.657502889633179,boat,bicycle,c03,c03_bicycle_10_n03792782_4844.png,False,-0.357755580416096,1.3589249849319458,1.0,-0.5782662502967993,2.5740957260131836,0.3333333333333333,-2.2159676598410134,29.331375002861023,10.0,3.5928571428571425,10.0,26.017415293880823,9.0
subject-03,1,935,0.830234050750732,car,bicycle,c03,c03_bicycle_10_n03792782_4844.png,False,-0.15147784061702133,1.3589249849319458,1.0,-0.5782662502967993,2.5740957260131836,0.3333333333333333,-2.2159676598410134,29.331375002861023,10.0,3.5928571428571425,10.0,26.017415293880823,9.0
subject-02,1,1095,0.568588018417358,boat,bicycle,c03,c03_bicycle_10_n03792782_4844.png,False,-1.255686047855145,1.3589249849319458,1.0,-0.5782662502967993,2.5740957260131836,0.3333333333333333,-2.2159676598410134,29.331375002861023,10.0,3.5928571428571425,10.0,26.017415293880823,9.0
subject-01,1,422,0.983865022659302,cat,bicycle,c03,c03_bicycle_10_n03792782_4844.png,False,0.37065735908482333,1.3589249849319458,1.0,-0.5782662502967993,2.5740957260131836,0.3333333333333333,-2.2159676598410134,29.331375002861023,10.0,3.5928571428571425,10.0,26.017415293880823,9.0
subject-04,1,88,0.839717149734497,cat,cat,c50,c50_cat_10_n02123159_8273.png,True,0.590421412930957,0.2838059663772583,1.0,-0.04229160565729138,2.490172863006592,0.1666666666666666,-2.6376270963539628,25.150509886443615,9.0,5.289393939393939,6.0,24.481134765174954,9.0
subject-03,1,450,0.632285833358765,cat,cat,c50,c50_cat_10_n02123159_8273.png,True,-0.9606944454907544,0.2838059663772583,1.0,-0.04229160565729138,2.490172863006592,0.1666666666666666,-2.6376270963539628,25.150509886443615,9.0,5.289393939393939,6.0,24.481134765174954,9.0
subject-02,1,447,0.697479963302612,cat,cat,c50,c50_cat_10_n02123159_8273.png,True,-0.6535474799049018,0.2838059663772583,1.0,-0.04229160565729138,2.490172863006592,0.1666666666666666,-2.6376270963539628,25.150509886443615,9.0,5.289393939393939,6.0,24.481134765174954,9.0
subject-01,1,529,0.682315111160278,cat,cat,c50,c50_cat_10_n02123159_8273.png,True,-1.2033292250121428,0.2838059663772583,1.0,-0.04229160565729138,2.490172863006592,0.1666666666666666,-2.6376270963539628,25.150509886443615,9.0,5.289393939393939,6.0,24.481134765174954,9.0
subject-04,1,89,0.657180070877075,knife,knife,c15,c15_knife_10_n03041632_11700.png,True,-0.35943541226563724,0.2886039614677429,1.0,-0.05078065019012792,2.601280212402344,0.3333333333333333,-2.2661392484582166,27.463682115077972,9.0,6.833333333333333,5.0,21.517476271325325,9.0
subject-03,1,1175,0.849043846130371,knife,knife,c15,c15_knife_10_n03041632_11700.png,True,-0.07458298924616576,0.2886039614677429,1.0,-0.05078065019012792,2.601280212402344,0.3333333333333333,-2.2661392484582166,27.463682115077972,9.0,6.833333333333333,5.0,21.517476271325325,9.0
subject-02,1,738,1.08965110778809,bottle,knife,c15,c15_knife_10_n03041632_11700.png,False,1.1785404100103163,0.2886039614677429,1.0,-0.05078065019012792,2.601280212402344,0.3333333333333333,-2.2661392484582166,27.463682115077972,9.0,6.833333333333333,5.0,21.517476271325325,9.0
subject-01,1,484,0.89868688583374,knife,knife,c15,c15_knife_10_n03041632_11700.png,True,-0.07394315150840962,0.2886039614677429,1.0,-0.05078065019012792,2.601280212402344,0.3333333333333333,-2.2661392484582166,27.463682115077972,9.0,6.833333333333333,5.0,21.517476271325325,9.0
subject-04,1,90,0.68100905418396,bicycle,bicycle,c30,c30_bicycle_10_n03792782_67167.png,True,-0.23543801637644524,0.1420339494943618,1.0,-0.02155175716457749,2.5342156887054443,1.0,-1.7938674619796764,25.75772114098072,9.0,6.949999999999999,4.0,19.79926578627651,9.0
subject-03,1,211,0.536086082458496,bicycle,bicycle,c30,c30_bicycle_10_n03792782_67167.png,True,-1.3539611131014406,0.1420339494943618,1.0,-0.02155175716457749,2.5342156887054443,1.0,-1.7938674619796764,25.75772114098072,9.0,6.949999999999999,4.0,19.79926578627651,9.0
subject-02,1,1112,0.609601974487305,bicycle,bicycle,c30,c30_bicycle_10_n03792782_67167.png,True,-1.064083036542702,0.1420339494943618,1.0,-0.02155175716457749,2.5342156887054443,1.0,-1.7938674619796764,25.75772114098072,9.0,6.949999999999999,4.0,19.79926578627651,9.0
subject-01,1,1196,0.837602138519287,bicycle,bicycle,c30,c30_bicycle_10_n03792782_67167.png,True,-0.3927844746179122,0.1420339494943618,1.0,-0.02155175716457749,2.5342156887054443,1.0,-1.7938674619796764,25.75772114098072,9.0,6.949999999999999,4.0,19.79926578627651,9.0
subject-04,1,91,0.604782819747925,bottle,bottle,c100,c100_bottle_10_n03983396_17803.png,True,-0.6320917236194408,0.5290066003799438,1.0,-0.09436599935167815,2.515793561935425,0.1666666666666666,-2.785071465604578,26.180693984031677,9.0,4.722557997557997,7.0,25.871799019249988,0.0
subject-03,1,57,0.612541913986206,bottle,bottle,c100,c100_bottle_10_n03983396_17803.png,True,-1.04140801599958,0.5290066003799438,1.0,-0.09436599935167815,2.515793561935425,0.1666666666666666,-2.785071465604578,26.180693984031677,9.0,4.722557997557997,7.0,25.871799019249988,0.0
subject-02,1,937,0.625648021697998,bottle,bottle,c100,c100_bottle_10_n03983396_17803.png,True,-0.9891214561482853,0.5290066003799438,1.0,-0.09436599935167815,2.515793561935425,0.1666666666666666,-2.785071465604578,26.180693984031677,9.0,4.722557997557997,7.0,25.871799019249988,0.0
subject-01,1,488,0.842176914215088,bottle,bottle,c100,c100_bottle_10_n03983396_17803.png,True,-0.36890572255776793,0.5290066003799438,1.0,-0.09436599935167815,2.515793561935425,0.1666666666666666,-2.785071465604578,26.180693984031677,9.0,4.722557997557997,7.0,25.871799019249988,0.0
subject-04,1,92,1.25854182243347,cat,cat,c05,c05_cat_10_n02125311_46330.png,True,2.7698332694918113,1.4427248239517212,1.0,-0.6292891139864174,2.655367612838745,0.125,-2.8812488521678508,29.590805888175964,10.0,1.938503163503163,10.0,34.57550537523776,10.0
subject-03,1,13,0.92146897315979,cat,cat,c05,c05_cat_10_n02125311_46330.png,True,0.22149250046760877,1.4427248239517212,1.0,-0.6292891139864174,2.655367612838745,0.125,-2.8812488521678508,29.590805888175964,10.0,1.938503163503163,10.0,34.57550537523776,10.0
subject-02,1,1205,0.984153032302856,elephant,cat,c05,c05_cat_10_n02125311_46330.png,False,0.6856899052659117,1.4427248239517212,1.0,-0.6292891139864174,2.655367612838745,0.125,-2.8812488521678508,29.590805888175964,10.0,1.938503163503163,10.0,34.57550537523776,10.0
subject-01,1,620,1.03257393836975,bear,cat,c05,c05_cat_10_n02125311_46330.png,False,0.6249011075675796,1.4427248239517212,1.0,-0.6292891139864174,2.655367612838745,0.125,-2.8812488521678508,29.590805888175964,10.0,1.938503163503163,10.0,34.57550537523776,10.0
