subject_id,session,trial,rt,object_response,category,condition,item_id,response_correct,rt_zscore,output_entropy,output_rank_correct,output_logprob_correct,midpoint_entropy,midpoint_rank_correct,midpoint_logprob_correct,auc_entropy,layer_biggest_change_entropy,auc_rank_correct,layer_biggest_change_rank_correct,auc_logprob_correct,layer_biggest_change_logprob_correct
subject-05,1,1,1.17140913009644,bear,bear,0,bear5-bird1.png,True,2.0246943316140413,0.3003198504447937,1.0,-0.04952605453453291,2.4326422214508057,0.5,-1.7730154616522413,27.94686859846115,10.0,9.25,5.0,19.14736079972635,9.0
subject-01,1,1155,0.678186178207397,cat,bear,0,bear5-bird1.png,False,-0.9791752720691352,0.3003198504447937,1.0,-0.04952605453453291,2.4326422214508057,0.5,-1.7730154616522413,27.94686859846115,10.0,9.25,5.0,19.14736079972635,9.0
subject-06,1,1180,0.83032488822937,dog,bear,0,bear5-bird1.png,False,-0.10391597249450335,0.3003198504447937,1.0,-0.04952605453453291,2.4326422214508057,0.5,-1.7730154616522413,27.94686859846115,10.0,9.25,5.0,19.14736079972635,9.0
subject-02,1,610,1.28843688964844,cat,bear,0,bear5-bird1.png,False,1.954492096021572,0.3003198504447937,1.0,-0.04952605453453291,2.4326422214508057,0.5,-1.7730154616522413,27.94686859846115,10.0,9.25,5.0,19.14736079972635,9.0
subject-08,1,251,0.793365001678467,cat,bear,0,bear5-bird1.png,False,-0.13981837558151278,0.3003198504447937,1.0,-0.04952605453453291,2.4326422214508057,0.5,-1.7730154616522413,27.94686859846115,10.0,9.25,5.0,19.14736079972635,9.0
subject-09,1,476,0.694817781448364,bear,bear,0,bear5-bird1.png,True,-0.1419004054223082,0.3003198504447937,1.0,-0.04952605453453291,2.4326422214508057,0.5,-1.7730154616522413,27.94686859846115,10.0,9.25,5.0,19.14736079972635,9.0
subject-03,1,540,0.704954147338867,bear,bear,0,bear5-bird1.png,True,-0.17731147922536822,0.3003198504447937,1.0,-0.04952605453453291,2.4326422214508057,0.5,-1.7730154616522413,27.94686859846115,10.0,9.25,5.0,19.14736079972635,9.0
subject-10,1,986,0.9430091381073,bear,bear,0,bear5-bird1.png,True,0.08064264026199928,0.3003198504447937,1.0,-0.04952605453453291,2.4326422214508057,0.5,-1.7730154616522413,27.94686859846115,10.0,9.25,5.0,19.14736079972635,9.0
subject-07,1,852,1.19378304481506,dog,bear,0,bear5-bird1.png,False,1.4687318876610354,0.3003198504447937,1.0,-0.04952605453453291,2.4326422214508057,0.5,-1.7730154616522413,27.94686859846115,10.0,9.25,5.0,19.14736079972635,9.0
subject-04,1,619,1.23545789718628,bicycle,bear,0,bear5-bird1.png,False,0.4767266851148797,0.3003198504447937,1.0,-0.04952605453453291,2.4326422214508057,0.5,-1.7730154616522413,27.94686859846115,10.0,9.25,5.0,19.14736079972635,9.0
subject-05,1,2,1.07968497276306,boat,dog,0,dog8-boat3.png,False,1.513175157980663,1.360724925994873,0.0769230769230769,-5.0005710138799,2.418125629425049,0.125,-3.4638075264966375,29.283223867416382,10.0,0.34478021978021955,4.0,42.29518133637969,0.0
subject-01,1,999,0.796158075332642,dog,dog,0,dog8-boat3.png,True,-0.4669853222408805,1.360724925994873,0.0769230769230769,-5.0005710138799,2.418125629425049,0.125,-3.4638075264966375,29.283223867416382,10.0,0.34478021978021955,4.0,42.29518133637969,0.0
subject-06,1,485,0.963536977767944,elephant,dog,0,dog8-boat3.png,False,0.4404305579206497,1.360724925994873,0.0769230769230769,-5.0005710138799,2.418125629425049,0.125,-3.4638075264966375,29.283223867416382,10.0,0.34478021978021955,4.0,42.29518133637969,0.0
subject-02,1,940,1.20622396469116,dog,dog,0,dog8-boat3.png,True,1.5270723828110273,1.360724925994873,0.0769230769230769,-5.0005710138799,2.418125629425049,0.125,-3.4638075264966375,29.283223867416382,10.0,0.34478021978021955,4.0,42.29518133637969,0.0
subject-08,1,352,0.876772880554199,dog,dog,0,dog8-boat3.png,True,0.24844864069217779,1.360724925994873,0.0769230769230769,-5.0005710138799,2.418125629425049,0.125,-3.4638075264966375,29.283223867416382,10.0,0.34478021978021955,4.0,42.29518133637969,0.0
subject-09,1,291,1.20530700683594,dog,dog,0,dog8-boat3.png,True,1.8203769917965604,1.360724925994873,0.0769230769230769,-5.0005710138799,2.418125629425049,0.125,-3.4638075264966375,29.283223867416382,10.0,0.34478021978021955,4.0,42.29518133637969,0.0
subject-03,1,3,1.25473189353943,clock,dog,0,dog8-boat3.png,False,3.016136520497043,1.360724925994873,0.0769230769230769,-5.0005710138799,2.418125629425049,0.125,-3.4638075264966375,29.283223867416382,10.0,0.34478021978021955,4.0,42.29518133637969,0.0
subject-10,1,875,0.809468030929565,dog,dog,0,dog8-boat3.png,True,-0.5768741060466103,1.360724925994873,0.0769230769230769,-5.0005710138799,2.418125629425049,0.125,-3.4638075264966375,29.283223867416382,10.0,0.34478021978021955,4.0,42.29518133637969,0.0
subject-07,1,471,0.95888614654541,chair,dog,0,dog8-boat3.png,False,0.28619534568512106,1.360724925994873,0.0769230769230769,-5.0005710138799,2.418125629425049,0.125,-3.4638075264966375,29.283223867416382,10.0,0.34478021978021955,4.0,42.29518133637969,0.0
subject-04,1,169,1.50027394294739,car,dog,0,dog8-boat3.png,False,1.452144016844532,1.360724925994873,0.0769230769230769,-5.0005710138799,2.418125629425049,0.125,-3.4638075264966375,29.283223867416382,10.0,0.34478021978021955,4.0,42.29518133637969,0.0
subject-05,1,3,0.697608947753906,keyboard,keyboard,0,keyboard9-airplane3.png,True,-0.6175526487351447,0.4958792924880981,1.0,-0.1502198005442713,2.3945136070251465,0.1111111111111111,-3.505103692884625,26.77174723148346,9.0,4.4886002886002885,7.0,29.4965828723325,9.0
subject-01,1,1266,0.637749910354614,keyboard,keyboard,0,keyboard9-airplane3.png,True,-1.154734456141346,0.4958792924880981,1.0,-0.1502198005442713,2.3945136070251465,0.1111111111111111,-3.505103692884625,26.77174723148346,9.0,4.4886002886002885,7.0,29.4965828723325,9.0
subject-06,1,1203,0.649715185165405,keyboard,keyboard,0,keyboard9-airplane3.png,True,-0.84194407161618,0.4958792924880981,1.0,-0.1502198005442713,2.3945136070251465,0.1111111111111111,-3.505103692884625,26.77174723148346,9.0,4.4886002886002885,7.0,29.4965828723325,9.0
subject-02,1,447,0.850757122039795,keyboard,keyboard,0,keyboard9-airplane3.png,True,-0.32097688706780514,0.4958792924880981,1.0,-0.1502198005442713,2.3945136070251465,0.1111111111111111,-3.505103692884625,26.77174723148346,9.0,4.4886002886002885,7.0,29.4965828723325,9.0
subject-08,1,117,0.693919897079468,keyboard,keyboard,0,keyboard9-airplane3.png,True,-0.6027393198151466,0.4958792924880981,1.0,-0.1502198005442713,2.3945136070251465,0.1111111111111111,-3.505103692884625,26.77174723148346,9.0,4.4886002886002885,7.0,29.4965828723325,9.0
subject-09,1,288,0.481716871261597,keyboard,keyboard,0,keyboard9-airplane3.png,True,-0.9610422767689197,0.4958792924880981,1.0,-0.1502198005442713,2.3945136070251465,0.1111111111111111,-3.505103692884625,26.77174723148346,9.0,4.4886002886002885,7.0,29.4965828723325,9.0
subject-03,1,640,0.561503887176514,keyboard,keyboard,0,keyboard9-airplane3.png,True,-1.0105590043225499,0.4958792924880981,1.0,-0.1502198005442713,2.3945136070251465,0.1111111111111111,-3.505103692884625,26.77174723148346,9.0,4.4886002886002885,7.0,29.4965828723325,9.0
subject-10,1,598,0.681053876876831,keyboard,keyboard,0,keyboard9-airplane3.png,True,-1.2091472580158318,0.4958792924880981,1.0,-0.1502198005442713,2.3945136070251465,0.1111111111111111,-3.505103692884625,26.77174723148346,9.0,4.4886002886002885,7.0,29.4965828723325,9.0
subject-07,1,666,0.722597122192383,keyboard,keyboard,0,keyboard9-airplane3.png,True,-0.9033495475153438,0.4958792924880981,1.0,-0.1502198005442713,2.3945136070251465,0.1111111111111111,-3.505103692884625,26.77174723148346,9.0,4.4886002886002885,7.0,29.4965828723325,9.0
subject-04,1,577,0.742085933685303,keyboard,keyboard,0,keyboard9-airplane3.png,True,-1.3405482568366036,0.4958792924880981,1.0,-0.1502198005442713,2.3945136070251465,0.1111111111111111,-3.505103692884625,26.77174723148346,9.0,4.4886002886002885,7.0,29.4965828723325,9.0
subject-05,1,4,0.897624969482422,cat,dog,0,dog1-knife3.png,False,0.4978790229469807,1.88526713848114,0.2,-3.08633504576162,2.50291109085083,0.125,-3.0753304020986567,30.13749396800995,10.0,0.6199494949494948,10.0,37.65799786553386,0.0
subject-01,1,175,1.47765588760376,dog,dog,0,dog1-knife3.png,True,2.4918238414757385,1.88526713848114,0.2,-3.08633504576162,2.50291109085083,0.125,-3.0753304020986567,30.13749396800995,10.0,0.6199494949494948,10.0,37.65799786553386,0.0
subject-06,1,823,0.783266067504883,dog,dog,0,dog1-knife3.png,True,-0.2962131271711854,1.88526713848114,0.2,-3.08633504576162,2.50291109085083,0.125,-3.0753304020986567,30.13749396800995,10.0,0.6199494949494948,10.0,37.65799786553386,0.0
subject-02,1,1142,0.911645889282227,dog,dog,0,dog1-knife3.png,True,-0.0044200993604314376,1.88526713848114,0.2,-3.08633504576162,2.50291109085083,0.125,-3.0753304020986567,30.13749396800995,10.0,0.6199494949494948,10.0,37.65799786553386,0.0
subject-08,1,20,0.701452970504761,bear,dog,0,dog1-knife3.png,False,-0.567672561354992,1.88526713848114,0.2,-3.08633504576162,2.50291109085083,0.125,-3.0753304020986567,30.13749396800995,10.0,0.6199494949494948,10.0,37.65799786553386,0.0
subject-09,1,696,0.741172075271606,dog,dog,0,dog1-knife3.png,True,0.03628157866233312,1.88526713848114,0.2,-3.08633504576162,2.50291109085083,0.125,-3.0753304020986567,30.13749396800995,10.0,0.6199494949494948,10.0,37.65799786553386,0.0
subject-03,1,335,0.895027160644531,dog,dog,0,dog1-knife3.png,True,0.9267497315766242,1.88526713848114,0.2,-3.08633504576162,2.50291109085083,0.125,-3.0753304020986567,30.13749396800995,10.0,0.6199494949494948,10.0,37.65799786553386,0.0
subject-10,1,1067,0.721024990081787,dog,dog,0,dog1-knife3.png,True,-1.0123413691304235,1.88526713848114,0.2,-3.08633504576162,2.50291109085083,0.125,-3.0753304020986567,30.13749396800995,10.0,0.6199494949494948,10.0,37.65799786553386,0.0
subject-07,1,1005,0.930564165115356,cat,dog,0,dog1-knife3.png,False,0.14361458693982984,1.88526713848114,0.2,-3.08633504576162,2.50291109085083,0.125,-3.0753304020986567,30.13749396800995,10.0,0.6199494949494948,10.0,37.65799786553386,0.0
subject-04,1,632,1.40524005889893,airplane,dog,0,dog1-knife3.png,False,1.1020983942840459,1.88526713848114,0.2,-3.08633504576162,2.50291109085083,0.125,-3.0753304020986567,30.13749396800995,10.0,0.6199494949494948,10.0,37.65799786553386,0.0
subject-05,1,5,0.796513080596924,chair,chair,0,chair10-oven1.png,True,-0.06599282227735076,0.8497427701950073,1.0,-0.3161106926795486,2.434389114379883,0.1111111111111111,-3.488816706238882,27.707698702812195,9.0,4.303210678210678,8.0,26.87830297181294,6.0
subject-01,1,249,1.18062210083008,chair,chair,0,chair10-oven1.png,True,1.2022139932642575,0.8497427701950073,1.0,-0.3161106926795486,2.434389114379883,0.1111111111111111,-3.488816706238882,27.707698702812195,9.0,4.303210678210678,8.0,26.87830297181294,6.0
subject-06,1,196,1.35148286819458,chair,chair,0,chair10-oven1.png,True,2.0256995839830805,0.8497427701950073,1.0,-0.3161106926795486,2.434389114379883,0.1111111111111111,-3.488816706238882,27.707698702812195,9.0,4.303210678210678,8.0,26.87830297181294,6.0
subject-02,1,912,1.111328125,chair,chair,0,chair10-oven1.png,True,1.0337150110018407,0.8497427701950073,1.0,-0.3161106926795486,2.434389114379883,0.1111111111111111,-3.488816706238882,27.707698702812195,9.0,4.303210678210678,8.0,26.87830297181294,6.0
subject-08,1,1013,1.02895593643188,chair,chair,0,chair10-oven1.png,True,0.9568668600437729,0.8497427701950073,1.0,-0.3161106926795486,2.434389114379883,0.1111111111111111,-3.488816706238882,27.707698702812195,9.0,4.303210678210678,8.0,26.87830297181294,6.0
subject-09,1,287,0.590487957000732,chair,chair,0,chair10-oven1.png,True,-0.5429354247490519,0.8497427701950073,1.0,-0.3161106926795486,2.434389114379883,0.1111111111111111,-3.488816706238882,27.707698702812195,9.0,4.303210678210678,8.0,26.87830297181294,6.0
subject-03,1,1203,0.646799087524414,chair,chair,0,chair10-oven1.png,True,-0.5151119098933129,0.8497427701950073,1.0,-0.3161106926795486,2.434389114379883,0.1111111111111111,-3.488816706238882,27.707698702812195,9.0,4.303210678210678,8.0,26.87830297181294,6.0
subject-10,1,471,0.906816959381104,chair,chair,0,chair10-oven1.png,True,-0.0975568976989659,0.8497427701950073,1.0,-0.3161106926795486,2.434389114379883,0.1111111111111111,-3.488816706238882,27.707698702812195,9.0,4.303210678210678,8.0,26.87830297181294,6.0
subject-07,1,531,1.25494599342346,chair,chair,0,chair10-oven1.png,True,1.7766432405874566,0.8497427701950073,1.0,-0.3161106926795486,2.434389114379883,0.1111111111111111,-3.488816706238882,27.707698702812195,9.0,4.303210678210678,8.0,26.87830297181294,6.0
subject-04,1,95,0.837944984436035,chair,chair,0,chair10-oven1.png,True,-0.9874632342252285,0.8497427701950073,1.0,-0.3161106926795486,2.434389114379883,0.1111111111111111,-3.488816706238882,27.707698702812195,9.0,4.303210678210678,8.0,26.87830297181294,6.0
subject-05,1,6,0.712096929550171,clock,clock,0,clock10-cat1.png,True,-0.5367573523651235,1.6215466260910034,0.2,-3.294099693373557,2.463728427886963,0.0666666666666666,-4.392258892021012,29.344125151634216,10.0,0.3815226440226436,10.0,45.52891566728168,6.0
subject-01,1,731,0.978366851806641,clock,clock,0,clock10-cat1.png,True,0.3240971843107098,1.6215466260910034,0.2,-3.294099693373557,2.463728427886963,0.0666666666666666,-4.392258892021012,29.344125151634216,10.0,0.3815226440226436,10.0,45.52891566728168,6.0
subject-06,1,1190,0.767250061035156,clock,clock,0,clock10-cat1.png,True,-0.3616595711320994,1.6215466260910034,0.2,-3.294099693373557,2.463728427886963,0.0666666666666666,-4.392258892021012,29.344125151634216,10.0,0.3815226440226436,10.0,45.52891566728168,6.0
subject-02,1,687,1.39044690132141,bird,clock,0,clock10-cat1.png,False,2.4848355907521333,1.6215466260910034,0.2,-3.294099693373557,2.463728427886963,0.0666666666666666,-4.392258892021012,29.344125151634216,10.0,0.3815226440226436,10.0,45.52891566728168,6.0
subject-08,1,926,0.513681888580322,clock,clock,0,clock10-cat1.png,True,-1.441754467093238,1.6215466260910034,0.2,-3.294099693373557,2.463728427886963,0.0666666666666666,-4.392258892021012,29.344125151634216,10.0,0.3815226440226436,10.0,45.52891566728168,6.0
subject-09,1,582,1.05647301673889,clock,clock,0,clock10-cat1.png,True,1.2482717245725485,1.6215466260910034,0.2,-3.294099693373557,2.463728427886963,0.0666666666666666,-4.392258892021012,29.344125151634216,10.0,0.3815226440226436,10.0,45.52891566728168,6.0
subject-03,1,1055,0.487746000289917,clock,clock,0,clock10-cat1.png,True,-1.4389902712655147,1.6215466260910034,0.2,-3.294099693373557,2.463728427886963,0.0666666666666666,-4.392258892021012,29.344125151634216,10.0,0.3815226440226436,10.0,45.52891566728168,6.0
subject-10,1,1213,0.691142082214355,clock,clock,0,clock10-cat1.png,True,-1.1594759314123047,1.6215466260910034,0.2,-3.294099693373557,2.463728427886963,0.0666666666666666,-4.392258892021012,29.344125151634216,10.0,0.3815226440226436,10.0,45.52891566728168,6.0
subject-07,1,533,0.662074089050293,clock,clock,0,clock10-cat1.png,True,-1.2080393873938646,1.6215466260910034,0.2,-3.294099693373557,2.463728427886963,0.0666666666666666,-4.392258892021012,29.344125151634216,10.0,0.3815226440226436,10.0,45.52891566728168,6.0
subject-04,1,995,0.753113985061646,clock,clock,0,clock10-cat1.png,True,-1.2999277860612268,1.6215466260910034,0.2,-3.294099693373557,2.463728427886963,0.0666666666666666,-4.392258892021012,29.344125151634216,10.0,0.3815226440226436,10.0,45.52891566728168,6.0
subject-05,1,7,0.767766952514648,keyboard,airplane,0,airplane9-clock1.png,False,-0.22630168865767988,0.6169078350067139,0.25,-4.824962939858645,2.50296401977539,0.5,-1.8070862093889506,28.75223684310913,10.0,3.5555555555555554,5.0,34.06449893248966,3.0
subject-01,1,842,1.43396210670471,airplane,airplane,0,airplane9-clock1.png,True,2.3021217514709305,0.6169078350067139,0.25,-4.824962939858645,2.50296401977539,0.5,-1.8070862093889506,28.75223684310913,10.0,3.5555555555555554,5.0,34.06449893248966,3.0
subject-06,1,705,1.48411583900452,boat,airplane,0,airplane9-clock1.png,False,2.5676796529777843,0.6169078350067139,0.25,-4.824962939858645,2.50296401977539,0.5,-1.8070862093889506,28.75223684310913,10.0,3.5555555555555554,5.0,34.06449893248966,3.0
subject-02,1,282,0.927397966384888,airplane,airplane,0,airplane9-clock1.png,True,0.07747393714524314,0.6169078350067139,0.25,-4.824962939858645,2.50296401977539,0.5,-1.8070862093889506,28.75223684310913,10.0,3.5555555555555554,5.0,34.06449893248966,3.0
subject-08,1,792,0.666439056396484,airplane,airplane,0,airplane9-clock1.png,True,-0.7306637336774359,0.6169078350067139,0.25,-4.824962939858645,2.50296401977539,0.5,-1.8070862093889506,28.75223684310913,10.0,3.5555555555555554,5.0,34.06449893248966,3.0
subject-09,1,532,0.74421501159668,airplane,airplane,0,airplane9-clock1.png,True,0.04797836847672264,0.6169078350067139,0.25,-4.824962939858645,2.50296401977539,0.5,-1.8070862093889506,28.75223684310913,10.0,3.5555555555555554,5.0,34.06449893248966,3.0
subject-03,1,1089,0.786774158477783,airplane,airplane,0,airplane9-clock1.png,True,0.297949574381405,0.6169078350067139,0.25,-4.824962939858645,2.50296401977539,0.5,-1.8070862093889506,28.75223684310913,10.0,3.5555555555555554,5.0,34.06449893248966,3.0
subject-10,1,488,0.889357089996338,boat,airplane,0,airplane9-clock1.png,False,-0.1835241084812251,0.6169078350067139,0.25,-4.824962939858645,2.50296401977539,0.5,-1.8070862093889506,28.75223684310913,10.0,3.5555555555555554,5.0,34.06449893248966,3.0
subject-07,1,865,0.815428972244263,airplane,airplane,0,airplane9-clock1.png,True,-0.4360081064225023,0.6169078350067139,0.25,-4.824962939858645,2.50296401977539,0.5,-1.8070862093889506,28.75223684310913,10.0,3.5555555555555554,5.0,34.06449893248966,3.0
subject-04,1,833,1.47664999961853,clock,airplane,0,airplane9-clock1.png,False,1.3651281273785432,0.6169078350067139,0.25,-4.824962939858645,2.50296401977539,0.5,-1.8070862093889506,28.75223684310913,10.0,3.5555555555555554,5.0,34.06449893248966,3.0
subject-05,1,8,1.02957391738892,knife,airplane,0,airplane2-cat1.png,False,1.2337202534050684,0.6818395853042603,0.0666666666666666,-5.973213922159457,2.4509525299072266,0.1666666666666666,-2.6452168352950554,27.825774312019348,10.0,0.4575396825396822,3.0,42.14910323223129,3.0
subject-01,1,574,0.608958959579468,boat,airplane,0,airplane2-cat1.png,False,-1.2797340195320595,0.6818395853042603,0.0666666666666666,-5.973213922159457,2.4509525299072266,0.1666666666666666,-2.6452168352950554,27.825774312019348,10.0,0.4575396825396822,3.0,42.14910323223129,3.0
subject-06,1,759,0.784958839416504,cat,airplane,0,airplane2-cat1.png,False,-0.28929592828881007,0.6818395853042603,0.0666666666666666,-5.973213922159457,2.4509525299072266,0.1666666666666666,-2.6452168352950554,27.825774312019348,10.0,0.4575396825396822,3.0,42.14910323223129,3.0
subject-02,1,5,1.16590213775635,bird,airplane,0,airplane2-cat1.png,False,1.3174417959713405,0.6818395853042603,0.0666666666666666,-5.973213922159457,2.4509525299072266,0.1666666666666666,-2.6452168352950554,27.825774312019348,10.0,0.4575396825396822,3.0,42.14910323223129,3.0
subject-08,1,80,0.940284013748169,airplane,airplane,0,airplane2-cat1.png,True,0.5440955090428657,0.6818395853042603,0.0666666666666666,-5.973213922159457,2.4509525299072266,0.1666666666666666,-2.6452168352950554,27.825774312019348,10.0,0.4575396825396822,3.0,42.14910323223129,3.0
subject-09,1,194,0.876283884048462,cat,airplane,0,airplane2-cat1.png,False,0.5556399417284522,0.6818395853042603,0.0666666666666666,-5.973213922159457,2.4509525299072266,0.1666666666666666,-2.6452168352950554,27.825774312019348,10.0,0.4575396825396822,3.0,42.14910323223129,3.0
subject-03,1,1076,1.18686199188232,bird,airplane,0,airplane2-cat1.png,False,2.6219063007653287,0.6818395853042603,0.0666666666666666,-5.973213922159457,2.4509525299072266,0.1666666666666666,-2.6452168352950554,27.825774312019348,10.0,0.4575396825396822,3.0,42.14910323223129,3.0
subject-10,1,8,0.979773998260498,knife,airplane,0,airplane2-cat1.png,False,0.2616618914671608,0.6818395853042603,0.0666666666666666,-5.973213922159457,2.4509525299072266,0.1666666666666666,-2.6452168352950554,27.825774312019348,10.0,0.4575396825396822,3.0,42.14910323223129,3.0
subject-07,1,500,0.917392015457153,airplane,airplane,0,airplane2-cat1.png,True,0.07730230941746123,0.6818395853042603,0.0666666666666666,-5.973213922159457,2.4509525299072266,0.1666666666666666,-2.6452168352950554,27.825774312019348,10.0,0.4575396825396822,3.0,42.14910323223129,3.0
subject-04,1,322,0.872277021408081,bottle,airplane,0,airplane2-cat1.png,False,-0.8610053989385918,0.6818395853042603,0.0666666666666666,-5.973213922159457,2.4509525299072266,0.1666666666666666,-2.6452168352950554,27.825774312019348,10.0,0.4575396825396822,3.0,42.14910323223129,3.0
subject-05,1,9,0.690725088119507,car,car,0,car4-boat1.png,True,-0.6559419487185477,0.3457532227039337,1.0,-0.06155238857294302,2.3962202072143555,0.1428571428571428,-3.0822314581402885,26.354823023080826,9.0,3.613690476190476,8.0,33.859771324030966,9.0
subject-01,1,708,1.03599405288696,car,car,0,car4-boat1.png,True,0.5742929847455843,0.3457532227039337,1.0,-0.06155238857294302,2.3962202072143555,0.1428571428571428,-3.0822314581402885,26.354823023080826,9.0,3.613690476190476,8.0,33.859771324030966,9.0
subject-06,1,80,0.634078979492188,car,car,0,car4-boat1.png,True,-0.9058385299686912,0.3457532227039337,1.0,-0.06155238857294302,2.3962202072143555,0.1428571428571428,-3.0822314581402885,26.354823023080826,9.0,3.613690476190476,8.0,33.859771324030966,9.0
subject-02,1,476,0.833180904388428,car,car,0,car4-boat1.png,True,-0.412354513052735,0.3457532227039337,1.0,-0.06155238857294302,2.3962202072143555,0.1428571428571428,-3.0822314581402885,26.354823023080826,9.0,3.613690476190476,8.0,33.859771324030966,9.0
subject-08,1,132,0.57611608505249,car,car,0,car4-boat1.png,True,-1.1511207823089684,0.3457532227039337,1.0,-0.06155238857294302,2.3962202072143555,0.1428571428571428,-3.0822314581402885,26.354823023080826,9.0,3.613690476190476,8.0,33.859771324030966,9.0
subject-09,1,811,0.610798120498657,car,car,0,car4-boat1.png,True,-0.4648648744146355,0.3457532227039337,1.0,-0.06155238857294302,2.3962202072143555,0.1428571428571428,-3.0822314581402885,26.354823023080826,9.0,3.613690476190476,8.0,33.859771324030966,9.0
subject-03,1,923,0.681654930114746,car,car,0,car4-boat1.png,True,-0.31264769309300566,0.3457532227039337,1.0,-0.06155238857294302,2.3962202072143555,0.1428571428571428,-3.0822314581402885,26.354823023080826,9.0,3.613690476190476,8.0,33.859771324030966,9.0
subject-10,1,196,0.872993946075439,car,car,0,car4-boat1.png,True,-0.2640913688374642,0.3457532227039337,1.0,-0.06155238857294302,2.3962202072143555,0.1428571428571428,-3.0822314581402885,26.354823023080826,9.0,3.613690476190476,8.0,33.859771324030966,9.0
subject-07,1,383,0.714089870452881,car,car,0,car4-boat1.png,True,-0.9461774270142073,0.3457532227039337,1.0,-0.06155238857294302,2.3962202072143555,0.1428571428571428,-3.0822314581402885,26.354823023080826,9.0,3.613690476190476,8.0,33.859771324030966,9.0
subject-04,1,1238,1.50026297569275,car,car,0,car4-boat1.png,True,1.4521036203110569,0.3457532227039337,1.0,-0.06155238857294302,2.3962202072143555,0.1428571428571428,-3.0822314581402885,26.354823023080826,9.0,3.613690476190476,8.0,33.859771324030966,9.0
subject-05,1,10,1.15239191055298,chair,elephant,0,elephant10-knife3.png,False,1.9186407824893652,1.761685132980347,0.1666666666666666,-3.4035027730799303,2.575165033340454,0.25,-2.285957962132281,30.01527500152588,10.0,4.652380952380953,1.0,31.162609187400108,0.0
subject-01,1,313,0.826599836349487,elephant,elephant,0,elephant10-knife3.png,True,-0.3348185568683758,1.761685132980347,0.1666666666666666,-3.4035027730799303,2.575165033340454,0.25,-2.285957962132281,30.01527500152588,10.0,4.652380952380953,1.0,31.162609187400108,0.0
subject-06,1,211,0.835349082946777,elephant,elephant,0,elephant10-knife3.png,True,-0.08338553136094015,1.761685132980347,0.1666666666666666,-3.4035027730799303,2.575165033340454,0.25,-2.285957962132281,30.01527500152588,10.0,4.652380952380953,1.0,31.162609187400108,0.0
subject-02,1,167,1.01359415054321,elephant,elephant,0,elephant10-knife3.png,True,0.5256023589467711,1.761685132980347,0.1666666666666666,-3.4035027730799303,2.575165033340454,0.25,-2.285957962132281,30.01527500152588,10.0,4.652380952380953,1.0,31.162609187400108,0.0
subject-08,1,536,1.47393202781677,keyboard,elephant,0,elephant10-knife3.png,False,3.028248384714203,1.761685132980347,0.1666666666666666,-3.4035027730799303,2.575165033340454,0.25,-2.285957962132281,30.01527500152588,10.0,4.652380952380953,1.0,31.162609187400108,0.0
subject-09,1,622,0.717391967773438,elephant,elephant,0,elephant10-knife3.png,True,-0.05512714286682762,1.761685132980347,0.1666666666666666,-3.4035027730799303,2.575165033340454,0.25,-2.285957962132281,30.01527500152588,10.0,4.652380952380953,1.0,31.162609187400108,0.0
subject-03,1,731,0.900130033493042,elephant,elephant,0,elephant10-knife3.png,True,0.9563903621833246,1.761685132980347,0.1666666666666666,-3.4035027730799303,2.575165033340454,0.25,-2.285957962132281,30.01527500152588,10.0,4.652380952380953,1.0,31.162609187400108,0.0
subject-10,1,1146,1.38444900512695,elephant,elephant,0,elephant10-knife3.png,True,2.254161425510313,1.761685132980347,0.1666666666666666,-3.4035027730799303,2.575165033340454,0.25,-2.285957962132281,30.01527500152588,10.0,4.652380952380953,1.0,31.162609187400108,0.0
subject-07,1,247,0.799654006958008,elephant,elephant,0,elephant10-knife3.png,True,-0.515423684222017,1.761685132980347,0.1666666666666666,-3.4035027730799303,2.575165033340454,0.25,-2.285957962132281,30.01527500152588,10.0,4.652380952380953,1.0,31.162609187400108,0.0
subject-04,1,905,1.48592805862427,chair,elephant,0,elephant10-knife3.png,False,1.3993027165088903,1.761685132980347,0.1666666666666666,-3.4035027730799303,2.575165033340454,0.25,-2.285957962132281,30.01527500152588,10.0,4.652380952380953,1.0,31.162609187400108,0.0
subject-05,1,11,0.969505071640015,oven,oven,0,oven3-car2.png,True,0.8987336235806817,1.5429283380508425,1.0,-0.43754937149565587,2.5018324851989746,0.0666666666666666,-4.085294019098644,28.987699389457703,9.0,3.8265873015873013,8.0,30.603424497348215,9.0
subject-01,1,353,1.18620705604553,keyboard,oven,0,oven3-car2.png,False,1.2264617844865815,1.5429283380508425,1.0,-0.43754937149565587,2.5018324851989746,0.0666666666666666,-4.085294019098644,28.987699389457703,9.0,3.8265873015873013,8.0,30.603424497348215,9.0
subject-06,1,305,0.642690896987915,oven,oven,0,oven3-car2.png,True,-0.8706475242179476,1.5429283380508425,1.0,-0.43754937149565587,2.5018324851989746,0.0666666666666666,-4.085294019098644,28.987699389457703,9.0,3.8265873015873013,8.0,30.603424497348215,9.0
subject-02,1,895,0.856076955795288,oven,oven,0,oven3-car2.png,True,-0.2933194132669143,1.5429283380508425,1.0,-0.43754937149565587,2.5018324851989746,0.0666666666666666,-4.085294019098644,28.987699389457703,9.0,3.8265873015873013,8.0,30.603424497348215,9.0
subject-08,1,1008,0.712332963943481,oven,oven,0,oven3-car2.png,True,-0.5170257562033715,1.5429283380508425,1.0,-0.43754937149565587,2.5018324851989746,0.0666666666666666,-4.085294019098644,28.987699389457703,9.0,3.8265873015873013,8.0,30.603424497348215,9.0
subject-09,1,352,0.487595081329346,oven,oven,0,oven3-car2.png,True,-0.9384469345395303,1.5429283380508425,1.0,-0.43754937149565587,2.5018324851989746,0.0666666666666666,-4.085294019098644,28.987699389457703,9.0,3.8265873015873013,8.0,30.603424497348215,9.0
subject-03,1,1204,0.571507930755615,oven,oven,0,oven3-car2.png,True,-0.9524493533270341,1.5429283380508425,1.0,-0.43754937149565587,2.5018324851989746,0.0666666666666666,-4.085294019098644,28.987699389457703,9.0,3.8265873015873013,8.0,30.603424497348215,9.0
subject-10,1,42,0.823396921157837,oven,oven,0,oven3-car2.png,True,-0.5082923878316052,1.5429283380508425,1.0,-0.43754937149565587,2.5018324851989746,0.0666666666666666,-4.085294019098644,28.987699389457703,9.0,3.8265873015873013,8.0,30.603424497348215,9.0
subject-07,1,600,0.667325019836426,oven,oven,0,oven3-car2.png,True,-1.181604736363009,1.5429283380508425,1.0,-0.43754937149565587,2.5018324851989746,0.0666666666666666,-4.085294019098644,28.987699389457703,9.0,3.8265873015873013,8.0,30.603424497348215,9.0
subject-04,1,1048,0.566515922546387,oven,oven,0,oven3-car2.png,True,-1.9872387974519354,1.5429283380508425,1.0,-0.43754937149565587,2.5018324851989746,0.0666666666666666,-4.085294019098644,28.987699389457703,9.0,3.8265873015873013,8.0,30.603424497348215,9.0
subject-05,1,12,0.641149997711182,clock,clock,0,clock6-oven1.png,True,-0.9324079312437203,0.127952829003334,0.5,-4.415802744938411,2.4227356910705566,0.125,-3.088671043011033,25.965351954102516,9.0,2.925,6.0,38.70564043155875,6.0
subject-01,1,1262,0.82043194770813,clock,clock,0,clock6-oven1.png,True,-0.3615972274733674,0.127952829003334,0.5,-4.415802744938411,2.4227356910705566,0.125,-3.088671043011033,25.965351954102516,9.0,2.925,6.0,38.70564043155875,6.0
subject-06,1,1213,0.627856969833374,clock,clock,0,clock6-oven1.png,True,-0.9312636200015613,0.127952829003334,0.5,-4.415802744938411,2.4227356910705566,0.125,-3.088671043011033,25.965351954102516,9.0,2.925,6.0,38.70564043155875,6.0
subject-02,1,899,0.743094921112061,clock,clock,0,clock6-oven1.png,True,-0.8807057504802165,0.127952829003334,0.5,-4.415802744938411,2.4227356910705566,0.125,-3.088671043011033,25.965351954102516,9.0,2.925,6.0,38.70564043155875,6.0
subject-08,1,638,0.665973901748657,clock,clock,0,clock6-oven1.png,True,-0.7328290471904042,0.127952829003334,0.5,-4.415802744938411,2.4227356910705566,0.125,-3.088671043011033,25.965351954102516,9.0,2.925,6.0,38.70564043155875,6.0
subject-09,1,1201,0.397252082824707,clock,clock,0,clock6-oven1.png,True,-1.2857177781661266,0.127952829003334,0.5,-4.415802744938411,2.4227356910705566,0.125,-3.088671043011033,25.965351954102516,9.0,2.925,6.0,38.70564043155875,6.0
subject-03,1,993,0.460964918136597,clock,clock,0,clock6-oven1.png,True,-1.5945513026531357,0.127952829003334,0.5,-4.415802744938411,2.4227356910705566,0.125,-3.088671043011033,25.965351954102516,9.0,2.925,6.0,38.70564043155875,6.0
subject-10,1,555,0.98302698135376,keyboard,clock,0,clock6-oven1.png,False,0.2776786139916474,0.127952829003334,0.5,-4.415802744938411,2.4227356910705566,0.125,-3.088671043011033,25.965351954102516,9.0,2.925,6.0,38.70564043155875,6.0
subject-07,1,528,0.77741003036499,clock,clock,0,clock6-oven1.png,True,-0.627406070340648,0.127952829003334,0.5,-4.415802744938411,2.4227356910705566,0.125,-3.088671043011033,25.965351954102516,9.0,2.925,6.0,38.70564043155875,6.0
subject-04,1,117,0.939189910888672,clock,clock,0,clock6-oven1.png,True,-0.6145400009379085,0.127952829003334,0.5,-4.415802744938411,2.4227356910705566,0.125,-3.088671043011033,25.965351954102516,9.0,2.925,6.0,38.70564043155875,6.0
subject-05,1,13,0.908888101577759,dog,dog,0,dog10-bottle1.png,True,0.5606902625312308,2.019803047180176,0.1428571428571428,-3.2874808448602515,2.5135326385498047,0.125,-3.2345323267825985,30.30048370361328,10.0,0.5459457209457208,10.0,38.38416475638624,6.0
subject-01,1,637,0.931423902511597,dog,dog,0,dog10-bottle1.png,True,0.12028841773054001,2.019803047180176,0.1428571428571428,-3.2874808448602515,2.5135326385498047,0.125,-3.2345323267825985,30.30048370361328,10.0,0.5459457209457208,10.0,38.38416475638624,6.0
subject-06,1,91,0.85080099105835,dog,dog,0,dog10-bottle1.png,True,-0.02024417085857425,2.019803047180176,0.1428571428571428,-3.2874808448602515,2.5135326385498047,0.125,-3.2345323267825985,30.30048370361328,10.0,0.5459457209457208,10.0,38.38416475638624,6.0
subject-02,1,617,1.16802096366882,dog,dog,0,dog10-bottle1.png,True,1.3284574357180288,2.019803047180176,0.1428571428571428,-3.2874808448602515,2.5135326385498047,0.125,-3.2345323267825985,30.30048370361328,10.0,0.5459457209457208,10.0,38.38416475638624,6.0
subject-08,1,102,0.827316999435425,dog,dog,0,dog10-bottle1.png,True,0.018229533600609246,2.019803047180176,0.1428571428571428,-3.2874808448602515,2.5135326385498047,0.125,-3.2345323267825985,30.30048370361328,10.0,0.5459457209457208,10.0,38.38416475638624,6.0
subject-09,1,227,0.529239177703857,dog,dog,0,dog10-bottle1.png,True,-0.7783705509855671,2.019803047180176,0.1428571428571428,-3.2874808448602515,2.5135326385498047,0.125,-3.2345323267825985,30.30048370361328,10.0,0.5459457209457208,10.0,38.38416475638624,6.0
subject-03,1,291,0.755091905593872,dog,dog,0,dog10-bottle1.png,True,0.11391952260496292,2.019803047180176,0.1428571428571428,-3.2874808448602515,2.5135326385498047,0.125,-3.2345323267825985,30.30048370361328,10.0,0.5459457209457208,10.0,38.38416475638624,6.0
subject-10,1,37,1.242751121521,dog,dog,0,dog10-bottle1.png,True,1.5564831348593424,2.019803047180176,0.1428571428571428,-3.2874808448602515,2.5135326385498047,0.125,-3.2345323267825985,30.30048370361328,10.0,0.5459457209457208,10.0,38.38416475638624,6.0
subject-07,1,667,0.884268045425415,dog,dog,0,dog10-bottle1.png,True,-0.08945300010935787,2.019803047180176,0.1428571428571428,-3.2874808448602515,2.5135326385498047,0.125,-3.2345323267825985,30.30048370361328,10.0,0.5459457209457208,10.0,38.38416475638624,6.0
subject-04,1,179,1.08765411376953,dog,dog,0,dog10-bottle1.png,True,-0.06769037097986154,2.019803047180176,0.1428571428571428,-3.2874808448602515,2.5135326385498047,0.125,-3.2345323267825985,30.30048370361328,10.0,0.5459457209457208,10.0,38.38416475638624,6.0
subject-05,1,14,0.724064826965332,knife,knife,0,knife6-dog2.png,True,-0.4700158398355297,2.1445300579071045,0.3333333333333333,-2.332072097312968,2.5099434852600098,0.0625,-4.166846055497333,30.391491174697876,10.0,2.3248015873015873,9.0,33.264232707714235,5.0
subject-01,1,768,1.0754599571228,knife,knife,0,knife6-dog2.png,True,0.7456392121358362,2.1445300579071045,0.3333333333333333,-2.332072097312968,2.5099434852600098,0.0625,-4.166846055497333,30.391491174697876,10.0,2.3248015873015873,9.0,33.264232707714235,5.0
subject-06,1,1276,0.691070079803467,knife,knife,0,knife6-dog2.png,True,-0.6729549544130101,2.1445300579071045,0.3333333333333333,-2.332072097312968,2.5099434852600098,0.0625,-4.166846055497333,30.391491174697876,10.0,2.3248015873015873,9.0,33.264232707714235,5.0
subject-02,1,1068,0.794905185699463,keyboard,knife,0,knife6-dog2.png,False,-0.6113475146211125,2.1445300579071045,0.3333333333333333,-2.332072097312968,2.5099434852600098,0.0625,-4.166846055497333,30.391491174697876,10.0,2.3248015873015873,9.0,33.264232707714235,5.0
subject-08,1,317,0.918607950210571,knife,knife,0,knife6-dog2.png,True,0.44319256524733874,2.1445300579071045,0.3333333333333333,-2.332072097312968,2.5099434852600098,0.0625,-4.166846055497333,30.391491174697876,10.0,2.3248015873015873,9.0,33.264232707714235,5.0
subject-09,1,576,0.489269018173218,knife,knife,0,knife6-dog2.png,True,-0.9320124629194719,2.1445300579071045,0.3333333333333333,-2.332072097312968,2.5099434852600098,0.0625,-4.166846055497333,30.391491174697876,10.0,2.3248015873015873,9.0,33.264232707714235,5.0
subject-03,1,184,0.832093954086304,knife,knife,0,knife6-dog2.png,True,0.5611948796598453,2.1445300579071045,0.3333333333333333,-2.332072097312968,2.5099434852600098,0.0625,-4.166846055497333,30.391491174697876,10.0,2.3248015873015873,9.0,33.264232707714235,5.0
subject-10,1,78,0.855602025985718,knife,knife,0,knife6-dog2.png,True,-0.34972401747375853,2.1445300579071045,0.3333333333333333,-2.332072097312968,2.5099434852600098,0.0625,-4.166846055497333,30.391491174697876,10.0,2.3248015873015873,9.0,33.264232707714235,5.0
subject-07,1,626,0.994837045669556,knife,knife,0,knife6-dog2.png,True,0.46718220521525156,2.1445300579071045,0.3333333333333333,-2.332072097312968,2.5099434852600098,0.0625,-4.166846055497333,30.391491174697876,10.0,2.3248015873015873,9.0,33.264232707714235,5.0
subject-04,1,934,1.16849684715271,knife,knife,0,knife6-dog2.png,True,0.23008389364112927,2.1445300579071045,0.3333333333333333,-2.332072097312968,2.5099434852600098,0.0625,-4.166846055497333,30.391491174697876,10.0,2.3248015873015873,9.0,33.264232707714235,5.0
subject-05,1,15,0.709120035171509,cat,cat,0,cat6-keyboard3.png,True,-0.553358633825061,0.5715879797935486,0.5,-2.244826832384671,2.57650375366211,0.1,-3.180866203213941,28.43426638841629,10.0,1.2131313131313128,10.0,36.2741246180085,10.0
subject-01,1,400,0.74492621421814,oven,cat,0,cat6-keyboard3.png,False,-0.6894149433055204,0.5715879797935486,0.5,-2.244826832384671,2.57650375366211,0.1,-3.180866203213941,28.43426638841629,10.0,1.2131313131313128,10.0,36.2741246180085,10.0
subject-06,1,553,0.83401083946228,cat,cat,0,cat6-keyboard3.png,True,-0.08885401549147143,0.5715879797935486,0.5,-2.244826832384671,2.57650375366211,0.1,-3.180866203213941,28.43426638841629,10.0,1.2131313131313128,10.0,36.2741246180085,10.0
subject-02,1,344,1.09268808364868,cat,cat,0,cat6-keyboard3.png,True,0.9368066339704457,0.5715879797935486,0.5,-2.244826832384671,2.57650375366211,0.1,-3.180866203213941,28.43426638841629,10.0,1.2131313131313128,10.0,36.2741246180085,10.0
subject-08,1,85,1.02738380432129,cat,cat,0,cat6-keyboard3.png,True,0.9495485221122169,0.5715879797935486,0.5,-2.244826832384671,2.57650375366211,0.1,-3.180866203213941,28.43426638841629,10.0,1.2131313131313128,10.0,36.2741246180085,10.0
subject-09,1,504,0.521684885025024,cat,cat,0,cat6-keyboard3.png,True,-0.8074086129826553,0.5715879797935486,0.5,-2.244826832384671,2.57650375366211,0.1,-3.180866203213941,28.43426638841629,10.0,1.2131313131313128,10.0,36.2741246180085,10.0
subject-03,1,350,0.648313999176025,cat,cat,0,cat6-keyboard3.png,True,-0.5063123693207331,0.5715879797935486,0.5,-2.244826832384671,2.57650375366211,0.1,-3.180866203213941,28.43426638841629,10.0,1.2131313131313128,10.0,36.2741246180085,10.0
subject-10,1,95,0.621689081192017,cat,cat,0,cat6-keyboard3.png,True,-1.5014418789672914,0.5715879797935486,0.5,-2.244826832384671,2.57650375366211,0.1,-3.180866203213941,28.43426638841629,10.0,1.2131313131313128,10.0,36.2741246180085,10.0
subject-07,1,167,0.648550033569336,cat,cat,0,cat6-keyboard3.png,True,-1.2761232570394416,0.5715879797935486,0.5,-2.244826832384671,2.57650375366211,0.1,-3.180866203213941,28.43426638841629,10.0,1.2131313131313128,10.0,36.2741246180085,10.0
subject-04,1,1190,1.4145359992981,bottle,cat,0,cat6-keyboard3.png,False,1.13633884732765,0.5715879797935486,0.5,-2.244826832384671,2.57650375366211,0.1,-3.180866203213941,28.43426638841629,10.0,1.2131313131313128,10.0,36.2741246180085,10.0
subject-05,1,16,0.85427188873291,truck,truck,0,truck10-bicycle1.png,True,0.25611139395856736,0.4655583500862121,0.3333333333333333,-3.809903966283597,2.382307529449463,0.1666666666666666,-2.6387273084566285,27.75144988298416,10.0,2.094444444444444,7.0,33.27988952995116,0.0
subject-01,1,530,0.685451030731201,truck,truck,0,truck10-bicycle1.png,True,-0.9476339936769906,0.4655583500862121,0.3333333333333333,-3.809903966283597,2.382307529449463,0.1666666666666666,-2.6387273084566285,27.75144988298416,10.0,2.094444444444444,7.0,33.27988952995116,0.0
subject-06,1,414,0.596187829971313,truck,truck,0,truck10-bicycle1.png,True,-1.0606736943038133,0.4655583500862121,0.3333333333333333,-3.809903966283597,2.382307529449463,0.1666666666666666,-2.6387273084566285,27.75144988298416,10.0,2.094444444444444,7.0,33.27988952995116,0.0
subject-02,1,1180,0.747643947601318,truck,truck,0,truck10-bicycle1.png,True,-0.8570556541184127,0.4655583500862121,0.3333333333333333,-3.809903966283597,2.382307529449463,0.1666666666666666,-2.6387273084566285,27.75144988298416,10.0,2.094444444444444,7.0,33.27988952995116,0.0
subject-08,1,452,0.782692909240723,truck,truck,0,truck10-bicycle1.png,True,-0.189497393248098,0.4655583500862121,0.3333333333333333,-3.809903966283597,2.382307529449463,0.1666666666666666,-2.6387273084566285,27.75144988298416,10.0,2.094444444444444,7.0,33.27988952995116,0.0
subject-09,1,1101,0.49181604385376,truck,truck,0,truck10-bicycle1.png,True,-0.9222219116707772,0.4655583500862121,0.3333333333333333,-3.809903966283597,2.382307529449463,0.1666666666666666,-2.6387273084566285,27.75144988298416,10.0,2.094444444444444,7.0,33.27988952995116,0.0
subject-03,1,222,0.758294820785522,truck,truck,0,truck10-bicycle1.png,True,0.13252402812149583,0.4655583500862121,0.3333333333333333,-3.809903966283597,2.382307529449463,0.1666666666666666,-2.6387273084566285,27.75144988298416,10.0,2.094444444444444,7.0,33.27988952995116,0.0
subject-10,1,810,1.01214098930359,truck,truck,0,truck10-bicycle1.png,True,0.4210273414639838,0.4655583500862121,0.3333333333333333,-3.809903966283597,2.382307529449463,0.1666666666666666,-2.6387273084566285,27.75144988298416,10.0,2.094444444444444,7.0,33.27988952995116,0.0
subject-07,1,642,1.07277798652649,car,truck,0,truck10-bicycle1.png,False,0.8595586535985914,0.4655583500862121,0.3333333333333333,-3.809903966283597,2.382307529449463,0.1666666666666666,-2.6387273084566285,27.75144988298416,10.0,2.094444444444444,7.0,33.27988952995116,0.0
subject-04,1,45,0.978508949279785,car,truck,0,truck10-bicycle1.png,False,-0.46971315933393354,0.4655583500862121,0.3333333333333333,-3.809903966283597,2.382307529449463,0.1666666666666666,-2.6387273084566285,27.75144988298416,10.0,2.094444444444444,7.0,33.27988952995116,0.0
subject-05,1,17,0.995604991912842,chair,dog,0,dog8-chair3.png,False,1.0442853521327304,2.162773847579956,0.1,-3.930961896827192,2.3657662868499756,0.125,-3.3949402419295946,30.254647970199585,10.0,0.39560994560994545,3.0,39.54027672467863,0.0
subject-01,1,332,0.867773056030273,cat,dog,0,dog8-chair3.png,False,-0.1560598029917567,2.162773847579956,0.1,-3.930961896827192,2.3657662868499756,0.125,-3.3949402419295946,30.254647970199585,10.0,0.39560994560994545,3.0,39.54027672467863,0.0
subject-06,1,838,0.88861083984375,dog,dog,0,dog8-chair3.png,True,0.1342587730795152,2.162773847579956,0.1,-3.930961896827192,2.3657662868499756,0.125,-3.3949402419295946,30.254647970199585,10.0,0.39560994560994545,3.0,39.54027672467863,0.0
subject-02,1,226,0.789371967315674,chair,dog,0,dog8-chair3.png,False,-0.6401143613907574,2.162773847579956,0.1,-3.930961896827192,2.3657662868499756,0.125,-3.3949402419295946,30.254647970199585,10.0,0.39560994560994545,3.0,39.54027672467863,0.0
subject-08,1,230,0.933588981628418,elephant,dog,0,dog8-chair3.png,False,0.5129298664197615,2.162773847579956,0.1,-3.930961896827192,2.3657662868499756,0.125,-3.3949402419295946,30.254647970199585,10.0,0.39560994560994545,3.0,39.54027672467863,0.0
subject-09,1,223,0.894811868667603,dog,dog,0,dog8-chair3.png,True,0.6268599472174142,2.162773847579956,0.1,-3.930961896827192,2.3657662868499756,0.125,-3.3949402419295946,30.254647970199585,10.0,0.39560994560994545,3.0,39.54027672467863,0.0
subject-03,1,716,0.9461510181427,dog,dog,0,dog8-chair3.png,True,1.223708605583253,2.162773847579956,0.1,-3.930961896827192,2.3657662868499756,0.125,-3.3949402419295946,30.254647970199585,10.0,0.39560994560994545,3.0,39.54027672467863,0.0
subject-10,1,1104,0.999797105789185,dog,dog,0,dog8-chair3.png,True,0.3602497255168453,2.162773847579956,0.1,-3.930961896827192,2.3657662868499756,0.125,-3.3949402419295946,30.254647970199585,10.0,0.39560994560994545,3.0,39.54027672467863,0.0
subject-07,1,571,0.856778860092163,chair,dog,0,dog8-chair3.png,False,-0.22784123088285468,2.162773847579956,0.1,-3.930961896827192,2.3657662868499756,0.125,-3.3949402419295946,30.254647970199585,10.0,0.39560994560994545,3.0,39.54027672467863,0.0
subject-04,1,331,1.50023889541626,oven,dog,0,dog8-chair3.png,False,1.4520149235745219,2.162773847579956,0.1,-3.930961896827192,2.3657662868499756,0.125,-3.3949402419295946,30.254647970199585,10.0,0.39560994560994545,3.0,39.54027672467863,0.0
subject-05,1,18,0.997251987457275,car,car,0,car4-bear3.png,True,1.0534701713162324,0.8232053518295288,0.0666666666666666,-5.9143604287733655,2.435879707336426,0.0909090909090909,-3.836147345498378,28.232920050621033,10.0,0.09878454878454848,8.0,49.48872253624975,0.0
subject-01,1,383,0.80109977722168,cat,car,0,car4-bear3.png,False,-0.44553029689763785,0.8232053518295288,0.0666666666666666,-5.9143604287733655,2.435879707336426,0.0909090909090909,-3.836147345498378,28.232920050621033,10.0,0.09878454878454848,8.0,49.48872253624975,0.0
subject-06,1,277,0.912913084030151,car,car,0,car4-bear3.png,True,0.2335653926963374,0.8232053518295288,0.0666666666666666,-5.9143604287733655,2.435879707336426,0.0909090909090909,-3.836147345498378,28.232920050621033,10.0,0.09878454878454848,8.0,49.48872253624975,0.0
subject-02,1,1062,0.824358940124512,car,car,0,car4-bear3.png,True,-0.45821933829275613,0.8232053518295288,0.0666666666666666,-5.9143604287733655,2.435879707336426,0.0909090909090909,-3.836147345498378,28.232920050621033,10.0,0.09878454878454848,8.0,49.48872253624975,0.0
subject-08,1,369,0.927438974380493,car,car,0,car4-bear3.png,True,0.484301336400781,0.8232053518295288,0.0666666666666666,-5.9143604287733655,2.435879707336426,0.0909090909090909,-3.836147345498378,28.232920050621033,10.0,0.09878454878454848,8.0,49.48872253624975,0.0
subject-09,1,30,1.02021193504333,bird,car,0,car4-bear3.png,False,1.1088871940648144,0.8232053518295288,0.0666666666666666,-5.9143604287733655,2.435879707336426,0.0909090909090909,-3.836147345498378,28.232920050621033,10.0,0.09878454878454848,8.0,49.48872253624975,0.0
subject-03,1,250,1.09834289550781,car,car,0,car4-bear3.png,True,2.1077328311987924,0.8232053518295288,0.0666666666666666,-5.9143604287733655,2.435879707336426,0.0909090909090909,-3.836147345498378,28.232920050621033,10.0,0.09878454878454848,8.0,49.48872253624975,0.0
subject-10,1,490,0.712028026580811,cat,car,0,car4-bear3.png,False,-1.056639745060059,0.8232053518295288,0.0666666666666666,-5.9143604287733655,2.435879707336426,0.0909090909090909,-3.836147345498378,28.232920050621033,10.0,0.09878454878454848,8.0,49.48872253624975,0.0
subject-07,1,799,1.19187498092651,car,car,0,car4-bear3.png,True,1.459126161534993,0.8232053518295288,0.0666666666666666,-5.9143604287733655,2.435879707336426,0.0909090909090909,-3.836147345498378,28.232920050621033,10.0,0.09878454878454848,8.0,49.48872253624975,0.0
subject-04,1,791,1.36787390708923,car,car,0,car4-bear3.png,True,0.9644647701942808,0.8232053518295288,0.0666666666666666,-5.9143604287733655,2.435879707336426,0.0909090909090909,-3.836147345498378,28.232920050621033,10.0,0.09878454878454848,8.0,49.48872253624975,0.0
subject-05,1,19,0.829432010650635,keyboard,keyboard,0,keyboard8-dog3.png,True,0.11758655732673226,1.3382997512817385,1.0,-0.40969895463176487,2.493203639984131,0.0714285714285714,-4.063487379965949,29.162964820861816,10.0,1.4408841158841157,10.0,37.57547824762577,10.0
subject-01,1,684,0.864449024200439,keyboard,keyboard,0,keyboard8-dog3.png,True,-0.1704915086575789,1.3382997512817385,1.0,-0.40969895463176487,2.493203639984131,0.0714285714285714,-4.063487379965949,29.162964820861816,10.0,1.4408841158841157,10.0,37.57547824762577,10.0
subject-06,1,1050,0.65216588973999,keyboard,keyboard,0,keyboard8-dog3.png,True,-0.8319297212905546,1.3382997512817385,1.0,-0.40969895463176487,2.493203639984131,0.0714285714285714,-4.063487379965949,29.162964820861816,10.0,1.4408841158841157,10.0,37.57547824762577,10.0
subject-02,1,112,0.967758893966675,car,keyboard,0,keyboard8-dog3.png,False,0.28730780573565146,1.3382997512817385,1.0,-0.40969895463176487,2.493203639984131,0.0714285714285714,-4.063487379965949,29.162964820861816,10.0,1.4408841158841157,10.0,37.57547824762577,10.0
subject-08,1,731,0.740238904953003,keyboard,keyboard,0,keyboard8-dog3.png,True,-0.38712248329770793,1.3382997512817385,1.0,-0.40969895463176487,2.493203639984131,0.0714285714285714,-4.063487379965949,29.162964820861816,10.0,1.4408841158841157,10.0,37.57547824762577,10.0
subject-09,1,248,0.766861200332642,keyboard,keyboard,0,keyboard8-dog3.png,True,0.13502840220856552,1.3382997512817385,1.0,-0.40969895463176487,2.493203639984131,0.0714285714285714,-4.063487379965949,29.162964820861816,10.0,1.4408841158841157,10.0,37.57547824762577,10.0
subject-03,1,101,0.742845058441162,keyboard,keyboard,0,keyboard8-dog3.png,True,0.04278228612529604,1.3382997512817385,1.0,-0.40969895463176487,2.493203639984131,0.0714285714285714,-4.063487379965949,29.162964820861816,10.0,1.4408841158841157,10.0,37.57547824762577,10.0
subject-10,1,712,0.907370805740356,keyboard,keyboard,0,keyboard8-dog3.png,True,-0.09482992273382956,1.3382997512817385,1.0,-0.40969895463176487,2.493203639984131,0.0714285714285714,-4.063487379965949,29.162964820861816,10.0,1.4408841158841157,10.0,37.57547824762577,10.0
subject-07,1,409,0.891006946563721,keyboard,keyboard,0,keyboard8-dog3.png,True,-0.05552749105618206,1.3382997512817385,1.0,-0.40969895463176487,2.493203639984131,0.0714285714285714,-4.063487379965949,29.162964820861816,10.0,1.4408841158841157,10.0,37.57547824762577,10.0
subject-04,1,1101,0.659307956695557,keyboard,keyboard,0,keyboard8-dog3.png,True,-1.645450753244071,1.3382997512817385,1.0,-0.40969895463176487,2.493203639984131,0.0714285714285714,-4.063487379965949,29.162964820861816,10.0,1.4408841158841157,10.0,37.57547824762577,10.0
subject-05,1,20,0.694151878356934,clock,clock,0,clock1-dog2.png,True,-0.6368317277972187,2.22183895111084,0.2,-2.711756108857137,2.4079372882843018,0.0625,-4.44010205503856,29.995421886444092,10.0,0.5624999999999998,9.0,44.001036850906274,6.0
subject-01,1,262,0.543406009674072,boat,clock,0,clock1-dog2.png,False,-1.5643404634505913,2.22183895111084,0.2,-2.711756108857137,2.4079372882843018,0.0625,-4.44010205503856,29.995421886444092,10.0,0.5624999999999998,9.0,44.001036850906274,6.0
subject-06,1,1124,0.587924003601074,clock,clock,0,clock1-dog2.png,True,-1.0944422901435347,2.22183895111084,0.2,-2.711756108857137,2.4079372882843018,0.0625,-4.44010205503856,29.995421886444092,10.0,0.5624999999999998,9.0,44.001036850906274,6.0
subject-02,1,20,1.14920806884766,bird,clock,0,clock1-dog2.png,False,1.230650404605845,2.22183895111084,0.2,-2.711756108857137,2.4079372882843018,0.0625,-4.44010205503856,29.995421886444092,10.0,0.5624999999999998,9.0,44.001036850906274,6.0
subject-08,1,13,0.559747219085693,cat,clock,0,clock1-dog2.png,False,-1.2273185088832308,2.22183895111084,0.2,-2.711756108857137,2.4079372882843018,0.0625,-4.44010205503856,29.995421886444092,10.0,0.5624999999999998,9.0,44.001036850906274,6.0
subject-09,1,686,0.76334810256958,clock,clock,0,clock1-dog2.png,True,0.12152435160016523,2.22183895111084,0.2,-2.711756108857137,2.4079372882843018,0.0625,-4.44010205503856,29.995421886444092,10.0,0.5624999999999998,9.0,44.001036850906274,6.0
subject-03,1,1276,0.528115034103394,clock,clock,0,clock1-dog2.png,True,-1.2045020418431749,2.22183895111084,0.2,-2.711756108857137,2.4079372882843018,0.0625,-4.44010205503856,29.995421886444092,10.0,0.5624999999999998,9.0,44.001036850906274,6.0
subject-10,1,883,0.757595777511597,clock,clock,0,clock1-dog2.png,True,-0.8322776743702112,2.22183895111084,0.2,-2.711756108857137,2.4079372882843018,0.0625,-4.44010205503856,29.995421886444092,10.0,0.5624999999999998,9.0,44.001036850906274,6.0
subject-07,1,672,0.814887046813965,clock,clock,0,clock1-dog2.png,True,-0.4387363102816177,2.22183895111084,0.2,-2.711756108857137,2.4079372882843018,0.0625,-4.44010205503856,29.995421886444092,10.0,0.5624999999999998,9.0,44.001036850906274,6.0
subject-04,1,337,1.41184902191162,keyboard,clock,0,clock1-dog2.png,False,1.1264416966274144,2.22183895111084,0.2,-2.711756108857137,2.4079372882843018,0.0625,-4.44010205503856,29.995421886444092,10.0,0.5624999999999998,9.0,44.001036850906274,6.0
subject-05,1,21,0.744221925735474,airplane,airplane,0,airplane5-bicycle1.png,True,-0.3576055129870198,2.4282431602478027,0.1111111111111111,-3.2342907428230516,2.3818962574005127,0.5,-2.072448319690726,30.244775533676147,9.0,3.0051337551337554,3.0,31.089548867232143,3.0
subject-01,1,18,1.2655508518219,airplane,airplane,0,airplane5-bicycle1.png,True,1.5709429343890682,2.4282431602478027,0.1111111111111111,-3.2342907428230516,2.3818962574005127,0.5,-2.072448319690726,30.244775533676147,9.0,3.0051337551337554,3.0,31.089548867232143,3.0
subject-06,1,352,0.68357515335083,airplane,airplane,0,airplane5-bicycle1.png,True,-0.703581583154753,2.4282431602478027,0.1111111111111111,-3.2342907428230516,2.3818962574005127,0.5,-2.072448319690726,30.244775533676147,9.0,3.0051337551337554,3.0,31.089548867232143,3.0
subject-02,1,325,0.781538009643555,airplane,airplane,0,airplane5-bicycle1.png,True,-0.680842603857019,2.4282431602478027,0.1111111111111111,-3.2342907428230516,2.3818962574005127,0.5,-2.072448319690726,30.244775533676147,9.0,3.0051337551337554,3.0,31.089548867232143,3.0
subject-08,1,1216,1.3028039932251,airplane,airplane,0,airplane5-bicycle1.png,True,2.231640530788539,2.4282431602478027,0.1111111111111111,-3.2342907428230516,2.3818962574005127,0.5,-2.072448319690726,30.244775533676147,9.0,3.0051337551337554,3.0,31.089548867232143,3.0
subject-09,1,491,0.553285837173462,airplane,airplane,0,airplane5-bicycle1.png,True,-0.6859372262273411,2.4282431602478027,0.1111111111111111,-3.2342907428230516,2.3818962574005127,0.5,-2.072448319690726,30.244775533676147,9.0,3.0051337551337554,3.0,31.089548867232143,3.0
subject-03,1,842,0.725246906280518,airplane,airplane,0,airplane5-bicycle1.png,True,-0.05943862806157502,2.4282431602478027,0.1111111111111111,-3.2342907428230516,2.3818962574005127,0.5,-2.072448319690726,30.244775533676147,9.0,3.0051337551337554,3.0,31.089548867232143,3.0
subject-10,1,736,1.20477509498596,airplane,airplane,0,airplane5-bicycle1.png,True,1.3695004601401966,2.4282431602478027,0.1111111111111111,-3.2342907428230516,2.3818962574005127,0.5,-2.072448319690726,30.244775533676147,9.0,3.0051337551337554,3.0,31.089548867232143,3.0
subject-07,1,1160,0.856564998626709,airplane,airplane,0,airplane5-bicycle1.png,True,-0.22891786918537305,2.4282431602478027,0.1111111111111111,-3.2342907428230516,2.3818962574005127,0.5,-2.072448319690726,30.244775533676147,9.0,3.0051337551337554,3.0,31.089548867232143,3.0
subject-04,1,478,1.50023198127747,knife,airplane,0,airplane5-bicycle1.png,False,1.4519894561947402,2.4282431602478027,0.1111111111111111,-3.2342907428230516,2.3818962574005127,0.5,-2.072448319690726,30.244775533676147,9.0,3.0051337551337554,3.0,31.089548867232143,3.0
subject-05,1,22,0.913428068161011,knife,knife,0,knife8-boat1.png,True,0.586008346910547,1.8644757270812988,0.1111111111111111,-4.4481817476656405,2.2888388633728027,0.0625,-4.5774858924514135,28.17057490348816,9.0,0.8955738705738705,7.0,42.59969780441014,7.0
subject-01,1,325,1.06019902229309,knife,knife,0,knife8-boat1.png,True,0.6793819285349536,1.8644757270812988,0.1111111111111111,-4.4481817476656405,2.2888388633728027,0.0625,-4.5774858924514135,28.17057490348816,9.0,0.8955738705738705,7.0,42.59969780441014,7.0
subject-06,1,928,0.705740928649902,knife,knife,0,knife8-boat1.png,True,-0.6130052479301796,1.8644757270812988,0.1111111111111111,-4.4481817476656405,2.2888388633728027,0.0625,-4.5774858924514135,28.17057490348816,9.0,0.8955738705738705,7.0,42.59969780441014,7.0
subject-02,1,1077,0.993278026580811,knife,knife,0,knife8-boat1.png,True,0.41998013613848817,1.8644757270812988,0.1111111111111111,-4.4481817476656405,2.2888388633728027,0.0625,-4.5774858924514135,28.17057490348816,9.0,0.8955738705738705,7.0,42.59969780441014,7.0
subject-08,1,1195,0.952769994735718,knife,knife,0,knife8-boat1.png,True,0.6022182505468009,1.8644757270812988,0.1111111111111111,-4.4481817476656405,2.2888388633728027,0.0625,-4.5774858924514135,28.17057490348816,9.0,0.8955738705738705,7.0,42.59969780441014,7.0
subject-09,1,570,0.697540998458862,knife,knife,0,knife8-boat1.png,True,-0.13143258960628393,1.8644757270812988,0.1111111111111111,-4.4481817476656405,2.2888388633728027,0.0625,-4.5774858924514135,28.17057490348816,9.0,0.8955738705738705,7.0,42.59969780441014,7.0
subject-03,1,363,0.845602035522461,knife,knife,0,knife8-boat1.png,True,0.6396581422063912,1.8644757270812988,0.1111111111111111,-4.4481817476656405,2.2888388633728027,0.0625,-4.5774858924514135,28.17057490348816,9.0,0.8955738705738705,7.0,42.59969780441014,7.0
subject-10,1,1005,1.27078318595886,knife,knife,0,knife8-boat1.png,True,1.6945046938461472,1.8644757270812988,0.1111111111111111,-4.4481817476656405,2.2888388633728027,0.0625,-4.5774858924514135,28.17057490348816,9.0,0.8955738705738705,7.0,42.59969780441014,7.0
subject-07,1,1271,0.883733034133911,keyboard,knife,0,knife8-boat1.png,False,-0.09214639626415493,1.8644757270812988,0.1111111111111111,-4.4481817476656405,2.2888388633728027,0.0625,-4.5774858924514135,28.17057490348816,9.0,0.8955738705738705,7.0,42.59969780441014,7.0
subject-04,1,999,0.991011142730713,knife,knife,0,knife8-boat1.png,True,-0.42366286754884647,1.8644757270812988,0.1111111111111111,-4.4481817476656405,2.2888388633728027,0.0625,-4.5774858924514135,28.17057490348816,9.0,0.8955738705738705,7.0,42.59969780441014,7.0
subject-05,1,23,1.04707503318787,airplane,airplane,0,airplane7-airplane3.png,True,1.3313189291672616,0.172068789601326,1.0,-0.024135926076412753,2.422515869140625,1.0,-1.544176689145719,24.994594797492027,9.0,7.112276612276612,4.0,22.458922177169608,3.0
subject-01,1,54,1.02434611320496,airplane,airplane,0,airplane7-airplane3.png,True,0.5237219776947074,0.172068789601326,1.0,-0.024135926076412753,2.422515869140625,1.0,-1.544176689145719,24.994594797492027,9.0,7.112276612276612,4.0,22.458922177169608,3.0
subject-06,1,104,0.815231084823608,airplane,airplane,0,airplane7-airplane3.png,True,-0.16559400444456765,0.172068789601326,1.0,-0.024135926076412753,2.422515869140625,1.0,-1.544176689145719,24.994594797492027,9.0,7.112276612276612,4.0,22.458922177169608,3.0
subject-02,1,867,1.34681701660156,airplane,airplane,0,airplane7-airplane3.png,True,2.258006624089561,0.172068789601326,1.0,-0.024135926076412753,2.422515869140625,1.0,-1.544176689145719,24.994594797492027,9.0,7.112276612276612,4.0,22.458922177169608,3.0
subject-08,1,1280,0.938879013061523,airplane,airplane,0,airplane7-airplane3.png,True,0.5375551745826254,0.172068789601326,1.0,-0.024135926076412753,2.422515869140625,1.0,-1.544176689145719,24.994594797492027,9.0,7.112276612276612,4.0,22.458922177169608,3.0
subject-09,1,60,0.9308021068573,airplane,airplane,0,airplane7-airplane3.png,True,0.7652033782007954,0.172068789601326,1.0,-0.024135926076412753,2.422515869140625,1.0,-1.544176689145719,24.994594797492027,9.0,7.112276612276612,4.0,22.458922177169608,3.0
subject-03,1,579,0.637686967849731,airplane,airplane,0,airplane7-airplane3.png,True,-0.5680407171239568,0.172068789601326,1.0,-0.024135926076412753,2.422515869140625,1.0,-1.544176689145719,24.994594797492027,9.0,7.112276612276612,4.0,22.458922177169608,3.0
subject-10,1,307,1.07013416290283,airplane,airplane,0,airplane7-airplane3.png,True,0.706568502676104,0.172068789601326,1.0,-0.024135926076412753,2.422515869140625,1.0,-1.544176689145719,24.994594797492027,9.0,7.112276612276612,4.0,22.458922177169608,3.0
subject-07,1,820,0.851401090621948,airplane,airplane,0,airplane7-airplane3.png,True,-0.25491442324809127,0.172068789601326,1.0,-0.024135926076412753,2.422515869140625,1.0,-1.544176689145719,24.994594797492027,9.0,7.112276612276612,4.0,22.458922177169608,3.0
subject-04,1,429,0.830457925796509,airplane,airplane,0,airplane7-airplane3.png,True,-1.0150408938027677,0.172068789601326,1.0,-0.024135926076412753,2.422515869140625,1.0,-1.544176689145719,24.994594797492027,9.0,7.112276612276612,4.0,22.458922177169608,3.0
subject-05,1,24,0.856956005096436,truck,truck,0,truck2-bird2.png,True,0.27107993686069953,1.1443969011306765,1.0,-0.3115409431839148,2.4978880882263184,0.1666666666666666,-2.6971447363125796,29.556078791618347,10.0,3.2504329004329002,9.0,28.561351361640725,10.0
subject-01,1,657,0.820961952209473,truck,truck,0,truck2-bird2.png,True,-0.35929614572791224,1.1443969011306765,1.0,-0.3115409431839148,2.4978880882263184,0.1666666666666666,-2.6971447363125796,29.556078791618347,10.0,3.2504329004329002,9.0,28.561351361640725,10.0
subject-06,1,385,0.842180013656616,truck,truck,0,truck2-bird2.png,True,-0.05547219823714407,1.1443969011306765,1.0,-0.3115409431839148,2.4978880882263184,0.1666666666666666,-2.6971447363125796,29.556078791618347,10.0,3.2504329004329002,9.0,28.561351361640725,10.0
subject-02,1,107,0.95019006729126,truck,truck,0,truck2-bird2.png,True,0.19596860495969456,1.1443969011306765,1.0,-0.3115409431839148,2.4978880882263184,0.1666666666666666,-2.6971447363125796,29.556078791618347,10.0,3.2504329004329002,9.0,28.561351361640725,10.0
subject-08,1,192,1.15279388427734,truck,truck,0,truck2-bird2.png,True,1.5333374664123927,1.1443969011306765,1.0,-0.3115409431839148,2.4978880882263184,0.1666666666666666,-2.6971447363125796,29.556078791618347,10.0,3.2504329004329002,9.0,28.561351361640725,10.0
subject-09,1,1038,0.639461994171143,truck,truck,0,truck2-bird2.png,True,-0.3546833688568,1.1443969011306765,1.0,-0.3115409431839148,2.4978880882263184,0.1666666666666666,-2.6971447363125796,29.556078791618347,10.0,3.2504329004329002,9.0,28.561351361640725,10.0
subject-03,1,978,0.590289831161499,truck,truck,0,truck2-bird2.png,True,-0.8433524997409032,1.1443969011306765,1.0,-0.3115409431839148,2.4978880882263184,0.1666666666666666,-2.6971447363125796,29.556078791618347,10.0,3.2504329004329002,9.0,28.561351361640725,10.0
subject-10,1,509,1.0874559879303,truck,truck,0,truck2-bird2.png,True,0.7918560240460637,1.1443969011306765,1.0,-0.3115409431839148,2.4978880882263184,0.1666666666666666,-2.6971447363125796,29.556078791618347,10.0,3.2504329004329002,9.0,28.561351361640725,10.0
subject-07,1,608,1.04200792312622,oven,truck,0,truck2-bird2.png,False,0.7046535669934687,1.1443969011306765,1.0,-0.3115409431839148,2.4978880882263184,0.1666666666666666,-2.6971447363125796,29.556078791618347,10.0,3.2504329004329002,9.0,28.561351361640725,10.0
subject-04,1,347,0.730774879455566,truck,truck,0,truck2-bird2.png,True,-1.3822111338126168,1.1443969011306765,1.0,-0.3115409431839148,2.4978880882263184,0.1666666666666666,-2.6971447363125796,29.556078791618347,10.0,3.2504329004329002,9.0,28.561351361640725,10.0
subject-05,1,25,1.21997904777527,elephant,elephant,0,elephant8-bicycle3.png,True,2.2955547557029425,2.261070728302002,0.1,-3.7056537338409865,2.4746694564819336,0.2,-2.4350157000493162,30.488853693008423,9.0,4.277777777777777,1.0,31.8424192441136,0.0
subject-01,1,291,0.862920999526978,elephant,elephant,0,elephant8-bicycle3.png,True,-0.17712562152604833,2.261070728302002,0.1,-3.7056537338409865,2.4746694564819336,0.2,-2.4350157000493162,30.488853693008423,9.0,4.277777777777777,1.0,31.8424192441136,0.0
subject-06,1,734,0.784517049789429,elephant,elephant,0,elephant8-bicycle3.png,True,-0.29110121977177283,2.261070728302002,0.1,-3.7056537338409865,2.4746694564819336,0.2,-2.4350157000493162,30.488853693008423,9.0,4.277777777777777,1.0,31.8424192441136,0.0
subject-02,1,594,0.851953983306885,elephant,elephant,0,elephant8-bicycle3.png,True,-0.31475448225982366,2.261070728302002,0.1,-3.7056537338409865,2.4746694564819336,0.2,-2.4350157000493162,30.488853693008423,9.0,4.277777777777777,1.0,31.8424192441136,0.0
subject-08,1,1036,0.819689989089966,elephant,elephant,0,elephant8-bicycle3.png,True,-0.017274504984665734,2.261070728302002,0.1,-3.7056537338409865,2.4746694564819336,0.2,-2.4350157000493162,30.488853693008423,9.0,4.277777777777777,1.0,31.8424192441136,0.0
subject-09,1,563,1.18218588829041,elephant,elephant,0,elephant8-bicycle3.png,True,1.731501368053737,2.261070728302002,0.1,-3.7056537338409865,2.4746694564819336,0.2,-2.4350157000493162,30.488853693008423,9.0,4.277777777777777,1.0,31.8424192441136,0.0
subject-03,1,33,0.758143901824951,elephant,elephant,0,elephant8-bicycle3.png,True,0.1316473977811691,2.261070728302002,0.1,-3.7056537338409865,2.4746694564819336,0.2,-2.4350157000493162,30.488853693008423,9.0,4.277777777777777,1.0,31.8424192441136,0.0
subject-10,1,120,0.934626817703247,elephant,elephant,0,elephant8-bicycle3.png,True,0.03937058437546428,2.261070728302002,0.1,-3.7056537338409865,2.4746694564819336,0.2,-2.4350157000493162,30.488853693008423,9.0,4.277777777777777,1.0,31.8424192441136,0.0
subject-07,1,210,0.857061862945557,elephant,elephant,0,elephant8-bicycle3.png,True,-0.22641651553715575,2.261070728302002,0.1,-3.7056537338409865,2.4746694564819336,0.2,-2.4350157000493162,30.488853693008423,9.0,4.277777777777777,1.0,31.8424192441136,0.0
subject-04,1,871,1.17024803161621,elephant,elephant,0,elephant8-bicycle3.png,True,0.2365341662137157,2.261070728302002,0.1,-3.7056537338409865,2.4746694564819336,0.2,-2.4350157000493162,30.488853693008423,9.0,4.277777777777777,1.0,31.8424192441136,0.0
subject-05,1,26,0.929419040679932,chair,chair,0,chair8-chair3.png,True,0.6751853891017627,1.502727746963501,0.5,-0.9411325404316288,2.3527843952178955,0.1111111111111111,-3.6010325369557217,29.46450161933899,10.0,2.806782106782107,8.0,31.68963011869295,10.0
subject-01,1,600,0.756588935852051,chair,chair,0,chair8-chair3.png,True,-0.6387797585361173,1.502727746963501,0.5,-0.9411325404316288,2.3527843952178955,0.1111111111111111,-3.6010325369557217,29.46450161933899,10.0,2.806782106782107,8.0,31.68963011869295,10.0
subject-06,1,353,0.807090044021606,chair,chair,0,chair8-chair3.png,True,-0.19886085980197665,1.502727746963501,0.5,-0.9411325404316288,2.3527843952178955,0.1111111111111111,-3.6010325369557217,29.46450161933899,10.0,2.806782106782107,8.0,31.68963011869295,10.0
subject-02,1,685,0.936192989349365,chair,chair,0,chair8-chair3.png,True,0.12319869630093887,1.502727746963501,0.5,-0.9411325404316288,2.3527843952178955,0.1111111111111111,-3.6010325369557217,29.46450161933899,10.0,2.806782106782107,8.0,31.68963011869295,10.0
subject-08,1,1014,0.716677904129028,chair,chair,0,chair8-chair3.png,True,-0.4967998856445072,1.502727746963501,0.5,-0.9411325404316288,2.3527843952178955,0.1111111111111111,-3.6010325369557217,29.46450161933899,10.0,2.806782106782107,8.0,31.68963011869295,10.0
subject-09,1,1142,0.438107013702393,chair,chair,0,chair8-chair3.png,True,-1.1286748800219855,1.502727746963501,0.5,-0.9411325404316288,2.3527843952178955,0.1111111111111111,-3.6010325369557217,29.46450161933899,10.0,2.806782106782107,8.0,31.68963011869295,10.0
subject-03,1,1109,0.850085973739624,chair,chair,0,chair8-chair3.png,True,0.6657036190003067,1.502727746963501,0.5,-0.9411325404316288,2.3527843952178955,0.1111111111111111,-3.6010325369557217,29.46450161933899,10.0,2.806782106782107,8.0,31.68963011869295,10.0
subject-10,1,4,0.916406869888306,chair,chair,0,chair8-chair3.png,True,-0.05033902683247712,1.502727746963501,0.5,-0.9411325404316288,2.3527843952178955,0.1111111111111111,-3.6010325369557217,29.46450161933899,10.0,2.806782106782107,8.0,31.68963011869295,10.0
subject-07,1,942,1.02342987060547,chair,chair,0,chair8-chair3.png,True,0.6111264657572703,1.502727746963501,0.5,-0.9411325404316288,2.3527843952178955,0.1111111111111111,-3.6010325369557217,29.46450161933899,10.0,2.806782106782107,8.0,31.68963011869295,10.0
subject-04,1,956,0.69060492515564,chair,chair,0,chair8-chair3.png,True,-1.5301722195025766,1.502727746963501,0.5,-0.9411325404316288,2.3527843952178955,0.1111111111111111,-3.6010325369557217,29.46450161933899,10.0,2.806782106782107,8.0,31.68963011869295,10.0
subject-05,1,27,1.02919983863831,oven,oven,0,oven4-chair1.png,True,1.2316341240913882,0.8024318218231201,0.0909090909090909,-6.220781479493953,2.415168285369873,0.0625,-4.61310471385154,28.45242714881897,10.0,0.7286435786435785,7.0,41.816200855680606,6.0
subject-01,1,1086,0.687588930130005,clock,oven,0,oven4-chair1.png,False,-0.9383520323582811,0.8024318218231201,0.0909090909090909,-6.220781479493953,2.415168285369873,0.0625,-4.61310471385154,28.45242714881897,10.0,0.7286435786435785,7.0,41.816200855680606,6.0
subject-06,1,796,0.726541996002197,oven,oven,0,oven4-chair1.png,True,-0.528005538959509,0.8024318218231201,0.0909090909090909,-6.220781479493953,2.415168285369873,0.0625,-4.61310471385154,28.45242714881897,10.0,0.7286435786435785,7.0,41.816200855680606,6.0
subject-02,1,1248,0.766373872756958,chair,oven,0,oven4-chair1.png,False,-0.7596799769649906,0.8024318218231201,0.0909090909090909,-6.220781479493953,2.415168285369873,0.0625,-4.61310471385154,28.45242714881897,10.0,0.7286435786435785,7.0,41.816200855680606,6.0
subject-08,1,337,1.10582208633423,oven,oven,0,oven4-chair1.png,True,1.3146818659798023,0.8024318218231201,0.0909090909090909,-6.220781479493953,2.415168285369873,0.0625,-4.61310471385154,28.45242714881897,10.0,0.7286435786435785,7.0,41.816200855680606,6.0
subject-09,1,169,0.633922815322876,oven,oven,0,oven4-chair1.png,True,-0.3759755037590694,0.8024318218231201,0.0909090909090909,-6.220781479493953,2.415168285369873,0.0625,-4.61310471385154,28.45242714881897,10.0,0.7286435786435785,7.0,41.816200855680606,6.0
subject-03,1,541,0.533969879150391,oven,oven,0,oven4-chair1.png,True,-1.1704934932374331,0.8024318218231201,0.0909090909090909,-6.220781479493953,2.415168285369873,0.0625,-4.61310471385154,28.45242714881897,10.0,0.7286435786435785,7.0,41.816200855680606,6.0
subject-10,1,1172,0.712743997573853,oven,oven,0,oven4-chair1.png,True,-1.0531145165536804,0.8024318218231201,0.0909090909090909,-6.220781479493953,2.415168285369873,0.0625,-4.61310471385154,28.45242714881897,10.0,0.7286435786435785,7.0,41.816200855680606,6.0
subject-07,1,1083,0.675472974777222,oven,oven,0,oven4-chair1.png,True,-1.140585657223004,0.8024318218231201,0.0909090909090909,-6.220781479493953,2.415168285369873,0.0625,-4.61310471385154,28.45242714881897,10.0,0.7286435786435785,7.0,41.816200855680606,6.0
subject-04,1,1243,0.715633869171143,oven,oven,0,oven4-chair1.png,True,-1.4379811828248508,0.8024318218231201,0.0909090909090909,-6.220781479493953,2.415168285369873,0.0625,-4.61310471385154,28.45242714881897,10.0,0.7286435786435785,7.0,41.816200855680606,6.0
subject-05,1,28,0.640292167663574,bottle,bottle,0,bottle10-truck3.png,True,-0.9371918020344376,0.2475856989622116,1.0,-0.036318796046201335,2.4150032997131348,0.1428571428571428,-2.6691468120956863,26.094816967844963,9.0,5.595970695970696,6.0,23.604326667758592,0.0
subject-01,1,121,1.02280616760254,bottle,bottle,0,bottle10-truck3.png,True,0.5170361086016265,0.2475856989622116,1.0,-0.036318796046201335,2.4150032997131348,0.1428571428571428,-2.6691468120956863,26.094816967844963,9.0,5.595970695970696,6.0,23.604326667758592,0.0
subject-06,1,626,0.576432943344116,bottle,bottle,0,bottle10-truck3.png,True,-1.1413983795145017,0.2475856989622116,1.0,-0.036318796046201335,2.4150032997131348,0.1428571428571428,-2.6691468120956863,26.094816967844963,9.0,5.595970695970696,6.0,23.604326667758592,0.0
subject-02,1,722,0.825200796127319,bottle,bottle,0,bottle10-truck3.png,True,-0.453842583038381,0.2475856989622116,1.0,-0.036318796046201335,2.4150032997131348,0.1428571428571428,-2.6691468120956863,26.094816967844963,9.0,5.595970695970696,6.0,23.604326667758592,0.0
subject-08,1,790,0.61760401725769,bottle,bottle,0,bottle10-truck3.png,True,-0.9579927964902932,0.2475856989622116,1.0,-0.036318796046201335,2.4150032997131348,0.1428571428571428,-2.6691468120956863,26.094816967844963,9.0,5.595970695970696,6.0,23.604326667758592,0.0
subject-09,1,1017,0.899589061737061,bottle,bottle,0,bottle10-truck3.png,True,0.6452230732466286,0.2475856989622116,1.0,-0.036318796046201335,2.4150032997131348,0.1428571428571428,-2.6691468120956863,26.094816967844963,9.0,5.595970695970696,6.0,23.604326667758592,0.0
subject-03,1,1224,0.636090993881226,bottle,bottle,0,bottle10-truck3.png,True,-0.5773111175949718,0.2475856989622116,1.0,-0.036318796046201335,2.4150032997131348,0.1428571428571428,-2.6691468120956863,26.094816967844963,9.0,5.595970695970696,6.0,23.604326667758592,0.0
subject-10,1,294,0.761683940887451,bottle,bottle,0,bottle10-truck3.png,True,-0.8121487722060866,0.2475856989622116,1.0,-0.036318796046201335,2.4150032997131348,0.1428571428571428,-2.6691468120956863,26.094816967844963,9.0,5.595970695970696,6.0,23.604326667758592,0.0
subject-07,1,615,0.652390003204346,bottle,bottle,0,bottle10-truck3.png,True,-1.2567917782207454,0.2475856989622116,1.0,-0.036318796046201335,2.4150032997131348,0.1428571428571428,-2.6691468120956863,26.094816967844963,9.0,5.595970695970696,6.0,23.604326667758592,0.0
subject-04,1,399,1.00404095649719,bottle,bottle,0,bottle10-truck3.png,True,-0.37566915122964556,0.2475856989622116,1.0,-0.036318796046201335,2.4150032997131348,0.1428571428571428,-2.6691468120956863,26.094816967844963,9.0,5.595970695970696,6.0,23.604326667758592,0.0
subject-05,1,29,1.30984091758728,clock,bear,0,bear7-bicycle2.png,False,2.7966884888842856,1.9733238220214844,0.3333333333333333,-2.983247130902829,2.459996223449707,0.3333333333333333,-2.033190167748273,30.307541131973267,10.0,3.799242424242424,10.0,27.505539077998094,4.0
subject-01,1,195,1.23756384849548,cat,bear,0,bear7-bicycle2.png,False,1.4494338107849625,1.9733238220214844,0.3333333333333333,-2.983247130902829,2.459996223449707,0.3333333333333333,-2.033190167748273,30.307541131973267,10.0,3.799242424242424,10.0,27.505539077998094,4.0
subject-06,1,288,0.810503005981445,bear,bear,0,bear7-bicycle2.png,True,-0.1849144229003974,1.9733238220214844,0.3333333333333333,-2.983247130902829,2.459996223449707,0.3333333333333333,-2.033190167748273,30.307541131973267,10.0,3.799242424242424,10.0,27.505539077998094,4.0
subject-02,1,691,0.888917922973633,elephant,bear,0,bear7-bicycle2.png,False,-0.12258133552282345,1.9733238220214844,0.3333333333333333,-2.983247130902829,2.459996223449707,0.3333333333333333,-2.033190167748273,30.307541131973267,10.0,3.799242424242424,10.0,27.505539077998094,4.0
subject-08,1,1006,0.806670904159546,bear,bear,0,bear7-bicycle2.png,True,-0.07787886669105966,1.9733238220214844,0.3333333333333333,-2.983247130902829,2.459996223449707,0.3333333333333333,-2.033190167748273,30.307541131973267,10.0,3.799242424242424,10.0,27.505539077998094,4.0
subject-09,1,646,0.80539608001709,bear,bear,0,bear7-bicycle2.png,True,0.28315321983215214,1.9733238220214844,0.3333333333333333,-2.983247130902829,2.459996223449707,0.3333333333333333,-2.033190167748273,30.307541131973267,10.0,3.799242424242424,10.0,27.505539077998094,4.0
subject-03,1,198,0.743540048599243,bear,bear,0,bear7-bicycle2.png,True,0.04681921731337845,1.9733238220214844,0.3333333333333333,-2.983247130902829,2.459996223449707,0.3333333333333333,-2.033190167748273,30.307541131973267,10.0,3.799242424242424,10.0,27.505539077998094,4.0
subject-10,1,1131,1.23911786079407,bear,bear,0,bear7-bicycle2.png,True,1.5385940382197407,1.9733238220214844,0.3333333333333333,-2.983247130902829,2.459996223449707,0.3333333333333333,-2.033190167748273,30.307541131973267,10.0,3.799242424242424,10.0,27.505539077998094,4.0
subject-07,1,304,1.029217004776,bear,bear,0,bear7-bicycle2.png,True,0.6402605142712409,1.9733238220214844,0.3333333333333333,-2.983247130902829,2.459996223449707,0.3333333333333333,-2.033190167748273,30.307541131973267,10.0,3.799242424242424,10.0,27.505539077998094,4.0
subject-04,1,236,1.1873140335083,bottle,bear,0,bear7-bicycle2.png,False,0.2993946850354952,1.9733238220214844,0.3333333333333333,-2.983247130902829,2.459996223449707,0.3333333333333333,-2.033190167748273,30.307541131973267,10.0,3.799242424242424,10.0,27.505539077998094,4.0
subject-05,1,30,0.980493783950806,elephant,elephant,0,elephant6-bottle2.png,True,0.9600145031648999,0.3679671287536621,0.1428571428571428,-5.578957315538,2.4372758865356445,0.3333333333333333,-2.092921457069376,26.85697650909424,9.0,4.359523809523809,1.0,33.26544657227709,0.0
subject-01,1,412,0.83922004699707,elephant,elephant,0,elephant6-bottle2.png,True,-0.28002631213957324,0.3679671287536621,0.1428571428571428,-5.578957315538,2.4372758865356445,0.3333333333333333,-2.092921457069376,26.85697650909424,9.0,4.359523809523809,1.0,33.26544657227709,0.0
subject-06,1,101,1.04101896286011,elephant,elephant,0,elephant6-bottle2.png,True,0.7570463388208216,0.3679671287536621,0.1428571428571428,-5.578957315538,2.4372758865356445,0.3333333333333333,-2.092921457069376,26.85697650909424,9.0,4.359523809523809,1.0,33.26544657227709,0.0
subject-02,1,796,1.23000907897949,elephant,elephant,0,elephant6-bottle2.png,True,1.65072966337951,0.3679671287536621,0.1428571428571428,-5.578957315538,2.4372758865356445,0.3333333333333333,-2.092921457069376,26.85697650909424,9.0,4.359523809523809,1.0,33.26544657227709,0.0
subject-08,1,780,0.97714900970459,elephant,elephant,0,elephant6-bottle2.png,True,0.7157035414958507,0.3679671287536621,0.1428571428571428,-5.578957315538,2.4372758865356445,0.3333333333333333,-2.092921457069376,26.85697650909424,9.0,4.359523809523809,1.0,33.26544657227709,0.0
subject-09,1,935,0.814822912216187,bear,elephant,0,elephant6-bottle2.png,False,0.3193891653364259,0.3679671287536621,0.1428571428571428,-5.578957315538,2.4372758865356445,0.3333333333333333,-2.092921457069376,26.85697650909424,9.0,4.359523809523809,1.0,33.26544657227709,0.0
subject-03,1,9,1.2614312171936,cat,elephant,0,elephant6-bottle2.png,False,3.0550503213388422,0.3679671287536621,0.1428571428571428,-5.578957315538,2.4372758865356445,0.3333333333333333,-2.092921457069376,26.85697650909424,9.0,4.359523809523809,1.0,33.26544657227709,0.0
subject-10,1,650,1.36738276481628,bear,elephant,0,elephant6-bottle2.png,False,2.170132327370085,0.3679671287536621,0.1428571428571428,-5.578957315538,2.4372758865356445,0.3333333333333333,-2.092921457069376,26.85697650909424,9.0,4.359523809523809,1.0,33.26544657227709,0.0
subject-07,1,29,0.901135921478271,elephant,elephant,0,elephant6-bottle2.png,True,-0.004535404496304488,0.3679671287536621,0.1428571428571428,-5.578957315538,2.4372758865356445,0.3333333333333333,-2.092921457069376,26.85697650909424,9.0,4.359523809523809,1.0,33.26544657227709,0.0
subject-04,1,13,0.757057905197144,bear,elephant,0,elephant6-bottle2.png,False,-1.285400841351114,0.3679671287536621,0.1428571428571428,-5.578957315538,2.4372758865356445,0.3333333333333333,-2.092921457069376,26.85697650909424,9.0,4.359523809523809,1.0,33.26544657227709,0.0
subject-05,1,31,1.03709888458252,bird,airplane,0,airplane3-car1.png,False,1.2756848253607245,2.569575786590576,0.5,-1.910276719873042,2.3259425163269043,1.0,-1.4876086598638072,30.271050453186035,9.0,4.452380952380952,4.0,29.18344681249976,3.0
subject-01,1,1134,0.610826015472412,boat,airplane,0,airplane3-car1.png,False,-1.271627959636131,2.569575786590576,0.5,-1.910276719873042,2.3259425163269043,1.0,-1.4876086598638072,30.271050453186035,9.0,4.452380952380952,4.0,29.18344681249976,3.0
subject-06,1,583,0.9100182056427,airplane,airplane,0,airplane3-car1.png,True,0.22173600835411153,2.569575786590576,0.5,-1.910276719873042,2.3259425163269043,1.0,-1.4876086598638072,30.271050453186035,9.0,4.452380952380952,4.0,29.18344681249976,3.0
subject-02,1,1088,1.47213315963745,keyboard,airplane,0,airplane3-car1.png,False,2.909517197942569,2.569575786590576,0.5,-1.910276719873042,2.3259425163269043,1.0,-1.4876086598638072,30.271050453186035,9.0,4.452380952380952,4.0,29.18344681249976,3.0
subject-08,1,721,1.36336994171143,airplane,airplane,0,airplane3-car1.png,True,2.5135774463838763,2.569575786590576,0.5,-1.910276719873042,2.3259425163269043,1.0,-1.4876086598638072,30.271050453186035,9.0,4.452380952380952,4.0,29.18344681249976,3.0
subject-09,1,318,0.912245988845825,airplane,airplane,0,airplane3-car1.png,True,0.6938752303316639,2.569575786590576,0.5,-1.910276719873042,2.3259425163269043,1.0,-1.4876086598638072,30.271050453186035,9.0,4.452380952380952,4.0,29.18344681249976,3.0
subject-03,1,560,0.758388042449951,airplane,airplane,0,airplane3-car1.png,True,0.13306551700470132,2.569575786590576,0.5,-1.910276719873042,2.3259425163269043,1.0,-1.4876086598638072,30.271050453186035,9.0,4.452380952380952,4.0,29.18344681249976,3.0
subject-10,1,905,1.28727197647095,car,airplane,0,airplane3-car1.png,False,1.7756906006968671,2.569575786590576,0.5,-1.910276719873042,2.3259425163269043,1.0,-1.4876086598638072,30.271050453186035,9.0,4.452380952380952,4.0,29.18344681249976,3.0
subject-07,1,310,0.873806953430176,chair,airplane,0,airplane3-car1.png,False,-0.1421170567421578,2.569575786590576,0.5,-1.910276719873042,2.3259425163269043,1.0,-1.4876086598638072,30.271050453186035,9.0,4.452380952380952,4.0,29.18344681249976,3.0
subject-04,1,652,1.45288395881653,keyboard,airplane,0,airplane3-car1.png,False,1.2775888393484776,2.569575786590576,0.5,-1.910276719873042,2.3259425163269043,1.0,-1.4876086598638072,30.271050453186035,9.0,4.452380952380952,4.0,29.18344681249976,3.0
subject-05,1,32,1.21482992172241,bicycle,cat,0,cat10-bicycle1.png,False,2.2668395646337025,1.8399348258972168,0.0833333333333333,-4.545235013801135,2.4039597511291504,0.125,-3.164674896967084,29.829576015472412,10.0,0.5837662337662334,2.0,38.19582774569906,5.0
subject-01,1,647,1.21452307701111,cat,cat,0,cat10-bicycle1.png,True,1.3493993798894839,1.8399348258972168,0.0833333333333333,-4.545235013801135,2.4039597511291504,0.125,-3.164674896967084,29.829576015472412,10.0,0.5837662337662334,2.0,38.19582774569906,5.0
subject-06,1,290,0.826698064804077,bird,cat,0,cat10-bicycle1.png,False,-0.11873631466333442,1.8399348258972168,0.0833333333333333,-4.545235013801135,2.4039597511291504,0.125,-3.164674896967084,29.829576015472412,10.0,0.5837662337662334,2.0,38.19582774569906,5.0
subject-02,1,1216,1.22848010063171,cat,cat,0,cat10-bicycle1.png,True,1.64278060321345,1.8399348258972168,0.0833333333333333,-4.545235013801135,2.4039597511291504,0.125,-3.164674896967084,29.829576015472412,10.0,0.5837662337662334,2.0,38.19582774569906,5.0
subject-08,1,373,0.978868961334229,dog,cat,0,cat10-bicycle1.png,False,0.7237099852080803,1.8399348258972168,0.0833333333333333,-4.545235013801135,2.4039597511291504,0.125,-3.164674896967084,29.829576015472412,10.0,0.5837662337662334,2.0,38.19582774569906,5.0
subject-09,1,147,0.860664129257202,knife,cat,0,cat10-bicycle1.png,False,0.49559892567425406,1.8399348258972168,0.0833333333333333,-4.545235013801135,2.4039597511291504,0.125,-3.164674896967084,29.829576015472412,10.0,0.5837662337662334,2.0,38.19582774569906,5.0
subject-03,1,912,0.568596839904785,cat,cat,0,cat10-bicycle1.png,True,-0.9693587632091899,1.8399348258972168,0.0833333333333333,-4.545235013801135,2.4039597511291504,0.125,-3.164674896967084,29.829576015472412,10.0,0.5837662337662334,2.0,38.19582774569906,5.0
subject-10,1,1229,0.878035068511963,cat,cat,0,cat10-bicycle1.png,True,-0.23927037931402836,1.8399348258972168,0.0833333333333333,-4.545235013801135,2.4039597511291504,0.125,-3.164674896967084,29.829576015472412,10.0,0.5837662337662334,2.0,38.19582774569906,5.0
subject-07,1,100,0.745021820068359,cat,cat,0,cat10-bicycle1.png,True,-0.7904573600217911,1.8399348258972168,0.0833333333333333,-4.545235013801135,2.4039597511291504,0.125,-3.164674896967084,29.829576015472412,10.0,0.5837662337662334,2.0,38.19582774569906,5.0
subject-04,1,1024,1.1640510559082,oven,cat,0,cat10-bicycle1.png,False,0.21370836843198507,1.8399348258972168,0.0833333333333333,-4.545235013801135,2.4039597511291504,0.125,-3.164674896967084,29.829576015472412,10.0,0.5837662337662334,2.0,38.19582774569906,5.0
subject-05,1,33,0.884289979934692,knife,boat,0,boat1-bird3.png,False,0.4235136318420767,1.560807228088379,0.25,-3.235543185362966,2.464381217956543,0.2,-2.3386878119540415,29.387639045715332,10.0,1.3623015873015871,2.0,32.767203728230854,2.0
subject-01,1,30,0.995290040969849,knife,boat,0,boat1-bird3.png,False,0.397571355869003,1.560807228088379,0.25,-3.235543185362966,2.464381217956543,0.2,-2.3386878119540415,29.387639045715332,10.0,1.3623015873015871,2.0,32.767203728230854,2.0
subject-06,1,180,0.751938104629517,car,boat,0,boat1-bird3.png,False,-0.4242290449099588,1.560807228088379,0.25,-3.235543185362966,2.464381217956543,0.2,-2.3386878119540415,29.387639045715332,10.0,1.3623015873015871,2.0,32.767203728230854,2.0
subject-02,1,801,1.04303503036499,keyboard,boat,0,boat1-bird3.png,False,0.6786636010401539,1.560807228088379,0.25,-3.235543185362966,2.464381217956543,0.2,-2.3386878119540415,29.387639045715332,10.0,1.3623015873015871,2.0,32.767203728230854,2.0
subject-08,1,746,0.658921003341675,boat,boat,0,boat1-bird3.png,True,-0.76566057171149,1.560807228088379,0.25,-3.235543185362966,2.464381217956543,0.2,-2.3386878119540415,29.387639045715332,10.0,1.3623015873015871,2.0,32.767203728230854,2.0
subject-09,1,119,0.811846971511841,bear,boat,0,boat1-bird3.png,False,0.3079499010205767,1.560807228088379,0.25,-3.235543185362966,2.464381217956543,0.2,-2.3386878119540415,29.387639045715332,10.0,1.3623015873015871,2.0,32.767203728230854,2.0
subject-03,1,972,0.611475944519043,boat,boat,0,boat1-bird3.png,True,-0.7202904955199115,1.560807228088379,0.25,-3.235543185362966,2.464381217956543,0.2,-2.3386878119540415,29.387639045715332,10.0,1.3623015873015871,2.0,32.767203728230854,2.0
subject-10,1,189,0.882588148117065,knife,boat,0,boat1-bird3.png,False,-0.21685236773017744,1.560807228088379,0.25,-3.235543185362966,2.464381217956543,0.2,-2.3386878119540415,29.387639045715332,10.0,1.3623015873015871,2.0,32.767203728230854,2.0
subject-07,1,587,1.01777195930481,chair,boat,0,boat1-bird3.png,False,0.5826429612343266,1.560807228088379,0.25,-3.235543185362966,2.464381217956543,0.2,-2.3386878119540415,29.387639045715332,10.0,1.3623015873015871,2.0,32.767203728230854,2.0
subject-04,1,850,1.5002179145813,cat,boat,0,boat1-bird3.png,False,1.4519376432496256,1.560807228088379,0.25,-3.235543185362966,2.464381217956543,0.2,-2.3386878119540415,29.387639045715332,10.0,1.3623015873015871,2.0,32.767203728230854,2.0
subject-05,1,34,0.861931800842285,knife,knife,0,knife10-chair1.png,True,0.2988285147934939,1.0098934173583984,0.125,-4.923046668639769,2.388101100921631,0.1111111111111111,-3.3628877529855226,28.934956073760986,10.0,1.762301587301587,6.0,34.23926572441915,5.0
subject-01,1,988,0.955188989639282,boat,knife,0,knife10-chair1.png,False,0.22346755683237546,1.0098934173583984,0.125,-4.923046668639769,2.388101100921631,0.1111111111111111,-3.3628877529855226,28.934956073760986,10.0,1.762301587301587,6.0,34.23926572441915,5.0
subject-06,1,71,0.621258974075317,bottle,knife,0,knife10-chair1.png,False,-0.9582251075890088,1.0098934173583984,0.125,-4.923046668639769,2.388101100921631,0.1111111111111111,-3.3628877529855226,28.934956073760986,10.0,1.762301587301587,6.0,34.23926572441915,5.0
subject-02,1,524,0.856683969497681,chair,knife,0,knife10-chair1.png,False,-0.2901635880395974,1.0098934173583984,0.125,-4.923046668639769,2.388101100921631,0.1111111111111111,-3.3628877529855226,28.934956073760986,10.0,1.762301587301587,6.0,34.23926572441915,5.0
subject-08,1,181,0.810522079467773,chair,knife,0,knife10-chair1.png,False,-0.059951491409163324,1.0098934173583984,0.125,-4.923046668639769,2.388101100921631,0.1111111111111111,-3.3628877529855226,28.934956073760986,10.0,1.762301587301587,6.0,34.23926572441915,5.0
subject-09,1,754,0.948744058609009,knife,knife,0,knife10-chair1.png,True,0.834170722923184,1.0098934173583984,0.125,-4.923046668639769,2.388101100921631,0.1111111111111111,-3.3628877529855226,28.934956073760986,10.0,1.762301587301587,6.0,34.23926572441915,5.0
subject-03,1,507,0.801992893218994,keyboard,knife,0,knife10-chair1.png,False,0.38634936566705785,1.0098934173583984,0.125,-4.923046668639769,2.388101100921631,0.1111111111111111,-3.3628877529855226,28.934956073760986,10.0,1.762301587301587,6.0,34.23926572441915,5.0
subject-10,1,874,1.01147794723511,keyboard,knife,0,knife10-chair1.png,False,0.4177627192607817,1.0098934173583984,0.125,-4.923046668639769,2.388101100921631,0.1111111111111111,-3.3628877529855226,28.934956073760986,10.0,1.762301587301587,6.0,34.23926572441915,5.0
subject-07,1,576,0.704074859619141,keyboard,knife,0,knife10-chair1.png,False,-0.9965957865856773,1.0098934173583984,0.125,-4.923046668639769,2.388101100921631,0.1111111111111111,-3.3628877529855226,28.934956073760986,10.0,1.762301587301587,6.0,34.23926572441915,5.0
subject-04,1,779,0.77449107170105,chair,knife,0,knife10-chair1.png,False,-1.2211879168435915,1.0098934173583984,0.125,-4.923046668639769,2.388101100921631,0.1111111111111111,-3.3628877529855226,28.934956073760986,10.0,1.762301587301587,6.0,34.23926572441915,5.0
subject-05,1,35,1.28284978866577,bird,bird,0,bird2-car3.png,True,2.646166746709191,1.7558196783065796,0.1111111111111111,-4.0190941067562775,2.4113850593566895,0.1,-3.6694679313801957,29.75939667224884,10.0,0.26330475080475063,10.0,43.08848237740983,6.0
subject-01,1,692,1.07060599327087,bird,bird,0,bird2-car3.png,True,0.7245651126055999,1.7558196783065796,0.1111111111111111,-4.0190941067562775,2.4113850593566895,0.1,-3.6694679313801957,29.75939667224884,10.0,0.26330475080475063,10.0,43.08848237740983,6.0
subject-06,1,804,0.609979152679443,bird,bird,0,bird2-car3.png,True,-1.0043180084797245,1.7558196783065796,0.1111111111111111,-4.0190941067562775,2.4113850593566895,0.1,-3.6694679313801957,29.75939667224884,10.0,0.26330475080475063,10.0,43.08848237740983,6.0
subject-02,1,774,1.17785096168518,keyboard,bird,0,bird2-car3.png,False,1.3795629636529136,1.7558196783065796,0.1111111111111111,-4.0190941067562775,2.4113850593566895,0.1,-3.6694679313801957,29.75939667224884,10.0,0.26330475080475063,10.0,43.08848237740983,6.0
subject-08,1,516,0.648746013641357,bird,bird,0,bird2-car3.png,True,-0.8130255562286479,1.7558196783065796,0.1111111111111111,-4.0190941067562775,2.4113850593566895,0.1,-3.6694679313801957,29.75939667224884,10.0,0.26330475080475063,10.0,43.08848237740983,6.0
subject-09,1,512,0.652850866317749,bird,bird,0,bird2-car3.png,True,-0.3032176769656707,1.7558196783065796,0.1111111111111111,-4.0190941067562775,2.4113850593566895,0.1,-3.6694679313801957,29.75939667224884,10.0,0.26330475080475063,10.0,43.08848237740983,6.0
subject-03,1,36,0.989337921142578,bird,bird,0,bird2-car3.png,True,1.474564756004543,1.7558196783065796,0.1111111111111111,-4.0190941067562775,2.4113850593566895,0.1,-3.6694679313801957,29.75939667224884,10.0,0.26330475080475063,10.0,43.08848237740983,6.0
subject-10,1,900,1.01656699180603,bird,bird,0,bird2-car3.png,True,0.44281966313977233,1.7558196783065796,0.1111111111111111,-4.0190941067562775,2.4113850593566895,0.1,-3.6694679313801957,29.75939667224884,10.0,0.26330475080475063,10.0,43.08848237740983,6.0
subject-07,1,224,0.859625101089478,bird,bird,0,bird2-car3.png,True,-0.21351245936058788,1.7558196783065796,0.1111111111111111,-4.0190941067562775,2.4113850593566895,0.1,-3.6694679313801957,29.75939667224884,10.0,0.26330475080475063,10.0,43.08848237740983,6.0
subject-04,1,1070,1.10231900215149,bottle,bird,0,bird2-car3.png,False,-0.013674058431532927,1.7558196783065796,0.1111111111111111,-4.0190941067562775,2.4113850593566895,0.1,-3.6694679313801957,29.75939667224884,10.0,0.26330475080475063,10.0,43.08848237740983,6.0
subject-05,1,36,0.822549819946289,bicycle,bicycle,0,bicycle1-chair1.png,True,0.07920656448494162,0.5348860025405884,0.5,-2.4613889619138574,2.460638999938965,0.2,-2.529837523586216,28.265756487846375,10.0,4.242832167832168,2.0,28.776470783598814,9.0
subject-01,1,441,0.792866945266724,bicycle,bicycle,0,bicycle1-chair1.png,True,-0.48127418072682343,0.5348860025405884,0.5,-2.4613889619138574,2.460638999938965,0.2,-2.529837523586216,28.265756487846375,10.0,4.242832167832168,2.0,28.776470783598814,9.0
subject-06,1,88,1.1956570148468,bicycle,bicycle,0,bicycle1-chair1.png,True,1.3889460962729243,0.5348860025405884,0.5,-2.4613889619138574,2.460638999938965,0.2,-2.529837523586216,28.265756487846375,10.0,4.242832167832168,2.0,28.776470783598814,9.0
subject-02,1,1015,0.889202833175659,bicycle,bicycle,0,bicycle1-chair1.png,True,-0.12110010569303749,0.5348860025405884,0.5,-2.4613889619138574,2.460638999938965,0.2,-2.529837523586216,28.265756487846375,10.0,4.242832167832168,2.0,28.776470783598814,9.0
subject-08,1,891,0.926765918731689,bicycle,bicycle,0,bicycle1-chair1.png,True,0.48116823540277287,0.5348860025405884,0.5,-2.4613889619138574,2.460638999938965,0.2,-2.529837523586216,28.265756487846375,10.0,4.242832167832168,2.0,28.776470783598814,9.0
subject-09,1,959,0.668713092803955,bicycle,bicycle,0,bicycle1-chair1.png,True,-0.2422446202281525,0.5348860025405884,0.5,-2.4613889619138574,2.460638999938965,0.2,-2.529837523586216,28.265756487846375,10.0,4.242832167832168,2.0,28.776470783598814,9.0
subject-03,1,464,0.667564153671265,bicycle,bicycle,0,bicycle1-chair1.png,True,-0.39449560738009,0.5348860025405884,0.5,-2.4613889619138574,2.460638999938965,0.2,-2.529837523586216,28.265756487846375,10.0,4.242832167832168,2.0,28.776470783598814,9.0
subject-10,1,545,1.10133790969849,bicycle,bicycle,0,bicycle1-chair1.png,True,0.860206483514568,0.5348860025405884,0.5,-2.4613889619138574,2.460638999938965,0.2,-2.529837523586216,28.265756487846375,10.0,4.242832167832168,2.0,28.776470783598814,9.0
subject-07,1,1197,1.10872197151184,bicycle,bicycle,0,bicycle1-chair1.png,True,1.040510705424394,0.5348860025405884,0.5,-2.4613889619138574,2.460638999938965,0.2,-2.529837523586216,28.265756487846375,10.0,4.242832167832168,2.0,28.776470783598814,9.0
subject-04,1,874,1.38273000717163,bicycle,bicycle,0,bicycle1-chair1.png,True,1.01918538752181,0.5348860025405884,0.5,-2.4613889619138574,2.460638999938965,0.2,-2.529837523586216,28.265756487846375,10.0,4.242832167832168,2.0,28.776470783598814,9.0
subject-05,1,37,0.821209907531738,keyboard,keyboard,0,keyboard8-truck3.png,True,0.07173425935881092,1.1329834461212158,0.1111111111111111,-5.372698963745692,2.369817018508911,0.0714285714285714,-4.065932322404122,28.732181072235107,10.0,0.9198773448773447,7.0,41.8672905377373,6.0
subject-01,1,260,0.764376878738403,keyboard,keyboard,0,keyboard8-truck3.png,True,-0.6049674170087864,1.1329834461212158,0.1111111111111111,-5.372698963745692,2.369817018508911,0.0714285714285714,-4.065932322404122,28.732181072235107,10.0,0.9198773448773447,7.0,41.8672905377373,6.0
subject-06,1,618,0.592537879943848,keyboard,keyboard,0,keyboard8-truck3.png,True,-1.0755885390489217,1.1329834461212158,0.1111111111111111,-5.372698963745692,2.369817018508911,0.0714285714285714,-4.065932322404122,28.732181072235107,10.0,0.9198773448773447,7.0,41.8672905377373,6.0
subject-02,1,332,0.785868883132935,chair,keyboard,0,keyboard8-truck3.png,False,-0.6583266709213664,1.1329834461212158,0.1111111111111111,-5.372698963745692,2.369817018508911,0.0714285714285714,-4.065932322404122,28.732181072235107,10.0,0.9198773448773447,7.0,41.8672905377373,6.0
subject-08,1,194,0.809414863586426,chair,keyboard,0,keyboard8-truck3.png,False,-0.06510562567580658,1.1329834461212158,0.1111111111111111,-5.372698963745692,2.369817018508911,0.0714285714285714,-4.065932322404122,28.732181072235107,10.0,0.9198773448773447,7.0,41.8672905377373,6.0
subject-09,1,977,0.420167922973633,keyboard,keyboard,0,keyboard8-truck3.png,True,-1.1976312272141885,1.1329834461212158,0.1111111111111111,-5.372698963745692,2.369817018508911,0.0714285714285714,-4.065932322404122,28.732181072235107,10.0,0.9198773448773447,7.0,41.8672905377373,6.0
subject-03,1,135,0.677240133285522,keyboard,keyboard,0,keyboard8-truck3.png,True,-0.33829155409119693,1.1329834461212158,0.1111111111111111,-5.372698963745692,2.369817018508911,0.0714285714285714,-4.065932322404122,28.732181072235107,10.0,0.9198773448773447,7.0,41.8672905377373,6.0
subject-10,1,1176,0.770317077636719,keyboard,keyboard,0,keyboard8-truck3.png,True,-0.7696417711351653,1.1329834461212158,0.1111111111111111,-5.372698963745692,2.369817018508911,0.0714285714285714,-4.065932322404122,28.732181072235107,10.0,0.9198773448773447,7.0,41.8672905377373,6.0
subject-07,1,883,1.06523203849792,keyboard,keyboard,0,keyboard8-truck3.png,True,0.821570245265538,1.1329834461212158,0.1111111111111111,-5.372698963745692,2.369817018508911,0.0714285714285714,-4.065932322404122,28.732181072235107,10.0,0.9198773448773447,7.0,41.8672905377373,6.0
subject-04,1,908,1.37676692008972,oven,keyboard,0,keyboard8-truck3.png,False,0.9972210897256134,1.1329834461212158,0.1111111111111111,-5.372698963745692,2.369817018508911,0.0714285714285714,-4.065932322404122,28.732181072235107,10.0,0.9198773448773447,7.0,41.8672905377373,6.0
subject-05,1,38,0.851253032684326,oven,oven,0,oven9-knife3.png,True,0.23927610436656477,0.4586346745491028,0.5,-2.327302792003949,2.543670654296875,0.0625,-4.384054561998183,27.801028788089752,10.0,1.8255952380952378,7.0,34.561340096116396,6.0
subject-01,1,240,0.662482023239136,oven,oven,0,oven9-knife3.png,True,-1.0473568521004317,0.4586346745491028,0.5,-2.327302792003949,2.543670654296875,0.0625,-4.384054561998183,27.801028788089752,10.0,1.8255952380952378,7.0,34.561340096116396,6.0
subject-06,1,566,0.522056818008423,oven,oven,0,oven9-knife3.png,True,-1.3635963441769579,0.4586346745491028,0.5,-2.327302792003949,2.543670654296875,0.0625,-4.384054561998183,27.801028788089752,10.0,1.8255952380952378,7.0,34.561340096116396,6.0
subject-02,1,1041,0.907605171203613,cat,oven,0,oven9-knife3.png,False,-0.025427532963156613,0.4586346745491028,0.5,-2.327302792003949,2.543670654296875,0.0625,-4.384054561998183,27.801028788089752,10.0,1.8255952380952378,7.0,34.561340096116396,6.0
subject-08,1,627,1.09209203720093,cat,oven,0,oven9-knife3.png,False,1.2507679374381107,0.4586346745491028,0.5,-2.327302792003949,2.543670654296875,0.0625,-4.384054561998183,27.801028788089752,10.0,1.8255952380952378,7.0,34.561340096116396,6.0
subject-09,1,362,0.692184925079346,oven,oven,0,oven9-knife3.png,True,-0.15202088257660132,0.4586346745491028,0.5,-2.327302792003949,2.543670654296875,0.0625,-4.384054561998183,27.801028788089752,10.0,1.8255952380952378,7.0,34.561340096116396,6.0
subject-03,1,183,0.593745946884155,oven,oven,0,oven9-knife3.png,True,-0.8232772494827767,0.4586346745491028,0.5,-2.327302792003949,2.543670654296875,0.0625,-4.384054561998183,27.801028788089752,10.0,1.8255952380952378,7.0,34.561340096116396,6.0
subject-10,1,891,1.24515700340271,oven,oven,0,oven9-knife3.png,True,1.5683289826308402,0.4586346745491028,0.5,-2.327302792003949,2.543670654296875,0.0625,-4.384054561998183,27.801028788089752,10.0,1.8255952380952378,7.0,34.561340096116396,6.0
subject-07,1,1089,0.677212953567505,oven,oven,0,oven9-knife3.png,True,-1.1318261183915859,0.4586346745491028,0.5,-2.327302792003949,2.543670654296875,0.0625,-4.384054561998183,27.801028788089752,10.0,1.8255952380952378,7.0,34.561340096116396,6.0
subject-04,1,360,1.50003814697266,car,oven,0,oven9-knife3.png,False,1.451275491374927,0.4586346745491028,0.5,-2.327302792003949,2.543670654296875,0.0625,-4.384054561998183,27.801028788089752,10.0,1.8255952380952378,7.0,34.561340096116396,6.0
subject-05,1,39,0.807326793670654,keyboard,keyboard,0,keyboard9-truck3.png,True,-0.0056878629711745515,1.8925983905792236,1.0,-1.144111525431695,2.413968801498413,0.0666666666666666,-4.1482867618731465,29.624608039855957,10.0,3.0428321678321675,8.0,36.559436320577404,6.0
subject-01,1,970,0.991096019744873,keyboard,keyboard,0,keyboard9-truck3.png,True,0.37936248093230107,1.8925983905792236,1.0,-1.144111525431695,2.413968801498413,0.0666666666666666,-4.1482867618731465,29.624608039855957,10.0,3.0428321678321675,8.0,36.559436320577404,6.0
subject-06,1,1138,0.619620084762573,keyboard,keyboard,0,keyboard9-truck3.png,True,-0.9649221252111846,1.8925983905792236,1.0,-1.144111525431695,2.413968801498413,0.0666666666666666,-4.1482867618731465,29.624608039855957,10.0,3.0428321678321675,8.0,36.559436320577404,6.0
subject-02,1,385,0.808494806289673,keyboard,keyboard,0,keyboard9-truck3.png,True,-0.5406959505473868,1.8925983905792236,1.0,-1.144111525431695,2.413968801498413,0.0666666666666666,-4.1482867618731465,29.624608039855957,10.0,3.0428321678321675,8.0,36.559436320577404,6.0
subject-08,1,36,0.727459907531738,keyboard,keyboard,0,keyboard9-truck3.png,True,-0.4466092280345701,1.8925983905792236,1.0,-1.144111525431695,2.413968801498413,0.0666666666666666,-4.1482867618731465,29.624608039855957,10.0,3.0428321678321675,8.0,36.559436320577404,6.0
subject-09,1,1241,0.544899940490723,keyboard,keyboard,0,keyboard9-truck3.png,True,-0.7181719036653578,1.8925983905792236,1.0,-1.144111525431695,2.413968801498413,0.0666666666666666,-4.1482867618731465,29.624608039855957,10.0,3.0428321678321675,8.0,36.559436320577404,6.0
