subject_id,Session,trial,rt,object_response,category,condition,item_id,response_correct,rt_zscore,output_entropy,output_rank_correct,output_logprob_correct,midpoint_entropy,midpoint_rank_correct,midpoint_logprob_correct,auc_entropy,layer_biggest_change_entropy,auc_rank_correct,layer_biggest_change_rank_correct,auc_logprob_correct,layer_biggest_change_logprob_correct
subject-02,1,1,0.955517053604126,dog,dog,pow,pow_dog_35_n02099601_447.png,True,0.8131948421240952,0.5926660895347595,0.3333333333333333,-6.400763939925814,2.5068717002868652,0.1428571428571428,-3.0459122210506218,26.844638884067535,9.0,1.3857142857142855,8.0,40.38699219747943,8.0
subject-01,1,78,1.10863900184631,dog,dog,pow,pow_dog_35_n02099601_447.png,True,1.0505179626786416,0.5926660895347595,0.3333333333333333,-6.400763939925814,2.5068717002868652,0.1428571428571428,-3.0459122210506218,26.844638884067535,9.0,1.3857142857142855,8.0,40.38699219747943,8.0
subject-04,1,533,1.16454696655273,dog,dog,pow,pow_dog_35_n02099601_447.png,True,0.9623060585185801,0.5926660895347595,0.3333333333333333,-6.400763939925814,2.5068717002868652,0.1428571428571428,-3.0459122210506218,26.844638884067535,9.0,1.3857142857142855,8.0,40.38699219747943,8.0
subject-03,1,920,0.99579906463623,dog,dog,pow,pow_dog_35_n02099601_447.png,True,0.458313764622414,0.5926660895347595,0.3333333333333333,-6.400763939925814,2.5068717002868652,0.1428571428571428,-3.0459122210506218,26.844638884067535,9.0,1.3857142857142855,8.0,40.38699219747943,8.0
subject-02,1,2,0.785048961639404,boat,boat,0,0_boat_35_n03662601_18676.png,True,-0.007063761273890922,0.0622686930000782,1.0,-0.007367624838365038,2.440849542617798,1.0,-1.7780017080223751,24.741730455309153,9.0,6.992857142857142,7.0,20.33048776902459,9.0
subject-01,1,609,0.608658075332642,boat,boat,0,0_boat_35_n03662601_18676.png,True,-1.3336007149867428,0.0622686930000782,1.0,-0.007367624838365038,2.440849542617798,1.0,-1.7780017080223751,24.741730455309153,9.0,6.992857142857142,7.0,20.33048776902459,9.0
subject-04,1,509,0.596505165100098,boat,boat,0,0_boat_35_n03662601_18676.png,True,-1.3728654652274674,0.0622686930000782,1.0,-0.007367624838365038,2.440849542617798,1.0,-1.7780017080223751,24.741730455309153,9.0,6.992857142857142,7.0,20.33048776902459,9.0
subject-03,1,1021,0.596403121948242,boat,boat,0,0_boat_35_n03662601_18676.png,True,-1.5715876434189833,0.0622686930000782,1.0,-0.007367624838365038,2.440849542617798,1.0,-1.7780017080223751,24.741730455309153,9.0,6.992857142857142,7.0,20.33048776902459,9.0
subject-02,1,3,0.818817138671875,car,truck,pow,pow_truck_35_n03796401_142.png,False,0.1554220002120933,0.8680704832077026,0.5,-2.201781684354298,2.587921619415283,0.1428571428571428,-2.769017754172289,29.310903429985046,10.0,1.9028138528138525,9.0,31.301219504399608,9.0
subject-01,1,261,0.892364025115967,car,truck,pow,pow_truck_35_n03796401_142.png,False,0.019228199027304913,0.8680704832077026,0.5,-2.201781684354298,2.587921619415283,0.1428571428571428,-2.769017754172289,29.310903429985046,10.0,1.9028138528138525,9.0,31.301219504399608,9.0
subject-04,1,350,0.985952138900757,truck,truck,pow,pow_truck_35_n03796401_142.png,True,0.22811791469762302,0.8680704832077026,0.5,-2.201781684354298,2.587921619415283,0.1428571428571428,-2.769017754172289,29.310903429985046,10.0,1.9028138528138525,9.0,31.301219504399608,9.0
subject-03,1,421,0.953310012817383,car,truck,pow,pow_truck_35_n03796401_142.png,False,0.24236618755651573,0.8680704832077026,0.5,-2.201781684354298,2.587921619415283,0.1428571428571428,-2.769017754172289,29.310903429985046,10.0,1.9028138528138525,9.0,31.301219504399608,9.0
subject-02,1,4,1.06276321411133,knife,knife,pow,pow_knife_35_n03041632_27963.png,True,1.3292420672883238,0.0350447073578834,1.0,-0.0038747059447519715,2.5912249088287354,0.125,-2.9659214842094093,27.409427918493748,9.0,4.99563492063492,5.0,25.525776645849536,9.0
subject-01,1,187,1.02914500236511,knife,knife,pow,pow_knife_35_n03041632_27963.png,True,0.6714572448088971,0.0350447073578834,1.0,-0.0038747059447519715,2.5912249088287354,0.125,-2.9659214842094093,27.409427918493748,9.0,4.99563492063492,5.0,25.525776645849536,9.0
subject-04,1,406,1.30853700637817,clock,knife,pow,pow_knife_35_n03041632_27963.png,False,1.554236863335355,0.0350447073578834,1.0,-0.0038747059447519715,2.5912249088287354,0.125,-2.9659214842094093,27.409427918493748,9.0,4.99563492063492,5.0,25.525776645849536,9.0
subject-03,1,864,1.3269100189209,knife,knife,pow,pow_knife_35_n03041632_27963.png,True,2.1411615867532734,0.0350447073578834,1.0,-0.0038747059447519715,2.5912249088287354,0.125,-2.9659214842094093,27.409427918493748,9.0,4.99563492063492,5.0,25.525776645849536,9.0
subject-02,1,5,0.618435859680176,boat,boat,0,0_boat_35_n03344393_7374.png,True,-0.8087729183703714,0.0576583594083786,1.0,-0.006702722915411579,2.3958678245544434,0.5,-1.816816646313008,24.476114466786385,9.0,6.160714285714286,7.0,20.08192603647667,9.0
subject-01,1,521,0.837899923324585,boat,boat,0,0_boat_35_n03344393_7374.png,True,-0.2404794727203553,0.0576583594083786,1.0,-0.006702722915411579,2.3958678245544434,0.5,-1.816816646313008,24.476114466786385,9.0,6.160714285714286,7.0,20.08192603647667,9.0
subject-04,1,234,0.828352928161621,boat,boat,0,0_boat_35_n03344393_7374.png,True,-0.41975903404409953,0.0576583594083786,1.0,-0.006702722915411579,2.3958678245544434,0.5,-1.816816646313008,24.476114466786385,9.0,6.160714285714286,7.0,20.08192603647667,9.0
subject-03,1,54,0.683788061141968,boat,boat,0,0_boat_35_n03344393_7374.png,True,-1.1274599191433026,0.0576583594083786,1.0,-0.006702722915411579,2.3958678245544434,0.5,-1.816816646313008,24.476114466786385,9.0,6.160714285714286,7.0,20.08192603647667,9.0
subject-02,1,6,1.12814688682556,bear,bear,0,0_bear_35_n02133161_2044.png,True,1.6438553151253696,0.6904612183570862,1.0,-0.32574813325885743,2.4458675384521484,1.0,-1.8259621806918682,26.66049414873123,9.0,8.833333333333334,4.0,18.98448659816478,8.0
subject-01,1,501,0.917682886123657,bear,bear,0,0_bear_35_n02133161_2044.png,True,0.1399591433986346,0.6904612183570862,1.0,-0.32574813325885743,2.4458675384521484,1.0,-1.8259621806918682,26.66049414873123,9.0,8.833333333333334,4.0,18.98448659816478,8.0
subject-04,1,535,0.849890947341919,bear,bear,0,0_bear_35_n02133161_2044.png,True,-0.3312180693842619,0.6904612183570862,1.0,-0.32574813325885743,2.4458675384521484,1.0,-1.8259621806918682,26.66049414873123,9.0,8.833333333333334,4.0,18.98448659816478,8.0
subject-03,1,950,0.670084953308105,bear,bear,0,0_bear_35_n02133161_2044.png,True,-1.1971049878921145,0.6904612183570862,1.0,-0.32574813325885743,2.4458675384521484,1.0,-1.8259621806918682,26.66049414873123,9.0,8.833333333333334,4.0,18.98448659816478,8.0
subject-02,1,7,0.806092977523804,keyboard,keyboard,0,0_keyboard_35_n03085013_3656.png,True,0.09419586379890735,1.0649831295013428,1.0,-0.2417119904088506,2.5436127185821533,0.125,-2.8732985488143172,27.99865972995758,9.0,5.0881313131313135,6.0,27.880205043962153,9.0
subject-01,1,939,1.09110498428345,keyboard,keyboard,0,0_keyboard_35_n03085013_3656.png,True,0.9669084156952836,1.0649831295013428,1.0,-0.2417119904088506,2.5436127185821533,0.125,-2.8732985488143172,27.99865972995758,9.0,5.0881313131313135,6.0,27.880205043962153,9.0
subject-04,1,391,1.39199113845825,keyboard,keyboard,0,0_keyboard_35_n03085013_3656.png,True,1.8973097010631164,1.0649831295013428,1.0,-0.2417119904088506,2.5436127185821533,0.125,-2.8732985488143172,27.99865972995758,9.0,5.0881313131313135,6.0,27.880205043962153,9.0
subject-03,1,850,1.45542693138123,oven,keyboard,0,0_keyboard_35_n03085013_3656.png,False,2.7943396330915067,1.0649831295013428,1.0,-0.2417119904088506,2.5436127185821533,0.125,-2.8732985488143172,27.99865972995758,9.0,5.0881313131313135,6.0,27.880205043962153,9.0
subject-02,1,8,0.755964040756226,chair,chair,0,0_chair_35_n04099969_5364.png,True,-0.14701462426890607,0.0185318514704704,1.0,-0.001875728110312701,2.4791100025177,0.0833333333333333,-3.4042536785355892,23.423432116629556,8.0,4.659498834498835,7.0,24.774198741905597,8.0
subject-01,1,803,0.827396154403687,chair,chair,0,0_chair_35_n04099969_5364.png,True,-0.2905658467042827,0.0185318514704704,1.0,-0.001875728110312701,2.4791100025177,0.0833333333333333,-3.4042536785355892,23.423432116629556,8.0,4.659498834498835,7.0,24.774198741905597,8.0
subject-04,1,413,0.743237018585205,chair,chair,0,0_chair_35_n04099969_5364.png,True,-0.7696632976956619,0.0185318514704704,1.0,-0.001875728110312701,2.4791100025177,0.0833333333333333,-3.4042536785355892,23.423432116629556,8.0,4.659498834498835,7.0,24.774198741905597,8.0
subject-03,1,1025,0.771971940994263,chair,chair,0,0_chair_35_n04099969_5364.png,True,-0.6792716359223906,0.0185318514704704,1.0,-0.001875728110312701,2.4791100025177,0.0833333333333333,-3.4042536785355892,23.423432116629556,8.0,4.659498834498835,7.0,24.774198741905597,8.0
subject-02,1,9,0.773604869842529,elephant,elephant,0,0_elephant_35_n02504013_7273.png,True,-0.062130458192195606,0.0303176045417785,1.0,-0.003268391655952929,2.4610815048217773,0.2,-2.5492137409509628,25.13694300316274,9.0,6.011111111111111,6.0,23.002757648546496,9.0
subject-01,1,494,1.45298910140991,elephant,elephant,0,0_elephant_35_n02504013_7273.png,True,2.6925236082741466,0.0303176045417785,1.0,-0.003268391655952929,2.4610815048217773,0.2,-2.5492137409509628,25.13694300316274,9.0,6.011111111111111,6.0,23.002757648546496,9.0
subject-04,1,147,0.885259866714478,elephant,elephant,0,0_elephant_35_n02504013_7273.png,True,-0.18581945059730098,0.0303176045417785,1.0,-0.003268391655952929,2.4610815048217773,0.2,-2.5492137409509628,25.13694300316274,9.0,6.011111111111111,6.0,23.002757648546496,9.0
subject-03,1,625,1.0945839881897,elephant,elephant,0,0_elephant_35_n02504013_7273.png,True,0.9603810967662995,0.0303176045417785,1.0,-0.003268391655952929,2.4610815048217773,0.2,-2.5492137409509628,25.13694300316274,9.0,6.011111111111111,6.0,23.002757648546496,9.0
subject-02,1,10,0.881587028503418,oven,oven,0,0_oven_35_n04111531_13296.png,True,0.45745824391758466,0.9747920036315918,1.0,-0.24393109826801374,2.5252389907836914,0.0625,-4.639841174252629,28.99395775794983,10.0,3.3240440115440113,8.0,32.37520664437496,6.0
subject-01,1,928,1.21129989624023,oven,oven,0,0_oven_35_n04111531_13296.png,True,1.5400481483540094,0.9747920036315918,1.0,-0.24393109826801374,2.5252389907836914,0.0625,-4.639841174252629,28.99395775794983,10.0,3.3240440115440113,8.0,32.37520664437496,6.0
subject-04,1,1097,1.27533411979675,oven,oven,0,0_oven_35_n04111531_13296.png,True,1.4177426210932773,0.9747920036315918,1.0,-0.24393109826801374,2.5252389907836914,0.0625,-4.639841174252629,28.99395775794983,10.0,3.3240440115440113,8.0,32.37520664437496,6.0
subject-03,1,631,0.799525022506714,oven,oven,0,0_oven_35_n04111531_13296.png,True,-0.5392350632381842,0.9747920036315918,1.0,-0.24393109826801374,2.5252389907836914,0.0625,-4.639841174252629,28.99395775794983,10.0,3.3240440115440113,8.0,32.37520664437496,6.0
subject-02,1,11,1.33939504623413,bottle,knife,pow,pow_knife_35_n03041632_94620.png,False,2.6603395041003264,0.7653403282165527,1.0,-0.1542195851705373,2.529536724090576,0.0909090909090909,-3.3105052933059906,28.609054803848267,10.0,4.904401154401154,7.0,27.235345713406918,9.0
subject-01,1,774,0.847479104995728,knife,knife,pow,pow_knife_35_n03041632_94620.png,True,-0.19480191838209462,0.7653403282165527,1.0,-0.1542195851705373,2.529536724090576,0.0909090909090909,-3.3105052933059906,28.609054803848267,10.0,4.904401154401154,7.0,27.235345713406918,9.0
subject-04,1,498,1.08272099494934,knife,knife,pow,pow_knife_35_n03041632_94620.png,True,0.6259264500065775,0.7653403282165527,1.0,-0.1542195851705373,2.529536724090576,0.0909090909090909,-3.3105052933059906,28.609054803848267,10.0,4.904401154401154,7.0,27.235345713406918,9.0
subject-03,1,773,1.03254103660583,knife,knife,pow,pow_knife_35_n03041632_94620.png,True,0.6450522180312243,0.7653403282165527,1.0,-0.1542195851705373,2.529536724090576,0.0909090909090909,-3.3105052933059906,28.609054803848267,10.0,4.904401154401154,7.0,27.235345713406918,9.0
subject-02,1,12,0.805028915405273,knife,knife,0,0_knife_35_n03041632_35365.png,True,0.08907580820835373,0.0110153704881668,1.0,-0.0010521580719979212,2.5961689949035645,0.1,-2.967464048728304,24.78840529359877,9.0,6.742857142857143,5.0,19.778032137940187,5.0
subject-01,1,516,0.898768901824951,knife,knife,0,0_knife_35_n03041632_35365.png,True,0.04976933645930484,0.0110153704881668,1.0,-0.0010521580719979212,2.5961689949035645,0.1,-2.967464048728304,24.78840529359877,9.0,6.742857142857143,5.0,19.778032137940187,5.0
subject-04,1,395,0.837492942810059,knife,knife,0,0_knife_35_n03041632_35365.png,True,-0.382185211344655,0.0110153704881668,1.0,-0.0010521580719979212,2.5961689949035645,0.1,-2.967464048728304,24.78840529359877,9.0,6.742857142857143,5.0,19.778032137940187,5.0
subject-03,1,309,0.745604991912842,knife,knife,0,0_knife_35_n03041632_35365.png,True,-0.8132797750785374,0.0110153704881668,1.0,-0.0010521580719979212,2.5961689949035645,0.1,-2.967464048728304,24.78840529359877,9.0,6.742857142857143,5.0,19.778032137940187,5.0
subject-02,1,13,0.614991903305054,clock,clock,pow,pow_clock_35_n04548280_8348.png,True,-0.8253445524742231,0.0698799043893814,1.0,-0.008374733074071522,2.5696518421173096,0.1,-3.0989053352765157,25.71563809365034,9.0,4.903113553113553,6.0,30.19455434028152,8.0
subject-01,1,509,0.638171911239624,clock,clock,pow,pow_clock_35_n04548280_8348.png,True,-1.1928663715268157,0.0698799043893814,1.0,-0.008374733074071522,2.5696518421173096,0.1,-3.0989053352765157,25.71563809365034,9.0,4.903113553113553,6.0,30.19455434028152,8.0
subject-04,1,367,0.414685964584351,clock,clock,pow,pow_clock_35_n04548280_8348.png,True,-2.1203087316013245,0.0698799043893814,1.0,-0.008374733074071522,2.5696518421173096,0.1,-3.0989053352765157,25.71563809365034,9.0,4.903113553113553,6.0,30.19455434028152,8.0
subject-03,1,58,0.683115005493164,clock,clock,pow,pow_clock_35_n04548280_8348.png,True,-1.1308806765000312,0.0698799043893814,1.0,-0.008374733074071522,2.5696518421173096,0.1,-3.0989053352765157,25.71563809365034,9.0,4.903113553113553,6.0,30.19455434028152,8.0
subject-02,1,14,0.730794191360474,boat,boat,0,0_boat_35_n02951358_18804.png,True,-0.268126940803603,0.0392232313752174,1.0,-0.004354586463833945,2.382108449935913,0.3333333333333333,-2.1715245447367346,25.077800445258617,9.0,6.007575757575758,6.0,22.16787080280098,9.0
subject-01,1,918,1.40890979766846,cat,boat,0,0_boat_35_n02951358_18804.png,False,2.482335007518385,0.0392232313752174,1.0,-0.004354586463833945,2.382108449935913,0.3333333333333333,-2.1715245447367346,25.077800445258617,9.0,6.007575757575758,6.0,22.16787080280098,9.0
subject-04,1,843,1.40912103652954,cat,boat,0,0_boat_35_n02951358_18804.png,False,1.9677292548326717,0.0392232313752174,1.0,-0.004354586463833945,2.382108449935913,0.3333333333333333,-2.1715245447367346,25.077800445258617,9.0,6.007575757575758,6.0,22.16787080280098,9.0
subject-03,1,679,1.17824792861938,bear,boat,0,0_boat_35_n02951358_18804.png,False,1.3855971100726034,0.0392232313752174,1.0,-0.004354586463833945,2.382108449935913,0.3333333333333333,-2.1715245447367346,25.077800445258617,9.0,6.007575757575758,6.0,22.16787080280098,9.0
subject-02,1,15,0.630782127380371,boat,boat,0,0_boat_35_n03662601_5849.png,True,-0.7493651301783419,0.07628133893013,1.0,-0.009302657819460011,2.47437047958374,0.3333333333333333,-2.081054073868883,26.45317307114601,9.0,5.277777777777778,7.0,23.103860969228336,9.0
subject-01,1,1004,1.38333702087402,boat,boat,0,0_boat_35_n03662601_5849.png,True,2.3603932862200923,0.07628133893013,1.0,-0.009302657819460011,2.47437047958374,0.3333333333333333,-2.081054073868883,26.45317307114601,9.0,5.277777777777778,7.0,23.103860969228336,9.0
subject-04,1,414,0.719135046005249,boat,boat,0,0_boat_35_n03662601_5849.png,True,-0.8687444566718019,0.07628133893013,1.0,-0.009302657819460011,2.47437047958374,0.3333333333333333,-2.081054073868883,26.45317307114601,9.0,5.277777777777778,7.0,23.103860969228336,9.0
subject-03,1,645,0.6146559715271,boat,boat,0,0_boat_35_n03662601_5849.png,True,-1.478818836576504,0.07628133893013,1.0,-0.009302657819460011,2.47437047958374,0.3333333333333333,-2.081054073868883,26.45317307114601,9.0,5.277777777777778,7.0,23.103860969228336,9.0
subject-02,1,16,0.742424964904785,airplane,airplane,pow,pow_airplane_35_n02690373_2147.png,True,-0.21216196839182058,0.1468870788812637,1.0,-0.019706024754103695,2.5382542610168457,0.25,-2.2991982724807465,27.600779071450233,10.0,4.546042846042846,7.0,27.627992851935012,9.0
subject-01,1,751,0.781599998474121,airplane,airplane,pow,pow_airplane_35_n02690373_2147.png,True,-0.5089411184937154,0.1468870788812637,1.0,-0.019706024754103695,2.5382542610168457,0.25,-2.2991982724807465,27.600779071450233,10.0,4.546042846042846,7.0,27.627992851935012,9.0
subject-04,1,681,0.719337940216064,airplane,airplane,pow,pow_airplane_35_n02690373_2147.png,True,-0.8679103758308911,0.1468870788812637,1.0,-0.019706024754103695,2.5382542610168457,0.25,-2.2991982724807465,27.600779071450233,10.0,4.546042846042846,7.0,27.627992851935012,9.0
subject-03,1,576,0.763903141021729,airplane,airplane,pow,pow_airplane_35_n02690373_2147.png,True,-0.720280736603833,0.1468870788812637,1.0,-0.019706024754103695,2.5382542610168457,0.25,-2.2991982724807465,27.600779071450233,10.0,4.546042846042846,7.0,27.627992851935012,9.0
subject-02,1,17,0.796146869659424,elephant,elephant,pow,pow_elephant_35_n02504013_18988.png,True,0.04633716806263772,0.0386799089610576,1.0,-0.004361411070251735,2.489732265472412,0.3333333333333333,-2.065845701885477,25.796646874397993,9.0,5.866666666666667,1.0,22.853777506023285,9.0
subject-01,1,95,1.22034811973572,elephant,elephant,pow,pow_elephant_35_n02504013_18988.png,True,1.5831938715033083,0.0386799089610576,1.0,-0.004361411070251735,2.489732265472412,0.3333333333333333,-2.065845701885477,25.796646874397993,9.0,5.866666666666667,1.0,22.853777506023285,9.0
subject-04,1,501,0.812150001525879,elephant,elephant,pow,pow_elephant_35_n02504013_18988.png,True,-0.48636788709747136,0.0386799089610576,1.0,-0.004361411070251735,2.489732265472412,0.3333333333333333,-2.065845701885477,25.796646874397993,9.0,5.866666666666667,1.0,22.853777506023285,9.0
subject-03,1,1113,0.980554103851318,elephant,elephant,pow,pow_elephant_35_n02504013_18988.png,True,0.3808323381598426,0.0386799089610576,1.0,-0.004361411070251735,2.489732265472412,0.3333333333333333,-2.065845701885477,25.796646874397993,9.0,5.866666666666667,1.0,22.853777506023285,9.0
subject-02,1,18,0.80012321472168,keyboard,keyboard,0,0_keyboard_35_n03085013_22996.png,True,0.0654705507960442,0.0206630863249301,1.0,-0.002102437837668273,2.5387442111968994,0.1428571428571428,-2.8440249351670666,22.23229950480163,9.0,5.8948773448773455,5.0,22.247398408990396,5.0
subject-01,1,409,0.846801042556763,keyboard,keyboard,0,0_keyboard_35_n03085013_22996.png,True,-0.1980352043728863,0.0206630863249301,1.0,-0.002102437837668273,2.5387442111968994,0.1428571428571428,-2.8440249351670666,22.23229950480163,9.0,5.8948773448773455,5.0,22.247398408990396,5.0
subject-04,1,566,0.577311992645264,keyboard,keyboard,0,0_keyboard_35_n03085013_22996.png,True,-1.451766964469707,0.0206630863249301,1.0,-0.002102437837668273,2.5387442111968994,0.1428571428571428,-2.8440249351670666,22.23229950480163,9.0,5.8948773448773455,5.0,22.247398408990396,5.0
subject-03,1,524,0.765918970108032,keyboard,keyboard,0,0_keyboard_35_n03085013_22996.png,True,-0.710035428969714,0.0206630863249301,1.0,-0.002102437837668273,2.5387442111968994,0.1428571428571428,-2.8440249351670666,22.23229950480163,9.0,5.8948773448773455,5.0,22.247398408990396,5.0
subject-02,1,19,0.697794198989868,chair,chair,0,0_chair_35_n02791124_45.png,True,-0.42691635025894653,0.2853410243988037,1.0,-0.04632129646527533,2.448531150817871,0.0769230769230769,-3.8015020737034297,27.553165197372437,10.0,3.540018315018315,9.0,29.471144704383892,9.0
subject-01,1,892,0.70586895942688,chair,chair,0,0_chair_35_n02791124_45.png,True,-0.8700584633702665,0.2853410243988037,1.0,-0.04632129646527533,2.448531150817871,0.0769230769230769,-3.8015020737034297,27.553165197372437,10.0,3.540018315018315,9.0,29.471144704383892,9.0
subject-04,1,1117,1.14773416519165,chair,chair,0,0_chair_35_n02791124_45.png,True,0.8931900623500012,0.2853410243988037,1.0,-0.04632129646527533,2.448531150817871,0.0769230769230769,-3.8015020737034297,27.553165197372437,10.0,3.540018315018315,9.0,29.471144704383892,9.0
subject-03,1,61,0.818514823913574,chair,chair,0,0_chair_35_n02791124_45.png,True,-0.44272075126299903,0.2853410243988037,1.0,-0.04632129646527533,2.448531150817871,0.0769230769230769,-3.8015020737034297,27.553165197372437,10.0,3.540018315018315,9.0,29.471144704383892,9.0
subject-02,1,20,0.56177806854248,clock,clock,pow,pow_clock_35_n02708093_687.png,True,-1.0813989570300813,0.0470601320266723,1.0,-0.005362438565061022,2.563340187072754,0.1666666666666666,-2.761965743780602,25.347816064953804,9.0,5.038095238095238,6.0,28.193723764410624,6.0
subject-01,1,42,0.621433973312378,clock,clock,pow,pow_clock_35_n02708093_687.png,True,-1.272679877046331,0.0470601320266723,1.0,-0.005362438565061022,2.563340187072754,0.1666666666666666,-2.761965743780602,25.347816064953804,9.0,5.038095238095238,6.0,28.193723764410624,6.0
subject-04,1,769,0.850368976593018,clock,clock,pow,pow_clock_35_n02708093_687.png,True,-0.32925293179785614,0.0470601320266723,1.0,-0.005362438565061022,2.563340187072754,0.1666666666666666,-2.761965743780602,25.347816064953804,9.0,5.038095238095238,6.0,28.193723764410624,6.0
subject-03,1,171,0.842133045196533,clock,clock,pow,pow_clock_35_n02708093_687.png,True,-0.3226828252013289,0.0470601320266723,1.0,-0.005362438565061022,2.563340187072754,0.1666666666666666,-2.761965743780602,25.347816064953804,9.0,5.038095238095238,6.0,28.193723764410624,6.0
subject-02,1,21,0.791522979736328,bicycle,bicycle,0,0_bicycle_35_n03792782_21148.png,True,0.024087928061936093,0.028442446142435,1.0,-0.003044167640513917,2.449359655380249,0.25,-2.1336280356456436,24.99798045679927,9.0,6.5,6.0,19.714431457650154,9.0
subject-01,1,497,0.9164719581604,bicycle,bicycle,0,0_bicycle_35_n03792782_21148.png,True,0.13418493118090205,0.028442446142435,1.0,-0.003044167640513917,2.449359655380249,0.25,-2.1336280356456436,24.99798045679927,9.0,6.5,6.0,19.714431457650154,9.0
subject-04,1,881,0.971950054168701,bicycle,bicycle,0,0_bicycle_35_n03792782_21148.png,True,0.17055653548968275,0.028442446142435,1.0,-0.003044167640513917,2.449359655380249,0.25,-2.1336280356456436,24.99798045679927,9.0,6.5,6.0,19.714431457650154,9.0
subject-03,1,222,0.708091974258423,bicycle,bicycle,0,0_bicycle_35_n03792782_21148.png,True,-1.0039370132169687,0.028442446142435,1.0,-0.003044167640513917,2.449359655380249,0.25,-2.1336280356456436,24.99798045679927,9.0,6.5,6.0,19.714431457650154,9.0
subject-02,1,22,0.663166046142578,dog,dog,0,0_dog_35_n02105162_1003.png,True,-0.5935401445737692,1.5733940601348877,1.0,-0.42896656996293947,2.5420117378234863,0.1428571428571428,-2.8369639240934172,29.30496323108673,9.0,2.9936507936507937,9.0,28.649379564489486,9.0
subject-01,1,369,0.822868824005127,dog,dog,0,0_dog_35_n02105162_1003.png,True,-0.3121540561554569,1.5733940601348877,1.0,-0.42896656996293947,2.5420117378234863,0.1428571428571428,-2.8369639240934172,29.30496323108673,9.0,2.9936507936507937,9.0,28.649379564489486,9.0
subject-04,1,485,0.965430974960327,dog,dog,0,0_dog_35_n02105162_1003.png,True,0.14375715542731754,1.5733940601348877,1.0,-0.42896656996293947,2.5420117378234863,0.1428571428571428,-2.8369639240934172,29.30496323108673,9.0,2.9936507936507937,9.0,28.649379564489486,9.0
subject-03,1,760,0.861073017120361,dog,dog,0,0_dog_35_n02105162_1003.png,True,-0.22642176802159283,1.5733940601348877,1.0,-0.42896656996293947,2.5420117378234863,0.1428571428571428,-2.8369639240934172,29.30496323108673,9.0,2.9936507936507937,9.0,28.649379564489486,9.0
subject-02,1,23,0.759355068206787,dog,dog,pow,pow_dog_35_n02102040_312.png,True,-0.1306976736383036,1.1143395900726318,1.0,-0.2513594733769729,2.520218849182129,0.1428571428571428,-2.902879133270156,27.79482877254486,9.0,3.659126984126984,8.0,28.778560848469947,9.0
subject-01,1,408,0.737213850021362,dog,dog,pow,pow_dog_35_n02102040_312.png,True,-0.7205928834795112,1.1143395900726318,1.0,-0.2513594733769729,2.520218849182129,0.1428571428571428,-2.902879133270156,27.79482877254486,9.0,3.659126984126984,8.0,28.778560848469947,9.0
subject-04,1,793,0.747811079025269,dog,dog,pow,pow_dog_35_n02102040_312.png,True,-0.7508597243314902,1.1143395900726318,1.0,-0.2513594733769729,2.520218849182129,0.1428571428571428,-2.902879133270156,27.79482877254486,9.0,3.659126984126984,8.0,28.778560848469947,9.0
subject-03,1,43,0.919811964035034,dog,dog,pow,pow_dog_35_n02102040_312.png,True,0.07211474250603286,1.1143395900726318,1.0,-0.2513594733769729,2.520218849182129,0.1428571428571428,-2.902879133270156,27.79482877254486,9.0,3.659126984126984,8.0,28.778560848469947,9.0
subject-02,1,24,0.814956903457642,truck,truck,pow,pow_truck_35_n03796401_3273.png,True,0.13684731500783978,1.7659183740615845,1.0,-0.6374902814156944,2.541459083557129,0.1666666666666666,-2.6617297542799756,30.164605975151062,10.0,2.8694805194805193,9.0,29.782219972274447,9.0
subject-01,1,763,0.92148494720459,truck,truck,pow,pow_truck_35_n03796401_3273.png,True,0.1580889646697848,1.7659183740615845,1.0,-0.6374902814156944,2.541459083557129,0.1666666666666666,-2.6617297542799756,30.164605975151062,10.0,2.8694805194805193,9.0,29.782219972274447,9.0
subject-04,1,239,1.02166390419006,truck,truck,pow,pow_truck_35_n03796401_3273.png,True,0.37492594388319495,1.7659183740615845,1.0,-0.6374902814156944,2.541459083557129,0.1666666666666666,-2.6617297542799756,30.164605975151062,10.0,2.8694805194805193,9.0,29.782219972274447,9.0
subject-03,1,506,1.35134291648865,boat,truck,pow,pow_truck_35_n03796401_3273.png,False,2.265340046958744,1.7659183740615845,1.0,-0.6374902814156944,2.541459083557129,0.1666666666666666,-2.6617297542799756,30.164605975151062,10.0,2.8694805194805193,9.0,29.782219972274447,9.0
subject-02,1,25,0.570948123931885,clock,clock,0,0_clock_35_n02708093_6734.png,True,-1.0372744716785816,0.0620176009833812,1.0,-0.007304699227344509,2.5797438621520996,0.3333333333333333,-2.3984097335904004,24.708007965236902,9.0,3.883333333333333,8.0,28.93549956737853,9.0
subject-01,1,90,0.879340887069702,clock,clock,0,0_clock_35_n02708093_6734.png,True,-0.042871583207220496,0.0620176009833812,1.0,-0.007304699227344509,2.5797438621520996,0.3333333333333333,-2.3984097335904004,24.708007965236902,9.0,3.883333333333333,8.0,28.93549956737853,9.0
subject-04,1,892,1.16391801834106,clock,clock,0,0_clock_35_n02708093_6734.png,True,0.9597205059236008,0.0620176009833812,1.0,-0.007304699227344509,2.5797438621520996,0.3333333333333333,-2.3984097335904004,24.708007965236902,9.0,3.883333333333333,8.0,28.93549956737853,9.0
subject-03,1,1041,0.752297878265381,clock,clock,0,0_clock_35_n02708093_6734.png,True,-0.7792636572896461,0.0620176009833812,1.0,-0.007304699227344509,2.5797438621520996,0.3333333333333333,-2.3984097335904004,24.708007965236902,9.0,3.883333333333333,8.0,28.93549956737853,9.0
subject-02,1,26,0.592457056045532,clock,clock,pow,pow_clock_35_n04548280_5406.png,True,-0.9337777620434825,0.0608894303441047,1.0,-0.007278941698572031,2.608987331390381,0.25,-2.4497666608856323,25.642004437744617,9.0,5.876190476190477,5.0,26.85124000972098,9.0
subject-01,1,116,0.524435997009277,clock,clock,pow,pow_clock_35_n04548280_5406.png,True,-1.7352068950517785,0.0608894303441047,1.0,-0.007278941698572031,2.608987331390381,0.25,-2.4497666608856323,25.642004437744617,9.0,5.876190476190477,5.0,26.85124000972098,9.0
subject-04,1,872,0.623870849609375,clock,clock,pow,pow_clock_35_n04548280_5406.png,True,-1.2603674641464486,0.0608894303441047,1.0,-0.007278941698572031,2.608987331390381,0.25,-2.4497666608856323,25.642004437744617,9.0,5.876190476190477,5.0,26.85124000972098,9.0
subject-03,1,893,0.642640113830566,clock,clock,pow,pow_clock_35_n04548280_5406.png,True,-1.3365914281498417,0.0608894303441047,1.0,-0.007278941698572031,2.608987331390381,0.25,-2.4497666608856323,25.642004437744617,9.0,5.876190476190477,5.0,26.85124000972098,9.0
subject-02,1,27,0.648789882659912,oven,oven,0,0_oven_35_n04111531_4418.png,True,-0.6627153881316846,0.0333722680807113,1.0,-0.003815649513921906,2.4763078689575195,0.0625,-4.431332690883976,26.055225268006325,9.0,4.367261904761905,7.0,28.70976315683766,6.0
subject-01,1,122,1.0373649597168,oven,oven,0,0_oven_35_n04111531_4418.png,True,0.710653447728932,0.0333722680807113,1.0,-0.003815649513921906,2.4763078689575195,0.0625,-4.431332690883976,26.055225268006325,9.0,4.367261904761905,7.0,28.70976315683766,6.0
subject-04,1,1082,0.828027963638306,oven,oven,0,0_oven_35_n04111531_4418.png,True,-0.42109493555545363,0.0333722680807113,1.0,-0.003815649513921906,2.4763078689575195,0.0625,-4.431332690883976,26.055225268006325,9.0,4.367261904761905,7.0,28.70976315683766,6.0
subject-03,1,829,0.835571050643921,oven,oven,0,0_oven_35_n04111531_4418.png,True,-0.356033694747625,0.0333722680807113,1.0,-0.003815649513921906,2.4763078689575195,0.0625,-4.431332690883976,26.055225268006325,9.0,4.367261904761905,7.0,28.70976315683766,6.0
subject-02,1,28,0.670161008834839,boat,airplane,pow,pow_airplane_35_n02690373_9264.png,False,-0.5598817733053069,1.8916130065917969,0.5,-1.4736179417833088,2.5060224533081055,0.3333333333333333,-2.185535489855239,29.655158519744873,9.0,3.6244810744810745,8.0,30.13957483728519,9.0
subject-01,1,36,0.8247230052948,boat,airplane,pow,pow_airplane_35_n02690373_9264.png,False,-0.3033125423894984,1.8916130065917969,0.5,-1.4736179417833088,2.5060224533081055,0.3333333333333333,-2.185535489855239,29.655158519744873,9.0,3.6244810744810745,8.0,30.13957483728519,9.0
subject-04,1,502,0.727871894836426,boat,airplane,pow,pow_airplane_35_n02690373_9264.png,False,-0.8328280143507174,1.8916130065917969,0.5,-1.4736179417833088,2.5060224533081055,0.3333333333333333,-2.185535489855239,29.655158519744873,9.0,3.6244810744810745,8.0,30.13957483728519,9.0
subject-03,1,51,0.780594110488892,boat,airplane,pow,pow_airplane_35_n02690373_9264.png,False,-0.6354500740914737,1.8916130065917969,0.5,-1.4736179417833088,2.5060224533081055,0.3333333333333333,-2.185535489855239,29.655158519744873,9.0,3.6244810744810745,8.0,30.13957483728519,9.0
subject-02,1,29,0.773829936981201,chair,chair,pow,pow_chair_35_n04099969_20900.png,True,-0.06104747981946841,0.0541320368647575,1.0,-0.006214517347298137,2.5468099117279053,0.0714285714285714,-3.6359609374152266,25.92227416485548,9.0,4.028968253968253,8.0,27.726316240931926,9.0
subject-01,1,660,0.655152082443237,chair,chair,pow,pow_chair_35_n04099969_20900.png,True,-1.1118977961878067,0.0541320368647575,1.0,-0.006214517347298137,2.5468099117279053,0.0714285714285714,-3.6359609374152266,25.92227416485548,9.0,4.028968253968253,8.0,27.726316240931926,9.0
subject-04,1,353,0.579699039459229,chair,chair,pow,pow_chair_35_n04099969_20900.png,True,-1.4419540180781474,0.0541320368647575,1.0,-0.006214517347298137,2.5468099117279053,0.0714285714285714,-3.6359609374152266,25.92227416485548,9.0,4.028968253968253,8.0,27.726316240931926,9.0
subject-03,1,827,0.717957019805908,chair,chair,pow,pow_chair_35_n04099969_20900.png,True,-0.953798622444992,0.0541320368647575,1.0,-0.006214517347298137,2.5468099117279053,0.0714285714285714,-3.6359609374152266,25.92227416485548,9.0,4.028968253968253,8.0,27.726316240931926,9.0
subject-02,1,30,1.36766409873962,elephant,bear,0,0_bear_35_n02134418_4513.png,False,2.796364570494196,0.0517792887985706,1.0,-0.0059272725494313285,2.422921895980835,1.0,-1.4205076196713156,24.108762863092124,9.0,9.916666666666666,3.0,15.016120407220338,9.0
subject-01,1,419,0.827250003814697,bear,bear,0,0_bear_35_n02134418_4513.png,True,-0.2912627539871111,0.0517792887985706,1.0,-0.0059272725494313285,2.422921895980835,1.0,-1.4205076196713156,24.108762863092124,9.0,9.916666666666666,3.0,15.016120407220338,9.0
subject-04,1,326,0.768358945846558,bear,bear,0,0_bear_35_n02134418_4513.png,True,-0.6663891917895266,0.0517792887985706,1.0,-0.0059272725494313285,2.422921895980835,1.0,-1.4205076196713156,24.108762863092124,9.0,9.916666666666666,3.0,15.016120407220338,9.0
subject-03,1,1065,1.50014901161194,dog,bear,0,0_bear_35_n02134418_4513.png,False,3.021636417880775,0.0517792887985706,1.0,-0.0059272725494313285,2.422921895980835,1.0,-1.4205076196713156,24.108762863092124,9.0,9.916666666666666,3.0,15.016120407220338,9.0
subject-02,1,31,0.825598001480103,boat,bottle,0,0_bottle_35_n04557648_10171.png,False,0.18805016535904343,0.1291247010231018,1.0,-0.018583240130577123,2.4040632247924805,0.125,-3.2745954609401107,27.647253572940826,10.0,1.7006715506715504,10.0,34.75665799150015,10.0
subject-01,1,585,1.02107882499695,airplane,bottle,0,0_bottle_35_n04557648_10171.png,False,0.6329943293235271,0.1291247010231018,1.0,-0.018583240130577123,2.4040632247924805,0.125,-3.2745954609401107,27.647253572940826,10.0,1.7006715506715504,10.0,34.75665799150015,10.0
subject-04,1,208,1.00326299667358,boat,bottle,0,0_bottle_35_n04557648_10171.png,False,0.29928137840635005,0.1291247010231018,1.0,-0.018583240130577123,2.4040632247924805,0.125,-3.2745954609401107,27.647253572940826,10.0,1.7006715506715504,10.0,34.75665799150015,10.0
subject-03,1,1031,1.15862989425659,airplane,bottle,0,0_bottle_35_n04557648_10171.png,False,1.2858898488820663,0.1291247010231018,1.0,-0.018583240130577123,2.4040632247924805,0.125,-3.2745954609401107,27.647253572940826,10.0,1.7006715506715504,10.0,34.75665799150015,10.0
subject-02,1,32,0.861330986022949,bear,knife,pow,pow_knife_35_n03041632_31037.png,False,0.35999019037218427,0.0190898515284061,1.0,-0.0019304896877044367,2.537031650543213,0.1,-3.2650666811989693,25.45254633575678,9.0,6.5777777777777775,5.0,22.640742517022435,5.0
subject-01,1,207,1.12744784355164,cat,knife,pow,pow_knife_35_n03041632_31037.png,False,1.140206405651082,0.0190898515284061,1.0,-0.0019304896877044367,2.537031650543213,0.1,-3.2650666811989693,25.45254633575678,9.0,6.5777777777777775,5.0,22.640742517022435,5.0
subject-04,1,393,1.23373198509216,bird,knife,pow,pow_knife_35_n03041632_31037.png,False,1.246719784321806,0.0190898515284061,1.0,-0.0019304896877044367,2.537031650543213,0.1,-3.2650666811989693,25.45254633575678,9.0,6.5777777777777775,5.0,22.640742517022435,5.0
subject-03,1,757,1.29791903495789,bird,knife,pow,pow_knife_35_n03041632_31037.png,False,1.9938169773640066,0.0190898515284061,1.0,-0.0019304896877044367,2.537031650543213,0.1,-3.2650666811989693,25.45254633575678,9.0,6.5777777777777775,5.0,22.640742517022435,5.0
subject-02,1,33,0.677225828170776,cat,cat,0,0_cat_35_n02125311_28447.png,True,-0.5258872657410756,0.5670208930969238,1.0,-0.10060745790650974,2.437046527862549,0.125,-3.3391515753334264,26.375436186790466,9.0,3.8004079254079253,8.0,28.993444042519553,9.0
subject-01,1,337,0.687006950378418,cat,cat,0,0_cat_35_n02125311_28447.png,True,-0.9600004305254926,0.5670208930969238,1.0,-0.10060745790650974,2.437046527862549,0.125,-3.3391515753334264,26.375436186790466,9.0,3.8004079254079253,8.0,28.993444042519553,9.0
subject-04,1,757,0.902814865112305,cat,cat,0,0_cat_35_n02125311_28447.png,True,-0.11365234554767092,0.5670208930969238,1.0,-0.10060745790650974,2.437046527862549,0.125,-3.3391515753334264,26.375436186790466,9.0,3.8004079254079253,8.0,28.993444042519553,9.0
subject-03,1,1033,1.07405495643616,cat,cat,0,0_cat_35_n02125311_28447.png,True,0.8560437562771098,0.5670208930969238,1.0,-0.10060745790650974,2.437046527862549,0.125,-3.3391515753334264,26.375436186790466,9.0,3.8004079254079253,8.0,28.993444042519553,9.0
subject-02,1,34,0.75285005569458,truck,truck,pow,pow_truck_35_n03417042_19955.png,True,-0.16199850194494994,0.0897436812520027,1.0,-0.011006022434320877,2.5643558502197266,0.1666666666666666,-2.6540367909413414,26.307645954191685,9.0,4.163492063492063,8.0,25.55037688191532,9.0
subject-01,1,349,0.716478109359741,truck,truck,pow,pow_truck_35_n03417042_19955.png,True,-0.8194695885396686,0.0897436812520027,1.0,-0.011006022434320877,2.5643558502197266,0.1666666666666666,-2.6540367909413414,26.307645954191685,9.0,4.163492063492063,8.0,25.55037688191532,9.0
subject-04,1,1087,0.851166963577271,truck,truck,pow,pow_truck_35_n03417042_19955.png,True,-0.32597247518853245,0.0897436812520027,1.0,-0.011006022434320877,2.5643558502197266,0.1666666666666666,-2.6540367909413414,26.307645954191685,9.0,4.163492063492063,8.0,25.55037688191532,9.0
subject-03,1,876,0.764724969863892,truck,truck,pow,pow_truck_35_n03417042_19955.png,True,-0.7161038500970536,0.0897436812520027,1.0,-0.011006022434320877,2.5643558502197266,0.1666666666666666,-2.6540367909413414,26.307645954191685,9.0,4.163492063492063,8.0,25.55037688191532,9.0
subject-02,1,35,0.686697006225586,clock,clock,0,0_clock_35_n03196217_6467.png,True,-0.480313837926914,1.3682445287704468,1.0,-0.3834437838661187,2.510319709777832,0.2,-2.5054974817656452,28.03671681880951,10.0,3.1678321678321675,9.0,31.66605147355963,9.0
subject-01,1,583,0.779863834381104,clock,clock,0,0_clock_35_n03196217_6467.png,True,-0.5172198767865894,1.3682445287704468,1.0,-0.3834437838661187,2.510319709777832,0.2,-2.5054974817656452,28.03671681880951,10.0,3.1678321678321675,9.0,31.66605147355963,9.0
subject-04,1,613,1.30394101142883,car,clock,0,0_clock_35_n03196217_6467.png,False,1.535343119069468,1.3682445287704468,1.0,-0.3834437838661187,2.510319709777832,0.2,-2.5054974817656452,28.03671681880951,10.0,3.1678321678321675,9.0,31.66605147355963,9.0
subject-03,1,919,1.25994801521301,clock,clock,0,0_clock_35_n03196217_6467.png,True,1.8008319762491778,1.3682445287704468,1.0,-0.3834437838661187,2.510319709777832,0.2,-2.5054974817656452,28.03671681880951,10.0,3.1678321678321675,9.0,31.66605147355963,9.0
subject-02,1,36,1.02299189567566,boat,keyboard,pow,pow_keyboard_35_n03085013_17937.png,False,1.1378703816001288,0.9573042392730712,1.0,-0.2647326201882093,2.5493078231811523,0.0833333333333333,-3.5730853092010126,28.822499990463257,10.0,3.7818181818181813,6.0,31.294408895885095,10.0
subject-01,1,209,0.793171882629395,knife,keyboard,pow,pow_keyboard_35_n03085013_17937.png,False,-0.45376152325846664,0.9573042392730712,1.0,-0.2647326201882093,2.5493078231811523,0.0833333333333333,-3.5730853092010126,28.822499990463257,10.0,3.7818181818181813,6.0,31.294408895885095,10.0
subject-04,1,561,1.15163421630859,keyboard,keyboard,pow,pow_keyboard_35_n03085013_17937.png,True,0.9092228407232522,0.9573042392730712,1.0,-0.2647326201882093,2.5493078231811523,0.0833333333333333,-3.5730853092010126,28.822499990463257,10.0,3.7818181818181813,6.0,31.294408895885095,10.0
subject-03,1,554,1.08216309547424,oven,keyboard,pow,pow_keyboard_35_n03085013_17937.png,False,0.8972527949549315,0.9573042392730712,1.0,-0.2647326201882093,2.5493078231811523,0.0833333333333333,-3.5730853092010126,28.822499990463257,10.0,3.7818181818181813,6.0,31.294408895885095,10.0
subject-02,1,37,0.894581079483032,car,keyboard,pow,pow_keyboard_35_n03085013_24087.png,False,0.5199830365997612,0.3488525152206421,1.0,-0.05640978631296222,2.575153350830078,0.0769230769230769,-3.6149226507647954,28.718232035636902,10.0,2.767074592074592,10.0,31.85962944253138,10.0
subject-01,1,941,0.870867967605591,keyboard,keyboard,pow,pow_keyboard_35_n03085013_24087.png,True,-0.08327401553518528,0.3488525152206421,1.0,-0.05640978631296222,2.575153350830078,0.0769230769230769,-3.6149226507647954,28.718232035636902,10.0,2.767074592074592,10.0,31.85962944253138,10.0
subject-04,1,124,1.35765409469604,dog,keyboard,pow,pow_keyboard_35_n03085013_24087.png,False,1.7561530351309864,0.3488525152206421,1.0,-0.05640978631296222,2.575153350830078,0.0769230769230769,-3.6149226507647954,28.718232035636902,10.0,2.767074592074592,10.0,31.85962944253138,10.0
subject-03,1,70,0.810671091079712,keyboard,keyboard,pow,pow_keyboard_35_n03085013_24087.png,True,-0.4825859642558996,0.3488525152206421,1.0,-0.05640978631296222,2.575153350830078,0.0769230769230769,-3.6149226507647954,28.718232035636902,10.0,2.767074592074592,10.0,31.85962944253138,10.0
subject-02,1,38,0.904105186462402,bird,bird,pow,pow_bird_35_n01532829_4536.png,True,0.5658111478871672,0.9500836730003356,1.0,-0.20413225904722326,2.4557747840881348,0.1,-3.4846846993567704,28.14926367998123,9.0,3.168986568986569,8.0,34.23847724129952,9.0
subject-01,1,558,1.10104703903198,bear,bird,pow,pow_bird_35_n01532829_4536.png,False,1.0143163010032732,0.9500836730003356,1.0,-0.20413225904722326,2.4557747840881348,0.1,-3.4846846993567704,28.14926367998123,9.0,3.168986568986569,8.0,34.23847724129952,9.0
subject-04,1,311,0.823775053024292,bird,bird,pow,pow_bird_35_n01532829_4536.png,True,-0.4385782893042199,0.9500836730003356,1.0,-0.20413225904722326,2.4557747840881348,0.1,-3.4846846993567704,28.14926367998123,9.0,3.168986568986569,8.0,34.23847724129952,9.0
subject-03,1,543,1.39049291610718,elephant,bird,pow,pow_bird_35_n01532829_4536.png,False,2.464317129238615,0.9500836730003356,1.0,-0.20413225904722326,2.4557747840881348,0.1,-3.4846846993567704,28.14926367998123,9.0,3.168986568986569,8.0,34.23847724129952,9.0
subject-02,1,39,0.777953147888184,bottle,bottle,pow,pow_bottle_35_n04557648_2282.png,True,-0.04120740780894102,0.0426803305745124,1.0,-0.004748274774181631,2.5491714477539062,0.1428571428571428,-2.848145696400706,25.359087504446507,9.0,4.507081807081807,7.0,25.575076109326087,0.0
subject-01,1,194,0.903800964355469,bottle,bottle,pow,pow_bottle_35_n04557648_2282.png,True,0.07376432032767485,0.0426803305745124,1.0,-0.004748274774181631,2.5491714477539062,0.1428571428571428,-2.848145696400706,25.359087504446507,9.0,4.507081807081807,7.0,25.575076109326087,0.0
subject-04,1,678,0.667859792709351,bottle,bottle,pow,pow_bottle_35_n04557648_2282.png,True,-1.0795326611019143,0.0426803305745124,1.0,-0.004748274774181631,2.5491714477539062,0.1428571428571428,-2.848145696400706,25.359087504446507,9.0,4.507081807081807,7.0,25.575076109326087,0.0
subject-03,1,1047,0.905324935913086,bottle,bottle,pow,pow_bottle_35_n04557648_2282.png,True,-0.0015145452257421083,0.0426803305745124,1.0,-0.004748274774181631,2.5491714477539062,0.1428571428571428,-2.848145696400706,25.359087504446507,9.0,4.507081807081807,7.0,25.575076109326087,0.0
subject-02,1,40,1.20385217666626,bottle,bottle,pow,pow_bottle_35_n04579145_4389.png,True,2.008134134691341,0.0801209211349487,1.0,-0.009719063561598367,2.585801839828491,0.1428571428571428,-2.8293965819734996,25.626810528337955,9.0,4.384462759462759,7.0,25.953703585189267,9.0
subject-01,1,466,0.670226097106934,bottle,bottle,pow,pow_bottle_35_n04579145_4389.png,True,-1.0400185743988537,0.0801209211349487,1.0,-0.009719063561598367,2.585801839828491,0.1428571428571428,-2.8293965819734996,25.626810528337955,9.0,4.384462759462759,7.0,25.953703585189267,9.0
subject-04,1,44,0.965492963790894,bottle,bottle,pow,pow_bottle_35_n04579145_4389.png,True,0.1440119862365293,0.0801209211349487,1.0,-0.009719063561598367,2.585801839828491,0.1428571428571428,-2.8293965819734996,25.626810528337955,9.0,4.384462759462759,7.0,25.953703585189267,9.0
subject-03,1,804,1.04620289802551,bottle,bottle,pow,pow_bottle_35_n04579145_4389.png,True,0.714487654820174,0.0801209211349487,1.0,-0.009719063561598367,2.585801839828491,0.1428571428571428,-2.8293965819734996,25.626810528337955,9.0,4.384462759462759,7.0,25.953703585189267,9.0
subject-02,1,41,0.691699028015137,bicycle,bicycle,0,0_bicycle_35_n03792782_7878.png,True,-0.45624510248220396,0.0230452306568622,1.0,-0.002448573886928084,2.526660919189453,1.0,-1.5719651501728944,23.756969675654545,8.0,8.75,3.0,17.105118827971495,8.0
subject-01,1,218,0.657270908355713,bicycle,bicycle,0,0_bicycle_35_n03792782_7878.png,True,-1.1017943459064539,0.0230452306568622,1.0,-0.002448573886928084,2.526660919189453,1.0,-1.5719651501728944,23.756969675654545,8.0,8.75,3.0,17.105118827971495,8.0
subject-04,1,37,0.943164110183716,bicycle,bicycle,0,0_bicycle_35_n03792782_7878.png,True,0.052219968522276304,0.0230452306568622,1.0,-0.002448573886928084,2.526660919189453,1.0,-1.5719651501728944,23.756969675654545,8.0,8.75,3.0,17.105118827971495,8.0
subject-03,1,535,0.8819580078125,bicycle,bicycle,0,0_bicycle_35_n03792782_7878.png,True,-0.12027529160126672,0.0230452306568622,1.0,-0.002448573886928084,2.526660919189453,1.0,-1.5719651501728944,23.756969675654545,8.0,8.75,3.0,17.105118827971495,8.0
subject-02,1,42,0.759416818618774,bottle,bottle,pow,pow_bottle_35_n02823428_6327.png,True,-0.13040054291951683,0.0962508022785186,1.0,-0.012005643356232248,2.538369655609131,0.125,-2.938597562775364,25.376594070345163,9.0,4.233669108669108,7.0,26.829951319183866,8.0
subject-01,1,594,0.823853015899658,bottle,bottle,pow,pow_bottle_35_n02823428_6327.png,True,-0.30746101657388764,0.0962508022785186,1.0,-0.012005643356232248,2.538369655609131,0.125,-2.938597562775364,25.376594070345163,9.0,4.233669108669108,7.0,26.829951319183866,8.0
subject-04,1,84,0.661228895187378,bottle,bottle,pow,pow_bottle_35_n02823428_6327.png,True,-1.1067917167393553,0.0962508022785186,1.0,-0.012005643356232248,2.538369655609131,0.125,-2.938597562775364,25.376594070345163,9.0,4.233669108669108,7.0,26.829951319183866,8.0
subject-03,1,167,0.976579904556274,bottle,bottle,pow,pow_bottle_35_n02823428_6327.png,True,0.3606337535408965,0.0962508022785186,1.0,-0.012005643356232248,2.538369655609131,0.125,-2.938597562775364,25.376594070345163,9.0,4.233669108669108,7.0,26.829951319183866,8.0
subject-02,1,43,0.639304876327515,cat,boat,pow,pow_boat_35_n04612504_2479.png,False,-0.7083553548712849,0.0674241334199905,1.0,-0.00806817979986659,2.49554705619812,1.0,-1.830981822702506,25.526619717478752,9.0,7.517857142857142,4.0,21.23778295721572,9.0
subject-01,1,663,1.11071300506592,boat,boat,pow,pow_boat_35_n04612504_2479.png,True,1.0604076795682225,0.0674241334199905,1.0,-0.00806817979986659,2.49554705619812,1.0,-1.830981822702506,25.526619717478752,9.0,7.517857142857142,4.0,21.23778295721572,9.0
subject-04,1,863,0.669486999511719,boat,boat,pow,pow_boat_35_n04612504_2479.png,True,-1.0728433523601661,0.0674241334199905,1.0,-0.00806817979986659,2.49554705619812,1.0,-1.830981822702506,25.526619717478752,9.0,7.517857142857142,4.0,21.23778295721572,9.0
subject-03,1,75,0.684110879898071,boat,boat,pow,pow_boat_35_n04612504_2479.png,True,-1.1258192158273264,0.0674241334199905,1.0,-0.00806817979986659,2.49554705619812,1.0,-1.830981822702506,25.526619717478752,9.0,7.517857142857142,4.0,21.23778295721572,9.0
subject-02,1,44,0.707144975662231,dog,dog,pow,pow_dog_35_n02088632_1732.png,True,-0.38192226998528334,1.7013328075408936,1.0,-0.49593882623042684,2.421190023422241,0.1428571428571428,-2.754017883205246,28.207130193710327,9.0,3.2396825396825397,9.0,28.410964070058757,9.0
subject-01,1,160,0.842331886291504,dog,dog,pow,pow_dog_35_n02088632_1732.png,True,-0.21934601516662167,1.7013328075408936,1.0,-0.49593882623042684,2.421190023422241,0.1428571428571428,-2.754017883205246,28.207130193710327,9.0,3.2396825396825397,9.0,28.410964070058757,9.0
subject-04,1,105,1.25317907333374,dog,dog,pow,pow_dog_35_n02088632_1732.png,True,1.3266651097633197,1.7013328075408936,1.0,-0.49593882623042684,2.421190023422241,0.1428571428571428,-2.754017883205246,28.207130193710327,9.0,3.2396825396825397,9.0,28.410964070058757,9.0
subject-03,1,918,0.946130037307739,dog,dog,pow,pow_dog_35_n02088632_1732.png,True,0.20587447384846,1.7013328075408936,1.0,-0.49593882623042684,2.421190023422241,0.1428571428571428,-2.754017883205246,28.207130193710327,9.0,3.2396825396825397,9.0,28.410964070058757,9.0
subject-02,1,45,0.77680492401123,keyboard,keyboard,pow,pow_keyboard_35_n03085013_22813.png,True,-0.0467324330664152,2.362435102462769,0.1,-3.344310538620547,2.5397958755493164,0.0769230769230769,-3.67853096737954,30.774170637130737,10.0,1.1885031635031635,6.0,37.920257621010464,6.0
subject-01,1,8,0.865800142288208,bottle,keyboard,pow,pow_keyboard_35_n03085013_22813.png,False,-0.10743953136509386,2.362435102462769,0.1,-3.344310538620547,2.5397958755493164,0.0769230769230769,-3.67853096737954,30.774170637130737,10.0,1.1885031635031635,6.0,37.920257621010464,6.0
subject-04,1,177,0.829512119293213,keyboard,keyboard,pow,pow_keyboard_35_n03085013_22813.png,True,-0.4149936979118812,2.362435102462769,0.1,-3.344310538620547,2.5397958755493164,0.0769230769230769,-3.67853096737954,30.774170637130737,10.0,1.1885031635031635,6.0,37.920257621010464,6.0
subject-03,1,587,0.986180067062378,keyboard,keyboard,pow,pow_keyboard_35_n03085013_22813.png,True,0.4094258951370634,2.362435102462769,0.1,-3.344310538620547,2.5397958755493164,0.0769230769230769,-3.67853096737954,30.774170637130737,10.0,1.1885031635031635,6.0,37.920257621010464,6.0
subject-02,1,46,1.05659699440002,clock,chair,pow,pow_chair_35_n04429376_10438.png,False,1.299571442655,0.3112407326698303,1.0,-0.04743311573463404,2.5655980110168457,0.0666666666666666,-3.7051202553254208,26.977493226528168,9.0,4.667857142857143,7.0,27.18751707371281,6.0
subject-01,1,1018,1.00246000289917,chair,chair,pow,pow_chair_35_n04429376_10438.png,True,0.5442119795067625,0.3112407326698303,1.0,-0.04743311573463404,2.5655980110168457,0.0666666666666666,-3.7051202553254208,26.977493226528168,9.0,4.667857142857143,7.0,27.18751707371281,6.0
subject-04,1,476,1.50006890296936,clock,chair,pow,pow_chair_35_n04429376_10438.png,False,2.341608197038365,0.3112407326698303,1.0,-0.04743311573463404,2.5655980110168457,0.0666666666666666,-3.7051202553254208,26.977493226528168,9.0,4.667857142857143,7.0,27.18751707371281,6.0
subject-03,1,492,0.901926040649414,clock,chair,pow,pow_chair_35_n04429376_10438.png,False,-0.018789188115399907,0.3112407326698303,1.0,-0.04743311573463404,2.5655980110168457,0.0666666666666666,-3.7051202553254208,26.977493226528168,9.0,4.667857142857143,7.0,27.18751707371281,6.0
subject-02,1,47,0.686486005783081,bottle,bottle,0,0_bottle_35_n02823428_4569.png,True,-0.4813291301513458,0.0207564048469066,1.0,-0.0021188637477797903,2.5143651962280273,0.2,-2.61455483902324,23.78055553662125,8.0,4.812637362637362,7.0,23.908877028655464,8.0
subject-01,1,474,0.63878607749939,bottle,bottle,0,0_bottle_35_n02823428_4569.png,True,-1.1899377693073072,0.0207564048469066,1.0,-0.0021188637477797903,2.5143651962280273,0.2,-2.61455483902324,23.78055553662125,8.0,4.812637362637362,7.0,23.908877028655464,8.0
subject-04,1,986,0.850093841552734,bottle,bottle,0,0_bottle_35_n02823428_4569.png,True,-0.33038398854335066,0.0207564048469066,1.0,-0.0021188637477797903,2.5143651962280273,0.2,-2.61455483902324,23.78055553662125,8.0,4.812637362637362,7.0,23.908877028655464,8.0
subject-03,1,520,0.770609140396118,bottle,bottle,0,0_bottle_35_n02823428_4569.png,True,-0.6861979728161413,0.0207564048469066,1.0,-0.0021188637477797903,2.5143651962280273,0.2,-2.61455483902324,23.78055553662125,8.0,4.812637362637362,7.0,23.908877028655464,8.0
subject-02,1,48,0.566390037536621,clock,clock,0,0_clock_35_n02708093_5.png,True,-1.0592070781720029,0.1537995934486389,1.0,-0.020972613927221436,2.5730316638946533,0.1666666666666666,-2.8004737761814282,25.30441015213728,9.0,4.969047619047618,6.0,28.75916624726782,6.0
subject-01,1,525,0.779176950454712,clock,clock,0,0_clock_35_n02708093_5.png,True,-0.5204952273278953,0.1537995934486389,1.0,-0.020972613927221436,2.5730316638946533,0.1666666666666666,-2.8004737761814282,25.30441015213728,9.0,4.969047619047618,6.0,28.75916624726782,6.0
subject-04,1,35,0.689443111419678,clock,clock,0,0_clock_35_n02708093_5.png,True,-0.9908054739276557,0.1537995934486389,1.0,-0.020972613927221436,2.5730316638946533,0.1666666666666666,-2.8004737761814282,25.30441015213728,9.0,4.969047619047618,6.0,28.75916624726782,6.0
subject-03,1,1004,0.755916833877563,clock,clock,0,0_clock_35_n02708093_5.png,True,-0.7608705733655399,0.1537995934486389,1.0,-0.020972613927221436,2.5730316638946533,0.1666666666666666,-2.8004737761814282,25.30441015213728,9.0,4.969047619047618,6.0,28.75916624726782,6.0
subject-02,1,49,0.63213586807251,airplane,airplane,pow,pow_airplane_35_n02690373_18304.png,True,-0.7428511988220459,0.0224601104855537,1.0,-0.0023219700199517503,2.4788594245910645,0.3333333333333333,-2.1138591643024003,25.634535886347294,9.0,4.578088578088578,7.0,26.42951522995198,9.0
subject-01,1,329,0.686275005340576,airplane,airplane,pow,pow_airplane_35_n02690373_18304.png,True,-0.9634906513383378,0.0224601104855537,1.0,-0.0023219700199517503,2.4788594245910645,0.3333333333333333,-2.1138591643024003,25.634535886347294,9.0,4.578088578088578,7.0,26.42951522995198,9.0
subject-04,1,424,1.39355397224426,chair,airplane,pow,pow_airplane_35_n02690373_18304.png,False,1.9037343778106837,0.0224601104855537,1.0,-0.0023219700199517503,2.4788594245910645,0.3333333333333333,-2.1138591643024003,25.634535886347294,9.0,4.578088578088578,7.0,26.42951522995198,9.0
subject-03,1,276,1.04985880851746,airplane,airplane,pow,pow_airplane_35_n02690373_18304.png,True,0.7330685592863971,0.0224601104855537,1.0,-0.0023219700199517503,2.4788594245910645,0.3333333333333333,-2.1138591643024003,25.634535886347294,9.0,4.578088578088578,7.0,26.42951522995198,9.0
subject-02,1,50,0.816189050674438,bear,chair,pow,pow_chair_35_n03376595_235.png,False,0.142776162709373,1.972697615623474,0.3333333333333333,-2.710935446786085,2.5494067668914795,0.0769230769230769,-3.6845641485497884,29.89223825931549,9.0,1.6066849816849813,7.0,35.28360429133761,6.0
subject-01,1,674,1.4783718585968,oven,chair,pow,pow_chair_35_n03376595_235.png,False,2.8135592364167636,1.972697615623474,0.3333333333333333,-2.710935446786085,2.5494067668914795,0.0769230769230769,-3.6845641485497884,29.89223825931549,9.0,1.6066849816849813,7.0,35.28360429133761,6.0
subject-04,1,474,1.12798595428467,elephant,chair,pow,pow_chair_35_n03376595_235.png,False,0.8120068472468496,1.972697615623474,0.3333333333333333,-2.710935446786085,2.5494067668914795,0.0769230769230769,-3.6845641485497884,29.89223825931549,9.0,1.6066849816849813,7.0,35.28360429133761,6.0
subject-03,1,277,1.05360007286072,elephant,chair,pow,pow_chair_35_n03376595_235.png,False,0.7520832686175114,1.972697615623474,0.3333333333333333,-2.710935446786085,2.5494067668914795,0.0769230769230769,-3.6845641485497884,29.89223825931549,9.0,1.6066849816849813,7.0,35.28360429133761,6.0
subject-02,1,51,0.634246826171875,car,car,pow,pow_car_35_n02814533_95669.png,True,-0.7326936876863247,0.3808304965496063,1.0,-0.0760442914318186,2.5762627124786377,0.0714285714285714,-3.600774145659455,27.10748115181923,9.0,3.805927405927406,7.0,34.96139419747367,8.0
subject-01,1,987,0.806926012039185,car,car,pow,pow_car_35_n02814533_95669.png,True,-0.388176067730073,0.3808304965496063,1.0,-0.0760442914318186,2.5762627124786377,0.0714285714285714,-3.600774145659455,27.10748115181923,9.0,3.805927405927406,7.0,34.96139419747367,8.0
subject-04,1,420,0.978347063064575,car,car,pow,pow_car_35_n02814533_95669.png,True,0.19685409488160513,0.3808304965496063,1.0,-0.0760442914318186,2.5762627124786377,0.0714285714285714,-3.600774145659455,27.10748115181923,9.0,3.805927405927406,7.0,34.96139419747367,8.0
subject-03,1,63,1.0221221446991,car,car,pow,pow_car_35_n02814533_95669.png,True,0.5920989426189486,0.3808304965496063,1.0,-0.0760442914318186,2.5762627124786377,0.0714285714285714,-3.600774145659455,27.10748115181923,9.0,3.805927405927406,7.0,34.96139419747367,8.0
subject-02,1,52,0.849509954452515,bear,bear,pow,pow_bear_35_n02134418_2298.png,True,0.3031097341241356,0.0825146734714508,1.0,-0.010132391335198361,2.4812493324279785,1.0,-1.6886879727679178,25.752418622374535,9.0,10.25,3.0,17.149536731076598,9.0
subject-01,1,898,0.832714080810547,bear,bear,pow,pow_bear_35_n02134418_2298.png,True,-0.265207744023343,0.0825146734714508,1.0,-0.010132391335198361,2.4812493324279785,1.0,-1.6886879727679178,25.752418622374535,9.0,10.25,3.0,17.149536731076598,9.0
subject-04,1,955,1.45043992996216,dog,bear,pow,pow_bear_35_n02134418_2298.png,False,2.1375877108297656,0.0825146734714508,1.0,-0.010132391335198361,2.4812493324279785,1.0,-1.6886879727679178,25.752418622374535,9.0,10.25,3.0,17.149536731076598,9.0
subject-03,1,574,0.932178020477295,bear,bear,pow,pow_bear_35_n02134418_2298.png,True,0.13496434286783468,0.0825146734714508,1.0,-0.010132391335198361,2.4812493324279785,1.0,-1.6886879727679178,25.752418622374535,9.0,10.25,3.0,17.149536731076598,9.0
subject-02,1,53,0.855406999588013,bird,dog,pow,pow_dog_35_n02111129_513.png,False,0.33148514415699704,2.252484083175659,1.0,-0.9814620571532565,2.4904990196228027,0.1428571428571428,-2.9803272006989694,30.07287883758545,9.0,2.978571428571428,9.0,31.29611634169729,9.0
subject-01,1,404,0.831674098968506,cat,dog,pow,pow_dog_35_n02111129_513.png,False,-0.2701668134649151,2.252484083175659,1.0,-0.9814620571532565,2.4904990196228027,0.1428571428571428,-2.9803272006989694,30.07287883758545,9.0,2.978571428571428,9.0,31.29611634169729,9.0
subject-04,1,164,1.14604187011719,dog,dog,pow,pow_dog_35_n02111129_513.png,True,0.886233181258594,2.252484083175659,1.0,-0.9814620571532565,2.4904990196228027,0.1428571428571428,-2.9803272006989694,30.07287883758545,9.0,2.978571428571428,9.0,31.29611634169729,9.0
subject-03,1,879,1.40253305435181,bear,dog,pow,pow_dog_35_n02111129_513.png,False,2.5255102735938157,2.252484083175659,1.0,-0.9814620571532565,2.4904990196228027,0.1428571428571428,-2.9803272006989694,30.07287883758545,9.0,2.978571428571428,9.0,31.29611634169729,9.0
subject-02,1,54,1.09538698196411,car,car,0,0_car_35_n03100240_17108.png,True,1.4862211590824612,0.0281545184552669,1.0,-0.003017802199901598,2.4409356117248535,0.125,-3.2866047617955756,24.921089749783278,9.0,3.5672619047619047,8.0,32.29864236114103,8.0
subject-01,1,839,0.798765182495117,car,car,0,0_car_35_n03100240_17108.png,True,-0.4270903244736735,0.0281545184552669,1.0,-0.003017802199901598,2.4409356117248535,0.125,-3.2866047617955756,24.921089749783278,9.0,3.5672619047619047,8.0,32.29864236114103,8.0
subject-04,1,734,0.812970161437988,car,car,0,0_car_35_n03100240_17108.png,True,-0.4829962794679323,0.0281545184552669,1.0,-0.003017802199901598,2.4409356117248535,0.125,-3.2866047617955756,24.921089749783278,9.0,3.5672619047619047,8.0,32.29864236114103,8.0
subject-03,1,1088,1.15139698982239,car,car,0,0_car_35_n03100240_17108.png,True,1.2491291276879568,0.0281545184552669,1.0,-0.003017802199901598,2.4409356117248535,0.125,-3.2866047617955756,24.921089749783278,9.0,3.5672619047619047,8.0,32.29864236114103,8.0
subject-02,1,55,0.753080129623413,car,truck,0,0_truck_35_n04467665_19132.png,False,-0.16089143189232152,0.0704712867736816,1.0,-0.008555728359280687,2.4158082008361816,0.2,-2.382047448424975,25.603404879570007,9.0,4.292857142857143,8.0,24.166826591625,9.0
subject-01,1,572,0.783792972564697,truck,truck,0,0_truck_35_n04467665_19132.png,True,-0.4984840986121065,0.0704712867736816,1.0,-0.008555728359280687,2.4158082008361816,0.2,-2.382047448424975,25.603404879570007,9.0,4.292857142857143,8.0,24.166826591625,9.0
subject-04,1,1025,0.862780094146729,truck,truck,0,0_truck_35_n04467665_19132.png,True,-0.2782318833201285,0.0704712867736816,1.0,-0.008555728359280687,2.4158082008361816,0.2,-2.382047448424975,25.603404879570007,9.0,4.292857142857143,8.0,24.166826591625,9.0
subject-03,1,956,0.804715871810913,truck,truck,0,0_truck_35_n04467665_19132.png,True,-0.5128529416757832,0.0704712867736816,1.0,-0.008555728359280687,2.4158082008361816,0.2,-2.382047448424975,25.603404879570007,9.0,4.292857142857143,8.0,24.166826591625,9.0
subject-02,1,56,0.647171020507812,bicycle,bicycle,pow,pow_bicycle_35_n03792782_6023.png,True,-0.6705050312999219,0.6510142087936401,1.0,-0.12248693415749101,2.5570592880249023,0.3333333333333333,-2.1780066523014026,29.04977262020111,10.0,4.926190476190476,8.0,24.51663508874019,10.0
subject-01,1,804,0.869126081466675,bicycle,bicycle,pow,pow_bicycle_35_n03792782_6023.png,True,-0.0915800589419083,0.6510142087936401,1.0,-0.12248693415749101,2.5570592880249023,0.3333333333333333,-2.1780066523014026,29.04977262020111,10.0,4.926190476190476,8.0,24.51663508874019,10.0
subject-04,1,811,0.627259016036987,bicycle,bicycle,pow,pow_bicycle_35_n03792782_6023.png,True,-1.2464390001861574,0.6510142087936401,1.0,-0.12248693415749101,2.5570592880249023,0.3333333333333333,-2.1780066523014026,29.04977262020111,10.0,4.926190476190476,8.0,24.51663508874019,10.0
subject-03,1,416,0.775951862335205,bicycle,bicycle,pow,pow_bicycle_35_n03792782_6023.png,True,-0.6590439694130608,0.6510142087936401,1.0,-0.12248693415749101,2.5570592880249023,0.3333333333333333,-2.1780066523014026,29.04977262020111,10.0,4.926190476190476,8.0,24.51663508874019,10.0
subject-02,1,57,0.508551836013794,clock,clock,pow,pow_clock_35_n04548280_3999.png,True,-1.3375130171742617,0.0475272312760353,1.0,-0.005373944256123405,2.588982105255127,0.2,-2.4186187397559764,24.585128851234913,9.0,5.812337662337662,5.0,26.124651187958932,4.0
subject-01,1,1101,0.62444806098938,clock,clock,pow,pow_clock_35_n04548280_3999.png,True,-1.2583074433277721,0.0475272312760353,1.0,-0.005373944256123405,2.588982105255127,0.2,-2.4186187397559764,24.585128851234913,9.0,5.812337662337662,5.0,26.124651187958932,4.0
subject-04,1,463,0.488032817840576,clock,clock,pow,pow_clock_35_n04548280_3999.png,True,-1.8187860573151797,0.0475272312760353,1.0,-0.005373944256123405,2.588982105255127,0.2,-2.4186187397559764,24.585128851234913,9.0,5.812337662337662,5.0,26.124651187958932,4.0
subject-03,1,725,0.617647886276245,clock,clock,pow,pow_clock_35_n04548280_3999.png,True,-1.4636126431405991,0.0475272312760353,1.0,-0.005373944256123405,2.588982105255127,0.2,-2.4186187397559764,24.585128851234913,9.0,5.812337662337662,5.0,26.124651187958932,4.0
subject-02,1,58,0.828506946563721,truck,truck,0,0_truck_35_n03417042_27966.png,True,0.20204743138196446,0.0698430016636848,1.0,-0.008380863896075815,2.4691920280456543,0.2,-2.4502924864892557,25.089640088379383,9.0,4.776190476190476,8.0,22.43972827754481,9.0
subject-01,1,1116,0.809818029403687,truck,truck,0,0_truck_35_n03417042_27966.png,True,-0.3743857164402359,0.0698430016636848,1.0,-0.008380863896075815,2.4691920280456543,0.2,-2.4502924864892557,25.089640088379383,9.0,4.776190476190476,8.0,22.43972827754481,9.0
subject-04,1,715,1.00669384002686,truck,truck,0,0_truck_35_n03417042_27966.png,True,0.313385283577633,0.0698430016636848,1.0,-0.008380863896075815,2.4691920280456543,0.2,-2.4502924864892557,25.089640088379383,9.0,4.776190476190476,8.0,22.43972827754481,9.0
subject-03,1,638,0.708543062210083,truck,truck,0,0_truck_35_n03417042_27966.png,True,-1.001644390858157,0.0698430016636848,1.0,-0.008380863896075815,2.4691920280456543,0.2,-2.4502924864892557,25.089640088379383,9.0,4.776190476190476,8.0,22.43972827754481,9.0
subject-02,1,59,0.60439920425415,elephant,elephant,0,0_elephant_35_n02504013_4457.png,True,-0.8763145165863802,0.020159438252449,1.0,-0.0020474279363203464,2.4225096702575684,0.5,-2.0447013507541607,23.91823649406433,9.0,8.2,1.0,19.412738974301465,0.0
subject-01,1,125,0.844821929931641,elephant,elephant,0,0_elephant_35_n02504013_4457.png,True,-0.2074724431244888,0.020159438252449,1.0,-0.0020474279363203464,2.4225096702575684,0.5,-2.0447013507541607,23.91823649406433,9.0,8.2,1.0,19.412738974301465,0.0
subject-04,1,901,1.49657487869263,elephant,elephant,0,0_elephant_35_n02504013_4457.png,True,2.327244560465437,0.020159438252449,1.0,-0.0020474279363203464,2.4225096702575684,0.5,-2.0447013507541607,23.91823649406433,9.0,8.2,1.0,19.412738974301465,0.0
subject-03,1,819,0.963330984115601,elephant,elephant,0,0_elephant_35_n02504013_4457.png,True,0.29329705984153087,0.020159438252449,1.0,-0.0020474279363203464,2.4225096702575684,0.5,-2.0447013507541607,23.91823649406433,9.0,8.2,1.0,19.412738974301465,0.0
subject-02,1,60,0.738272905349731,elephant,elephant,0,0_elephant_35_n02504013_5186.png,True,-0.2321408543674946,0.0423523411154747,1.0,-0.004811279289446324,2.4685447216033936,0.5,-2.0149882439145412,25.61627783626318,9.0,7.75,1.0,20.862254918063957,9.0
subject-01,1,1064,0.819609880447388,elephant,elephant,0,0_elephant_35_n02504013_5186.png,True,-0.3276940653706889,0.0423523411154747,1.0,-0.004811279289446324,2.4685447216033936,0.5,-2.0149882439145412,25.61627783626318,9.0,7.75,1.0,20.862254918063957,9.0
subject-04,1,896,1.0072329044342,elephant,elephant,0,0_elephant_35_n02504013_5186.png,True,0.3156013314992239,0.0423523411154747,1.0,-0.004811279289446324,2.4685447216033936,0.5,-2.0149882439145412,25.61627783626318,9.0,7.75,1.0,20.862254918063957,9.0
subject-03,1,142,0.847687959671021,elephant,elephant,0,0_elephant_35_n02504013_5186.png,True,-0.2944503683630742,0.0423523411154747,1.0,-0.004811279289446324,2.4685447216033936,0.5,-2.0149882439145412,25.61627783626318,9.0,7.75,1.0,20.862254918063957,9.0
subject-02,1,61,0.830052852630615,airplane,airplane,pow,pow_airplane_35_n02690373_4320.png,True,0.2094860243573428,0.0533863231539726,1.0,-0.006168096836477173,2.530264377593994,0.25,-2.22609407483482,25.86540400981903,9.0,3.920512820512821,8.0,27.028973180372642,9.0
subject-01,1,1074,1.0079300403595,airplane,airplane,pow,pow_airplane_35_n02690373_4320.png,True,0.5702954114641327,0.0533863231539726,1.0,-0.006168096836477173,2.530264377593994,0.25,-2.22609407483482,25.86540400981903,9.0,3.920512820512821,8.0,27.028973180372642,9.0
subject-04,1,746,0.786699056625366,airplane,airplane,pow,pow_airplane_35_n02690373_4320.png,True,-0.5909945565294105,0.0533863231539726,1.0,-0.006168096836477173,2.530264377593994,0.25,-2.22609407483482,25.86540400981903,9.0,3.920512820512821,8.0,27.028973180372642,9.0
subject-03,1,49,0.9149010181427,airplane,airplane,pow,pow_airplane_35_n02690373_4320.png,True,0.04715521008170991,0.0533863231539726,1.0,-0.006168096836477173,2.530264377593994,0.25,-2.22609407483482,25.86540400981903,9.0,3.920512820512821,8.0,27.028973180372642,9.0
subject-02,1,62,0.835620880126953,clock,clock,0,0_clock_35_n02708093_2498.png,True,0.2362782668538035,0.0209917873144149,1.0,-0.0021676054910368036,2.54696273803711,0.1111111111111111,-2.960776335331344,25.572034932672977,9.0,4.863492063492063,6.0,29.821200635927593,8.0
subject-01,1,536,0.521147966384888,clock,clock,0,0_clock_35_n02708093_2498.png,True,-1.7508856035957276,0.0209917873144149,1.0,-0.0021676054910368036,2.54696273803711,0.1111111111111111,-2.960776335331344,25.572034932672977,9.0,4.863492063492063,6.0,29.821200635927593,8.0
subject-04,1,799,0.530893087387085,clock,clock,0,0_clock_35_n02708093_2498.png,True,-1.6425911352352531,0.0209917873144149,1.0,-0.0021676054910368036,2.54696273803711,0.1111111111111111,-2.960776335331344,25.572034932672977,9.0,4.863492063492063,6.0,29.821200635927593,8.0
subject-03,1,613,0.803033113479614,clock,clock,0,0_clock_35_n02708093_2498.png,True,-0.5214054409403177,0.0209917873144149,1.0,-0.0021676054910368036,2.54696273803711,0.1111111111111111,-2.960776335331344,25.572034932672977,9.0,4.863492063492063,6.0,29.821200635927593,8.0
subject-02,1,63,0.97749400138855,keyboard,keyboard,0,0_keyboard_35_n04505470_5131.png,True,0.9189435502185856,0.042095348238945,1.0,-0.004834158337324142,2.505974769592285,0.1,-3.3572849578431097,26.018027663230896,9.0,4.956493506493507,6.0,27.89244766766755,9.0
subject-01,1,646,0.881827831268311,keyboard,keyboard,0,0_keyboard_35_n04505470_5131.png,True,-0.03101279060175279,0.042095348238945,1.0,-0.004834158337324142,2.505974769592285,0.1,-3.3572849578431097,26.018027663230896,9.0,4.956493506493507,6.0,27.89244766766755,9.0
subject-04,1,95,0.665188074111938,keyboard,keyboard,0,0_keyboard_35_n04505470_5131.png,True,-1.090515868978847,0.042095348238945,1.0,-0.004834158337324142,2.505974769592285,0.1,-3.3572849578431097,26.018027663230896,9.0,4.956493506493507,6.0,27.89244766766755,9.0
subject-03,1,281,1.10079097747803,bottle,keyboard,0,0_keyboard_35_n04505470_5131.png,False,0.9919276773631935,0.042095348238945,1.0,-0.004834158337324142,2.505974769592285,0.1,-3.3572849578431097,26.018027663230896,9.0,4.956493506493507,6.0,27.89244766766755,9.0
subject-02,1,64,0.881392955780029,chair,chair,0,0_chair_35_n02791124_2003.png,True,0.4565244045156768,0.0344625115394592,1.0,-0.0037449299881896158,2.5593905448913574,0.0769230769230769,-3.4093158259114738,24.845867563039064,9.0,4.219780219780219,8.0,25.065502130709696,8.0
subject-01,1,971,0.639827966690063,chair,chair,0,0_chair_35_n02791124_2003.png,True,-1.18496960482779,0.0344625115394592,1.0,-0.0037449299881896158,2.5593905448913574,0.0769230769230769,-3.4093158259114738,24.845867563039064,9.0,4.219780219780219,8.0,25.065502130709696,8.0
subject-04,1,399,0.658728837966919,chair,chair,0,0_chair_35_n02791124_2003.png,True,-1.117069239298474,0.0344625115394592,1.0,-0.0037449299881896158,2.5593905448913574,0.0769230769230769,-3.4093158259114738,24.845867563039064,9.0,4.219780219780219,8.0,25.065502130709696,8.0
subject-03,1,633,0.935083866119385,chair,chair,0,0_chair_35_n02791124_2003.png,True,0.14973309620251085,0.0344625115394592,1.0,-0.0037449299881896158,2.5593905448913574,0.0769230769230769,-3.4093158259114738,24.845867563039064,9.0,4.219780219780219,8.0,25.065502130709696,8.0
subject-02,1,65,0.871083974838257,car,car,pow,pow_car_35_n02814533_46997.png,True,0.4069196355979586,0.0751005932688713,1.0,-0.010016430416426967,2.5300259590148926,0.0666666666666666,-3.8616294277507213,25.80481358617544,9.0,3.3353535353535353,8.0,34.731906077982664,8.0
subject-01,1,798,0.697267055511475,car,car,pow,pow_car_35_n02814533_46997.png,True,-0.9110759476395176,0.0751005932688713,1.0,-0.010016430416426967,2.5300259590148926,0.0666666666666666,-3.8616294277507213,25.80481358617544,9.0,3.3353535353535353,8.0,34.731906077982664,8.0
subject-04,1,737,1.02034902572632,car,car,pow,pow_car_35_n02814533_46997.png,True,0.3695205903724839,0.0751005932688713,1.0,-0.010016430416426967,2.5300259590148926,0.0666666666666666,-3.8616294277507213,25.80481358617544,9.0,3.3353535353535353,8.0,34.731906077982664,8.0
subject-03,1,866,1.26864910125732,car,car,pow,pow_car_35_n02814533_46997.png,True,1.8450546258183351,0.0751005932688713,1.0,-0.010016430416426967,2.5300259590148926,0.0666666666666666,-3.8616294277507213,25.80481358617544,9.0,3.3353535353535353,8.0,34.731906077982664,8.0
subject-02,1,66,0.813022136688232,truck,truck,0,0_truck_35_n03417042_7036.png,True,0.12753760156008462,0.0685189813375473,1.0,-0.008155851292257205,2.519379138946533,0.2,-2.5075618806480837,25.50703513622284,9.0,4.492857142857143,8.0,23.381877152978,9.0
subject-01,1,1050,0.934108018875122,truck,truck,0,0_truck_35_n03417042_7036.png,True,0.21828106269455103,0.0685189813375473,1.0,-0.008155851292257205,2.519379138946533,0.2,-2.5075618806480837,25.50703513622284,9.0,4.492857142857143,8.0,23.381877152978,9.0
subject-04,1,397,0.651167154312134,truck,truck,0,0_truck_35_n03417042_7036.png,True,-1.148154677548043,0.0685189813375473,1.0,-0.008155851292257205,2.519379138946533,0.2,-2.5075618806480837,25.50703513622284,9.0,4.492857142857143,8.0,23.381877152978,9.0
subject-03,1,764,0.916191816329956,truck,truck,0,0_truck_35_n03417042_7036.png,True,0.05371559985476106,0.0685189813375473,1.0,-0.008155851292257205,2.519379138946533,0.2,-2.5075618806480837,25.50703513622284,9.0,4.492857142857143,8.0,23.381877152978,9.0
subject-02,1,67,0.826752901077271,keyboard,cat,0,0_cat_35_n02125311_27218.png,False,0.19360731285638233,1.3326274156570437,1.0,-0.45314144093287634,2.510463237762451,0.0909090909090909,-3.4462312449435544,29.05936563014984,10.0,3.708838383838384,8.0,30.393964099670683,9.0
subject-01,1,832,1.00785684585571,cat,cat,0,0_cat_35_n02125311_27218.png,True,0.5699463893828207,1.3326274156570437,1.0,-0.45314144093287634,2.510463237762451,0.0909090909090909,-3.4462312449435544,29.05936563014984,10.0,3.708838383838384,8.0,30.393964099670683,9.0
subject-04,1,685,1.34247899055481,clock,cat,0,0_cat_35_n02125311_27218.png,False,1.6937694729180284,1.3326274156570437,1.0,-0.45314144093287634,2.510463237762451,0.0909090909090909,-3.4462312449435544,29.05936563014984,10.0,3.708838383838384,8.0,30.393964099670683,9.0
subject-03,1,160,1.10017800331116,cat,cat,0,0_cat_35_n02125311_27218.png,True,0.9888122798555261,1.3326274156570437,1.0,-0.45314144093287634,2.510463237762451,0.0909090909090909,-3.4462312449435544,29.05936563014984,10.0,3.708838383838384,8.0,30.393964099670683,9.0
subject-02,1,68,1.10096406936646,boat,boat,0,0_boat_35_n02951358_5718.png,True,1.5130569960473448,0.0942783430218696,1.0,-0.01176467581520351,2.4022090435028076,1.0,-1.7286422469353622,25.197219036519527,9.0,7.309523809523809,4.0,20.81318565779382,9.0
subject-01,1,435,0.99407696723938,boat,boat,0,0_boat_35_n02951358_5718.png,True,0.5042381508421329,0.0942783430218696,1.0,-0.01176467581520351,2.4022090435028076,1.0,-1.7286422469353622,25.197219036519527,9.0,7.309523809523809,4.0,20.81318565779382,9.0
subject-04,1,1066,0.920957088470459,boat,boat,0,0_boat_35_n02951358_5718.png,True,-0.03907120864003035,0.0942783430218696,1.0,-0.01176467581520351,2.4022090435028076,1.0,-1.7286422469353622,25.197219036519527,9.0,7.309523809523809,4.0,20.81318565779382,9.0
subject-03,1,169,0.640166997909546,boat,boat,0,0_boat_35_n02951358_5718.png,True,-1.3491608635240258,0.0942783430218696,1.0,-0.01176467581520351,2.4022090435028076,1.0,-1.7286422469353622,25.197219036519527,9.0,7.309523809523809,4.0,20.81318565779382,9.0
subject-02,1,69,0.822354078292847,keyboard,dog,pow,pow_dog_35_n02097658_6717.png,False,0.17244105122840844,1.5142560005187988,1.0,-0.45444394920749587,2.525852680206299,0.1666666666666666,-2.8616738018758414,29.285361766815186,10.0,3.6428571428571423,8.0,29.793185832226456,9.0
subject-01,1,621,0.982404947280884,cat,dog,pow,pow_dog_35_n02097658_6717.png,False,0.4485810661145764,1.5142560005187988,1.0,-0.45444394920749587,2.525852680206299,0.1666666666666666,-2.8616738018758414,29.285361766815186,10.0,3.6428571428571423,8.0,29.793185832226456,9.0
subject-04,1,304,0.926898002624512,dog,dog,pow,pow_dog_35_n02097658_6717.png,True,-0.014648615932790281,1.5142560005187988,1.0,-0.45444394920749587,2.525852680206299,0.1666666666666666,-2.8616738018758414,29.285361766815186,10.0,3.6428571428571423,8.0,29.793185832226456,9.0
subject-03,1,771,1.02900004386902,dog,dog,pow,pow_dog_35_n02097658_6717.png,True,0.6270553748636657,1.5142560005187988,1.0,-0.45444394920749587,2.525852680206299,0.1666666666666666,-2.8616738018758414,29.285361766815186,10.0,3.6428571428571423,8.0,29.793185832226456,9.0
subject-02,1,70,0.906323194503784,bottle,bottle,0,0_bottle_35_n03983396_17636.png,True,0.5764837620836467,0.134584754705429,1.0,-0.017642785064945998,2.535412073135376,0.1666666666666666,-2.6960974141995773,25.318950079381466,9.0,4.565018315018315,7.0,24.206289553152743,0.0
subject-01,1,287,0.901364088058472,bottle,bottle,0,0_bottle_35_n03983396_17636.png,True,0.06214427246836579,0.134584754705429,1.0,-0.017642785064945998,2.535412073135376,0.1666666666666666,-2.6960974141995773,25.318950079381466,9.0,4.565018315018315,7.0,24.206289553152743,0.0
subject-04,1,801,0.895251989364624,bottle,bottle,0,0_bottle_35_n03983396_17636.png,True,-0.14474268438972698,0.134584754705429,1.0,-0.017642785064945998,2.535412073135376,0.1666666666666666,-2.6960974141995773,25.318950079381466,9.0,4.565018315018315,7.0,24.206289553152743,0.0
subject-03,1,573,0.742786169052124,bottle,bottle,0,0_bottle_35_n03983396_17636.png,True,-0.8276062413302508,0.134584754705429,1.0,-0.017642785064945998,2.535412073135376,0.1666666666666666,-2.6960974141995773,25.318950079381466,9.0,4.565018315018315,7.0,24.206289553152743,0.0
subject-02,1,71,0.956161022186279,chair,chair,0,0_chair_35_n04429376_54570.png,True,0.8162934910486007,0.0303800534456968,1.0,-0.003282325100552717,2.5177931785583496,0.0769230769230769,-3.6192089385886566,26.32691846601665,9.0,4.071703296703296,8.0,28.402748447945452,9.0
subject-01,1,96,1.2401819229126,bear,chair,0,0_chair_35_n04429376_54570.png,False,1.677769760493438,0.0303800534456968,1.0,-0.003282325100552717,2.5177931785583496,0.0769230769230769,-3.6192089385886566,26.32691846601665,9.0,4.071703296703296,8.0,28.402748447945452,9.0
subject-04,1,41,0.711947202682495,chair,chair,0,0_chair_35_n04429376_54570.png,True,-0.8982930691181397,0.0303800534456968,1.0,-0.003282325100552717,2.5177931785583496,0.0769230769230769,-3.6192089385886566,26.32691846601665,9.0,4.071703296703296,8.0,28.402748447945452,9.0
subject-03,1,1028,1.01718091964722,chair,chair,0,0_chair_35_n04429376_54570.png,True,0.566985518524662,0.0303800534456968,1.0,-0.003282325100552717,2.5177931785583496,0.0769230769230769,-3.6192089385886566,26.32691846601665,9.0,4.071703296703296,8.0,28.402748447945452,9.0
subject-02,1,72,0.695947885513306,keyboard,keyboard,0,0_keyboard_35_n04505470_2869.png,True,-0.4358004440284309,0.0228498876094818,1.0,-0.0023612220765002953,2.5960183143615723,0.2,-2.515950523593042,23.928916968405247,9.0,5.426262626262626,6.0,22.865122642391373,6.0
subject-01,1,464,0.666517019271851,keyboard,keyboard,0,0_keyboard_35_n04505470_2869.png,True,-1.0577050125699994,0.0228498876094818,1.0,-0.0023612220765002953,2.5960183143615723,0.2,-2.515950523593042,23.928916968405247,9.0,5.426262626262626,6.0,22.865122642391373,6.0
subject-04,1,884,0.663790941238403,keyboard,keyboard,0,0_keyboard_35_n04505470_2869.png,True,-1.0962593633710296,0.0228498876094818,1.0,-0.0023612220765002953,2.5960183143615723,0.2,-2.515950523593042,23.928916968405247,9.0,5.426262626262626,6.0,22.865122642391373,6.0
subject-03,1,779,0.727309942245483,keyboard,keyboard,0,0_keyboard_35_n04505470_2869.png,True,-0.906263060862618,0.0228498876094818,1.0,-0.0023612220765002953,2.5960183143615723,0.2,-2.515950523593042,23.928916968405247,9.0,5.426262626262626,6.0,22.865122642391373,6.0
subject-02,1,73,0.715598821640015,chair,chair,0,0_chair_35_n04099969_13105.png,True,-0.34124404208258696,0.0421266108751297,1.0,-0.0046796450950523415,2.5410265922546387,0.0769230769230769,-3.336602574369254,25.759281184524298,9.0,4.927355977355977,7.0,24.93475602152739,9.0
subject-01,1,417,0.663590908050537,chair,chair,0,0_chair_35_n04099969_13105.png,True,-1.0716579376631736,0.0421266108751297,1.0,-0.0046796450950523415,2.5410265922546387,0.0769230769230769,-3.336602574369254,25.759281184524298,9.0,4.927355977355977,7.0,24.93475602152739,9.0
subject-04,1,822,1.15508604049683,chair,chair,0,0_chair_35_n04099969_13105.png,True,0.923412996322264,0.0421266108751297,1.0,-0.0046796450950523415,2.5410265922546387,0.0769230769230769,-3.336602574369254,25.759281184524298,9.0,4.927355977355977,7.0,24.93475602152739,9.0
subject-03,1,702,0.843895196914673,chair,chair,0,0_chair_35_n04099969_13105.png,True,-0.31372681470767877,0.0421266108751297,1.0,-0.0046796450950523415,2.5410265922546387,0.0769230769230769,-3.336602574369254,25.759281184524298,9.0,4.927355977355977,7.0,24.93475602152739,9.0
subject-02,1,74,0.757611989974976,dog,dog,0,0_dog_35_n02088238_8653.png,True,-0.1390850199126702,0.7585277557373047,1.0,-0.1455404917216443,2.478375196456909,0.1666666666666666,-2.806582365276588,26.3994098007679,9.0,3.8690476190476186,8.0,27.594252680437823,9.0
subject-01,1,63,0.913295030593872,dog,dog,0,0_dog_35_n02088238_8653.png,True,0.11903600859746755,0.7585277557373047,1.0,-0.1455404917216443,2.478375196456909,0.1666666666666666,-2.806582365276588,26.3994098007679,9.0,3.8690476190476186,8.0,27.594252680437823,9.0
subject-04,1,772,0.989847898483276,dog,dog,0,0_dog_35_n02088238_8653.png,True,0.24413305093794066,0.7585277557373047,1.0,-0.1455404917216443,2.478375196456909,0.1666666666666666,-2.806582365276588,26.3994098007679,9.0,3.8690476190476186,8.0,27.594252680437823,9.0
subject-03,1,170,0.909948110580444,dog,dog,0,0_dog_35_n02088238_8653.png,True,0.021982410461217787,0.7585277557373047,1.0,-0.1455404917216443,2.478375196456909,0.1666666666666666,-2.806582365276588,26.3994098007679,9.0,3.8690476190476186,8.0,27.594252680437823,9.0
subject-02,1,75,0.943243026733398,knife,knife,pow,pow_knife_35_n03041632_29858.png,True,0.7541346624563589,0.2144675403833389,1.0,-0.037527958553119155,2.508101463317871,0.0833333333333333,-3.4739748658316194,27.81505300104618,10.0,3.7301587301587302,9.0,27.630968831026358,9.0
subject-01,1,838,0.794728994369507,knife,knife,pow,pow_knife_35_n03041632_29858.png,True,-0.44633656165303326,0.2144675403833389,1.0,-0.037527958553119155,2.508101463317871,0.0833333333333333,-3.4739748658316194,27.81505300104618,10.0,3.7301587301587302,9.0,27.630968831026358,9.0
subject-04,1,973,0.984380960464478,knife,knife,pow,pow_knife_35_n03041632_29858.png,True,0.2216589338026608,0.2144675403833389,1.0,-0.037527958553119155,2.508101463317871,0.0833333333333333,-3.4739748658316194,27.81505300104618,10.0,3.7301587301587302,9.0,27.630968831026358,9.0
subject-03,1,1076,0.913618087768555,oven,knife,pow,pow_knife_35_n03041632_29858.png,False,0.04063480790794431,0.2144675403833389,1.0,-0.037527958553119155,2.508101463317871,0.0833333333333333,-3.4739748658316194,27.81505300104618,10.0,3.7301587301587302,9.0,27.630968831026358,9.0
subject-02,1,76,1.03901505470276,chair,chair,pow,pow_chair_35_n02791124_15457.png,True,1.2149706406228713,0.1355906128883361,1.0,-0.01886576179498081,2.546466588973999,0.0833333333333333,-3.5199298217682893,26.583196938037872,9.0,4.778846153846153,7.0,27.110119647574194,9.0
subject-01,1,1044,0.869422912597656,chair,chair,pow,pow_chair_35_n02791124_15457.png,True,-0.09016464366113158,0.1355906128883361,1.0,-0.01886576179498081,2.546466588973999,0.0833333333333333,-3.5199298217682893,26.583196938037872,9.0,4.778846153846153,7.0,27.110119647574194,9.0
subject-04,1,802,1.02091217041016,chair,chair,pow,pow_chair_35_n02791124_15457.png,True,0.37183563026231153,0.1355906128883361,1.0,-0.01886576179498081,2.546466588973999,0.0833333333333333,-3.5199298217682893,26.583196938037872,9.0,4.778846153846153,7.0,27.110119647574194,9.0
subject-03,1,448,0.775808811187744,chair,chair,pow,pow_chair_35_n02791124_15457.png,True,-0.6597710166727264,0.1355906128883361,1.0,-0.01886576179498081,2.546466588973999,0.0833333333333333,-3.5199298217682893,26.583196938037872,9.0,4.778846153846153,7.0,27.110119647574194,9.0
subject-02,1,77,0.754873991012573,knife,knife,pow,pow_knife_35_n03041632_37513.png,True,-0.1522597271503778,0.0110367480665445,1.0,-0.0010495923774638508,2.5411782264709473,0.1428571428571428,-2.926597334554178,24.16316343221115,9.0,6.601190476190476,5.0,20.69577105106512,5.0
subject-01,1,860,0.818706035614014,knife,knife,pow,pow_knife_35_n03041632_37513.png,True,-0.33200397647866686,0.0110367480665445,1.0,-0.0010495923774638508,2.5411782264709473,0.1428571428571428,-2.926597334554178,24.16316343221115,9.0,6.601190476190476,5.0,20.69577105106512,5.0
subject-04,1,385,0.561213970184326,knife,knife,pow,pow_knife_35_n03041632_37513.png,True,-1.51794456538442,0.0110367480665445,1.0,-0.0010495923774638508,2.5411782264709473,0.1428571428571428,-2.926597334554178,24.16316343221115,9.0,6.601190476190476,5.0,20.69577105106512,5.0
subject-03,1,1066,0.85769510269165,knife,knife,pow,pow_knife_35_n03041632_37513.png,True,-0.24358977731316575,0.0110367480665445,1.0,-0.0010495923774638508,2.5411782264709473,0.1428571428571428,-2.926597334554178,24.16316343221115,9.0,6.601190476190476,5.0,20.69577105106512,5.0
subject-02,1,78,0.968653917312622,oven,chair,pow,pow_chair_35_n03376595_6947.png,False,0.8764068212948986,2.2268123626708984,1.0,-1.1230622995512844,2.560699939727783,0.0769230769230769,-3.5382325014743152,30.538060188293457,10.0,2.9356893106893107,10.0,31.796634529933826,10.0
subject-01,1,620,0.967067003250122,oven,chair,pow,pow_chair_35_n03376595_6947.png,False,0.37544331844946327,2.2268123626708984,1.0,-1.1230622995512844,2.560699939727783,0.0769230769230769,-3.5382325014743152,30.538060188293457,10.0,2.9356893106893107,10.0,31.796634529933826,10.0
subject-04,1,227,1.50011897087097,knife,chair,pow,pow_chair_35_n03376595_6947.png,False,2.341814021922721,2.2268123626708984,1.0,-1.1230622995512844,2.560699939727783,0.0769230769230769,-3.5382325014743152,30.538060188293457,10.0,2.9356893106893107,10.0,31.796634529933826,10.0
subject-03,1,136,1.00679683685303,chair,chair,pow,pow_chair_35_n03376595_6947.png,True,0.5142091579455277,2.2268123626708984,1.0,-1.1230622995512844,2.560699939727783,0.0769230769230769,-3.5382325014743152,30.538060188293457,10.0,2.9356893106893107,10.0,31.796634529933826,10.0
subject-02,1,79,0.584660053253174,chair,chair,0,0_chair_35_n04429376_14680.png,True,-0.9712953909876328,0.0810911878943443,1.0,-0.009872732192803135,2.531938314437866,0.0833333333333333,-3.5245225397364397,25.510857820510864,9.0,4.888528138528138,7.0,25.44288759191362,6.0
subject-01,1,816,0.69690990447998,chair,chair,0,0_chair_35_n04429376_14680.png,True,-0.9127789934954308,0.0810911878943443,1.0,-0.009872732192803135,2.531938314437866,0.0833333333333333,-3.5245225397364397,25.510857820510864,9.0,4.888528138528138,7.0,25.44288759191362,6.0
subject-04,1,310,0.551690816879272,chair,chair,0,0_chair_35_n04429376_14680.png,True,-1.5570934385084771,0.0810911878943443,1.0,-0.009872732192803135,2.531938314437866,0.0833333333333333,-3.5245225397364397,25.510857820510864,9.0,4.888528138528138,7.0,25.44288759191362,6.0
subject-03,1,810,0.803106069564819,chair,chair,0,0_chair_35_n04429376_14680.png,True,-0.5210346468378888,0.0810911878943443,1.0,-0.009872732192803135,2.531938314437866,0.0833333333333333,-3.5245225397364397,25.510857820510864,9.0,4.888528138528138,7.0,25.44288759191362,6.0
subject-02,1,80,0.644323110580444,truck,truck,0,0_truck_35_n03417042_27326.png,True,-0.6842086082726114,0.1621343940496444,1.0,-0.02204086832887401,2.499856948852539,0.3333333333333333,-2.121368033888508,25.91365198791027,9.0,4.742857142857143,8.0,23.28095779565294,9.0
subject-01,1,233,1.17843890190125,truck,truck,0,0_truck_35_n03417042_27326.png,True,1.3833531501737601,0.1621343940496444,1.0,-0.02204086832887401,2.499856948852539,0.3333333333333333,-2.121368033888508,25.91365198791027,9.0,4.742857142857143,8.0,23.28095779565294,9.0
subject-04,1,301,0.945955991744995,car,truck,0,0_truck_35_n03417042_27326.png,False,0.06369715612167157,0.1621343940496444,1.0,-0.02204086832887401,2.499856948852539,0.3333333333333333,-2.121368033888508,25.91365198791027,9.0,4.742857142857143,8.0,23.28095779565294,9.0
subject-03,1,252,0.89446496963501,truck,truck,0,0_truck_35_n03417042_27326.png,True,-0.05670954968869477,0.1621343940496444,1.0,-0.02204086832887401,2.499856948852539,0.3333333333333333,-2.121368033888508,25.91365198791027,9.0,4.742857142857143,8.0,23.28095779565294,9.0
subject-02,1,81,1.40345096588135,clock,clock,0,0_clock_35_n03196217_3558.png,True,2.968563867872028,0.0303334705531597,1.0,-0.0032802918819468444,2.4800400733947754,0.1,-3.4072395647169795,26.165435027331114,9.0,2.6504329004329,9.0,34.252423913224156,9.0
subject-01,1,671,0.972975969314575,clock,clock,0,0_clock_35_n03196217_3558.png,True,0.4036197460147821,0.0303334705531597,1.0,-0.0032802918819468444,2.4800400733947754,0.1,-3.4072395647169795,26.165435027331114,9.0,2.6504329004329,9.0,34.252423913224156,9.0
subject-04,1,1048,0.746285915374756,clock,clock,0,0_clock_35_n03196217_3558.png,True,-0.757129542356542,0.0303334705531597,1.0,-0.0032802918819468444,2.4800400733947754,0.1,-3.4072395647169795,26.165435027331114,9.0,2.6504329004329,9.0,34.252423913224156,9.0
subject-03,1,371,1.30317401885986,keyboard,clock,0,0_clock_35_n03196217_3558.png,False,2.020525058447787,0.0303334705531597,1.0,-0.0032802918819468444,2.4800400733947754,0.1,-3.4072395647169795,26.165435027331114,9.0,2.6504329004329,9.0,34.252423913224156,9.0
subject-02,1,82,0.571319103240967,bird,bird,0,0_bird_35_n01795545_14302.png,True,-1.0354893929201465,0.7387197613716125,1.0,-0.1412357573515983,2.427103042602539,0.125,-3.410490985184728,26.642361342906952,9.0,3.602380952380952,8.0,31.887839233845288,9.0
subject-01,1,68,0.824527025222778,bird,bird,0,0_bird_35_n01795545_14302.png,True,-0.30424705753873815,0.7387197613716125,1.0,-0.1412357573515983,2.427103042602539,0.125,-3.410490985184728,26.642361342906952,9.0,3.602380952380952,8.0,31.887839233845288,9.0
subject-04,1,1070,1.22214698791504,bird,bird,0,0_bird_35_n01795545_14302.png,True,1.1990948464360598,0.7387197613716125,1.0,-0.1412357573515983,2.427103042602539,0.125,-3.410490985184728,26.642361342906952,9.0,3.602380952380952,8.0,31.887839233845288,9.0
subject-03,1,399,0.808027982711792,bird,bird,0,0_bird_35_n01795545_14302.png,True,-0.49601937412365643,0.7387197613716125,1.0,-0.1412357573515983,2.427103042602539,0.125,-3.410490985184728,26.642361342906952,9.0,3.602380952380952,8.0,31.887839233845288,9.0
subject-02,1,83,0.535310983657837,truck,truck,0,0_truck_35_n03796401_5873.png,True,-1.2087533131050354,0.0881871879100799,1.0,-0.01084302084742124,2.488037586212158,0.2,-2.4077211660601403,25.89317861199379,9.0,4.526190476190476,8.0,23.222364753596356,9.0
subject-01,1,945,0.746092081069946,truck,truck,0,0_truck_35_n03796401_5873.png,True,-0.6782577555874291,0.0881871879100799,1.0,-0.01084302084742124,2.488037586212158,0.2,-2.4077211660601403,25.89317861199379,9.0,4.526190476190476,8.0,23.222364753596356,9.0
subject-04,1,804,0.592598915100098,truck,truck,0,0_truck_35_n03796401_5873.png,True,-1.388923726681653,0.0881871879100799,1.0,-0.01084302084742124,2.488037586212158,0.2,-2.4077211660601403,25.89317861199379,9.0,4.526190476190476,8.0,23.222364753596356,9.0
subject-03,1,99,0.775753021240234,truck,truck,0,0_truck_35_n03796401_5873.png,True,-0.6600545651039972,0.0881871879100799,1.0,-0.01084302084742124,2.488037586212158,0.2,-2.4077211660601403,25.89317861199379,9.0,4.526190476190476,8.0,23.222364753596356,9.0
subject-02,1,84,0.627130031585693,truck,truck,0,0_truck_35_n04467665_2098.png,True,-0.766938289832397,0.0338603071868419,1.0,-0.003699102576964166,2.441880702972412,0.2,-2.4244490190669072,25.403467249125242,9.0,5.109523809523809,7.0,23.003940200559846,9.0
subject-01,1,229,0.755331993103027,truck,truck,0,0_truck_35_n04467665_2098.png,True,-0.6341979811243097,0.0338603071868419,1.0,-0.003699102576964166,2.441880702972412,0.2,-2.4244490190669072,25.403467249125242,9.0,5.109523809523809,7.0,23.003940200559846,9.0
subject-04,1,522,0.666311979293823,truck,truck,0,0_truck_35_n04467665_2098.png,True,-1.0858955903841785,0.0338603071868419,1.0,-0.003699102576964166,2.441880702972412,0.2,-2.4244490190669072,25.403467249125242,9.0,5.109523809523809,7.0,23.003940200559846,9.0
subject-03,1,692,0.949910163879395,truck,truck,0,0_truck_35_n04467665_2098.png,True,0.2250866976851291,0.0338603071868419,1.0,-0.003699102576964166,2.441880702972412,0.2,-2.4244490190669072,25.403467249125242,9.0,5.109523809523809,7.0,23.003940200559846,9.0
subject-02,1,85,0.584758043289185,boat,boat,0,0_boat_35_n04612504_2089.png,True,-0.9708238823952688,0.0635173618793487,1.0,-0.007440942973080165,2.4053049087524414,0.5,-1.774644577541395,23.455395743250847,8.0,7.2,5.0,19.184493768103412,8.0
subject-01,1,654,0.610259056091309,boat,boat,0,0_boat_35_n04612504_2089.png,True,-1.3259665675084857,0.0635173618793487,1.0,-0.007440942973080165,2.4053049087524414,0.5,-1.774644577541395,23.455395743250847,8.0,7.2,5.0,19.184493768103412,8.0
subject-04,1,999,0.606092929840088,boat,boat,0,0_boat_35_n04612504_2089.png,True,-1.333450979990736,0.0635173618793487,1.0,-0.007440942973080165,2.4053049087524414,0.5,-1.774644577541395,23.455395743250847,8.0,7.2,5.0,19.184493768103412,8.0
subject-03,1,704,0.659861087799072,boat,boat,0,0_boat_35_n04612504_2089.png,True,-1.24906705554042,0.0635173618793487,1.0,-0.007440942973080165,2.4053049087524414,0.5,-1.774644577541395,23.455395743250847,8.0,7.2,5.0,19.184493768103412,8.0
subject-02,1,86,0.628657817840576,airplane,airplane,0,0_airplane_35_n02690373_3493.png,True,-0.7595868857938027,0.0132158510386943,1.0,-0.0012841718024271588,2.366014003753662,1.0,-1.4379955724963374,23.175413198885508,8.0,7.66068931068931,3.0,20.699225518104125,8.0
subject-01,1,732,0.777602910995483,airplane,airplane,0,0_airplane_35_n02690373_3493.png,True,-0.5280009073951283,0.0132158510386943,1.0,-0.0012841718024271588,2.366014003753662,1.0,-1.4379955724963374,23.175413198885508,8.0,7.66068931068931,3.0,20.699225518104125,8.0
subject-04,1,841,0.831704139709473,airplane,airplane,0,0_airplane_35_n02690373_3493.png,True,-0.4059824884508339,0.0132158510386943,1.0,-0.0012841718024271588,2.366014003753662,1.0,-1.4379955724963374,23.175413198885508,8.0,7.66068931068931,3.0,20.699225518104125,8.0
subject-03,1,1109,0.977516174316406,airplane,airplane,0,0_airplane_35_n02690373_3493.png,True,0.36539227785540956,0.0132158510386943,1.0,-0.0012841718024271588,2.366014003753662,1.0,-1.4379955724963374,23.175413198885508,8.0,7.66068931068931,3.0,20.699225518104125,8.0
subject-02,1,87,0.758462905883789,chair,chair,pow,pow_chair_35_n04099969_7934.png,True,-0.13499058155222643,1.0964601039886477,1.0,-0.26736442537473226,2.571399688720703,0.0714285714285714,-3.705205904781787,29.222474813461304,10.0,4.538095238095238,7.0,29.042732808680977,6.0
subject-01,1,16,0.856220006942749,chair,chair,pow,pow_chair_35_n04099969_7934.png,True,-0.15312163322232683,1.0964601039886477,1.0,-0.26736442537473226,2.571399688720703,0.0714285714285714,-3.705205904781787,29.222474813461304,10.0,4.538095238095238,7.0,29.042732808680977,6.0
subject-04,1,672,0.673013925552368,chair,chair,pow,pow_chair_35_n04099969_7934.png,True,-1.0583444594346445,1.0964601039886477,1.0,-0.26736442537473226,2.571399688720703,0.0714285714285714,-3.705205904781787,29.222474813461304,10.0,4.538095238095238,7.0,29.042732808680977,6.0
subject-03,1,724,0.803605079650879,chair,chair,pow,pow_chair_35_n04099969_7934.png,True,-0.5184984636470861,1.0964601039886477,1.0,-0.26736442537473226,2.571399688720703,0.0714285714285714,-3.705205904781787,29.222474813461304,10.0,4.538095238095238,7.0,29.042732808680977,6.0
subject-02,1,88,0.760398149490356,boat,boat,pow,pow_boat_35_n02951358_28889.png,True,-0.12567857365877222,0.0471984110772609,1.0,-0.005705269065708861,2.5046534538269043,0.5,-1.9395004075172018,27.055364724248648,9.0,6.309523809523809,6.0,23.305697502405202,9.0
subject-01,1,1061,0.588079929351807,boat,boat,pow,pow_boat_35_n02951358_28889.png,True,-1.4317259425363833,0.0471984110772609,1.0,-0.005705269065708861,2.5046534538269043,0.5,-1.9395004075172018,27.055364724248648,9.0,6.309523809523809,6.0,23.305697502405202,9.0
subject-04,1,621,0.922389030456543,boat,boat,pow,pow_boat_35_n02951358_28889.png,True,-0.03318461694729114,0.0471984110772609,1.0,-0.005705269065708861,2.5046534538269043,0.5,-1.9395004075172018,27.055364724248648,9.0,6.309523809523809,6.0,23.305697502405202,9.0
subject-03,1,858,0.690600156784058,boat,boat,pow,pow_boat_35_n02951358_28889.png,True,-1.092837928638022,0.0471984110772609,1.0,-0.005705269065708861,2.5046534538269043,0.5,-1.9395004075172018,27.055364724248648,9.0,6.309523809523809,6.0,23.305697502405202,9.0
subject-02,1,89,0.606158971786499,keyboard,keyboard,pow,pow_keyboard_35_n03085013_24591.png,True,-0.8678468647123363,0.0253421850502491,1.0,-0.002651209277088383,2.5540542602539062,0.1,-3.2571953568997425,24.622274864465,9.0,5.088636363636364,6.0,25.28304538359466,6.0
subject-01,1,955,1.25418996810913,keyboard,keyboard,pow,pow_keyboard_35_n03085013_24591.png,True,1.744565992948747,0.0253421850502491,1.0,-0.002651209277088383,2.5540542602539062,0.1,-3.2571953568997425,24.622274864465,9.0,5.088636363636364,6.0,25.28304538359466,6.0
subject-04,1,262,0.605061054229736,keyboard,keyboard,pow,pow_keyboard_35_n03085013_24591.png,True,-1.3376929328455787,0.0253421850502491,1.0,-0.002651209277088383,2.5540542602539062,0.1,-3.2571953568997425,24.622274864465,9.0,5.088636363636364,6.0,25.28304538359466,6.0
subject-03,1,414,0.722378015518188,keyboard,keyboard,pow,pow_keyboard_35_n03085013_24591.png,True,-0.9313292268850252,0.0253421850502491,1.0,-0.002651209277088383,2.5540542602539062,0.1,-3.2571953568997425,24.622274864465,9.0,5.088636363636364,6.0,25.28304538359466,6.0
subject-02,1,90,0.625967979431152,elephant,elephant,0,0_elephant_35_n02504013_2476.png,True,-0.7725298540153098,0.0349025279283523,1.0,-0.0037803489562949644,2.484819173812866,0.5,-2.0206039060899337,24.365256975404918,9.0,8.333333333333332,1.0,19.687816415618105,0.0
subject-01,1,341,0.82230019569397,elephant,elephant,0,0_elephant_35_n02504013_2476.png,True,-0.3148655143439358,0.0349025279283523,1.0,-0.0037803489562949644,2.484819173812866,0.5,-2.0206039060899337,24.365256975404918,9.0,8.333333333333332,1.0,19.687816415618105,0.0
subject-04,1,221,1.12686586380005,elephant,elephant,0,0_elephant_35_n02504013_2476.png,True,0.8074022505481299,0.0349025279283523,1.0,-0.0037803489562949644,2.484819173812866,0.5,-2.0206039060899337,24.365256975404918,9.0,8.333333333333332,1.0,19.687816415618105,0.0
subject-03,1,709,0.896538972854614,elephant,elephant,0,0_elephant_35_n02504013_2476.png,True,-0.04616857616897738,0.0349025279283523,1.0,-0.0037803489562949644,2.484819173812866,0.5,-2.0206039060899337,24.365256975404918,9.0,8.333333333333332,1.0,19.687816415618105,0.0
subject-02,1,91,0.731698989868164,elephant,elephant,pow,pow_elephant_35_n02504013_213.png,True,-0.2637732300785016,0.0633465349674224,1.0,-0.007422087509336569,2.4582061767578125,0.3333333333333333,-2.0837791266951347,25.49491322040558,9.0,6.083333333333333,1.0,22.904565662691013,9.0
subject-01,1,221,0.708851099014282,elephant,elephant,pow,pow_elephant_35_n02504013_213.png,True,-0.8558383715373512,0.0633465349674224,1.0,-0.007422087509336569,2.4582061767578125,0.3333333333333333,-2.0837791266951347,25.49491322040558,9.0,6.083333333333333,1.0,22.904565662691013,9.0
subject-04,1,1084,1.0754611492157,elephant,elephant,pow,pow_elephant_35_n02504013_213.png,True,0.5960818417741695,0.0633465349674224,1.0,-0.007422087509336569,2.4582061767578125,0.3333333333333333,-2.0837791266951347,25.49491322040558,9.0,6.083333333333333,1.0,22.904565662691013,9.0
subject-03,1,27,1.08074402809143,elephant,elephant,pow,pow_elephant_35_n02504013_213.png,True,0.8900404861390604,0.0633465349674224,1.0,-0.007422087509336569,2.4582061767578125,0.3333333333333333,-2.0837791266951347,25.49491322040558,9.0,6.083333333333333,1.0,22.904565662691013,9.0
subject-02,1,92,0.723632097244263,elephant,elephant,pow,pow_elephant_35_n02504458_6120.png,True,-0.30258951529164196,0.0653891563415527,1.0,-0.007713245899574826,2.442664623260498,0.25,-2.24516353195488,25.400573007762432,9.0,6.194444444444445,1.0,23.353501758769653,9.0
subject-01,1,1054,0.877437114715576,bear,elephant,pow,pow_elephant_35_n02504458_6120.png,False,-0.051949567959846704,0.0653891563415527,1.0,-0.007713245899574826,2.442664623260498,0.25,-2.24516353195488,25.400573007762432,9.0,6.194444444444445,1.0,23.353501758769653,9.0
subject-04,1,185,1.16982102394104,elephant,elephant,pow,pow_elephant_35_n02504458_6120.png,True,0.9839872597898411,0.0653891563415527,1.0,-0.007713245899574826,2.442664623260498,0.25,-2.24516353195488,25.400573007762432,9.0,6.194444444444445,1.0,23.353501758769653,9.0
subject-03,1,1006,0.901531934738159,bear,elephant,pow,pow_elephant_35_n02504458_6120.png,False,-0.020792203315779433,0.0653891563415527,1.0,-0.007713245899574826,2.442664623260498,0.25,-2.24516353195488,25.400573007762432,9.0,6.194444444444445,1.0,23.353501758769653,9.0
subject-02,1,93,0.819658041000366,bird,bird,0,0_bird_35_n02007558_7112.png,True,0.15946825521273517,0.5200830101966858,1.0,-0.09122109577543473,2.4017467498779297,0.0909090909090909,-3.580773104743315,26.79915601015091,9.0,3.3051948051948052,8.0,34.047136600683835,9.0
subject-01,1,429,1.14315605163574,bird,bird,0,0_bird_35_n02007558_7112.png,True,1.2151097275579696,0.5200830101966858,1.0,-0.09122109577543473,2.4017467498779297,0.0909090909090909,-3.580773104743315,26.79915601015091,9.0,3.3051948051948052,8.0,34.047136600683835,9.0
subject-04,1,271,1.45539402961731,bird,bird,0,0_bird_35_n02007558_7112.png,True,2.1579535930780835,0.5200830101966858,1.0,-0.09122109577543473,2.4017467498779297,0.0909090909090909,-3.580773104743315,26.79915601015091,9.0,3.3051948051948052,8.0,34.047136600683835,9.0
