subject_id,Session,trial,rt,object_response,category,condition,item_id,response_correct,rt_zscore,output_entropy,output_rank_correct,output_logprob_correct,midpoint_entropy,midpoint_rank_correct,midpoint_logprob_correct,auc_entropy,layer_biggest_change_entropy,auc_rank_correct,layer_biggest_change_rank_correct,auc_logprob_correct,layer_biggest_change_logprob_correct
subject-03,1,1,1.02795696258545,boat,bottle,60,60_bottle_10_n02823428_889.png,False,1.0785328641467875,2.679940700531006,0.3333333333333333,-2.3632767480681447,2.538184642791748,0.1428571428571428,-2.9604630579237976,31.289042472839355,4.0,0.9229908979908976,10.0,35.935297804960484,0.0
subject-04,1,793,1.16246008872986,bottle,bottle,60,60_bottle_10_n02823428_889.png,True,0.9898129459715913,2.679940700531006,0.3333333333333333,-2.3632767480681447,2.538184642791748,0.1428571428571428,-2.9604630579237976,31.289042472839355,4.0,0.9229908979908976,10.0,35.935297804960484,0.0
subject-01,1,378,1.34938097000122,knife,bottle,60,60_bottle_10_n02823428_889.png,False,1.7908549887667458,2.679940700531006,0.3333333333333333,-2.3632767480681447,2.538184642791748,0.1428571428571428,-2.9604630579237976,31.289042472839355,4.0,0.9229908979908976,10.0,35.935297804960484,0.0
subject-02,1,969,1.32844090461731,bottle,bottle,60,60_bottle_10_n02823428_889.png,True,1.452359218566317,2.679940700531006,0.3333333333333333,-2.3632767480681447,2.538184642791748,0.1428571428571428,-2.9604630579237976,31.289042472839355,4.0,0.9229908979908976,10.0,35.935297804960484,0.0
subject-03,1,2,0.91179895401001,airplane,airplane,90,90_airplane_10_n02690373_1696.png,True,0.472583919724143,0.2899185121059418,1.0,-0.045355400550493315,2.5658679008483887,0.25,-2.212600049057396,26.75676879286766,9.0,3.9634670884670884,8.0,27.07891583333,9.0
subject-04,1,458,0.853744983673096,airplane,airplane,90,90_airplane_10_n02690373_1696.png,True,-0.25759990177617464,0.2899185121059418,1.0,-0.045355400550493315,2.5658679008483887,0.25,-2.212600049057396,26.75676879286766,9.0,3.9634670884670884,8.0,27.07891583333,9.0
subject-01,1,1104,0.878026008605957,boat,airplane,90,90_airplane_10_n02690373_1696.png,False,-0.5160953769961021,0.2899185121059418,1.0,-0.045355400550493315,2.5658679008483887,0.25,-2.212600049057396,26.75676879286766,9.0,3.9634670884670884,8.0,27.07891583333,9.0
subject-02,1,133,0.77525782585144,airplane,airplane,90,90_airplane_10_n02690373_1696.png,True,-1.0533116948171666,0.2899185121059418,1.0,-0.045355400550493315,2.5658679008483887,0.25,-2.212600049057396,26.75676879286766,9.0,3.9634670884670884,8.0,27.07891583333,9.0
subject-03,1,3,0.539807081222534,knife,knife,30,30_knife_10_n03041632_20770.png,True,-1.4679459276258133,0.0372276976704597,1.0,-0.004173811216477287,2.519479751586914,0.125,-2.836223377999947,25.846232898533344,9.0,5.116666666666667,8.0,22.685406344729678,9.0
subject-04,1,443,0.770473957061768,knife,knife,30,30_knife_10_n03041632_20770.png,True,-0.5940698274087974,0.0372276976704597,1.0,-0.004173811216477287,2.519479751586914,0.125,-2.836223377999947,25.846232898533344,9.0,5.116666666666667,8.0,22.685406344729678,9.0
subject-01,1,1004,0.779371023178101,knife,knife,30,30_knife_10_n03041632_20770.png,True,-0.9989420071523283,0.0372276976704597,1.0,-0.004173811216477287,2.519479751586914,0.125,-2.836223377999947,25.846232898533344,9.0,5.116666666666667,8.0,22.685406344729678,9.0
subject-02,1,825,0.880974769592285,knife,knife,30,30_knife_10_n03041632_20770.png,True,-0.5744614169413554,0.0372276976704597,1.0,-0.004173811216477287,2.519479751586914,0.125,-2.836223377999947,25.846232898533344,9.0,5.116666666666667,8.0,22.685406344729678,9.0
subject-03,1,4,0.937772989273071,bottle,truck,150,150_truck_10_n03417042_1279.png,False,0.6080798656608065,2.608323097229004,0.0666666666666666,-3.5807501012616276,2.589907169342041,0.1666666666666666,-2.7276723379815273,31.01542067527771,5.0,0.889285714285714,0.0,36.34233694500103,0.0
subject-04,1,93,0.827719211578369,car,truck,150,150_truck_10_n03417042_1279.png,False,-0.3627612040634352,2.608323097229004,0.0666666666666666,-3.5807501012616276,2.589907169342041,0.1666666666666666,-2.7276723379815273,31.01542067527771,5.0,0.889285714285714,0.0,36.34233694500103,0.0
subject-01,1,738,0.90661096572876,cat,truck,150,150_truck_10_n03417042_1279.png,False,-0.37619215608894585,2.608323097229004,0.0666666666666666,-3.5807501012616276,2.589907169342041,0.1666666666666666,-2.7276723379815273,31.01542067527771,5.0,0.889285714285714,0.0,36.34233694500103,0.0
subject-02,1,358,0.758599042892456,bird,truck,150,150_truck_10_n03417042_1279.png,False,-1.128768500194905,2.608323097229004,0.0666666666666666,-3.5807501012616276,2.589907169342041,0.1666666666666666,-2.7276723379815273,31.01542067527771,5.0,0.889285714285714,0.0,36.34233694500103,0.0
subject-03,1,5,0.601234912872314,bicycle,bicycle,30,30_bicycle_10_n03792782_8374.png,True,-1.147501989210824,0.0503869764506816,1.0,-0.005850348128057055,2.474769592285156,0.5,-1.9114937959490135,25.162142921239138,9.0,7.833333333333333,6.0,18.95356371369277,9.0
subject-04,1,365,0.885355949401855,bicycle,bicycle,30,30_bicycle_10_n03792782_8374.png,True,-0.12987072968879695,0.0503869764506816,1.0,-0.005850348128057055,2.474769592285156,0.5,-1.9114937959490135,25.162142921239138,9.0,7.833333333333333,6.0,18.95356371369277,9.0
subject-01,1,270,0.782862901687622,bicycle,bicycle,30,30_bicycle_10_n03792782_8374.png,True,-0.9818517226226114,0.0503869764506816,1.0,-0.005850348128057055,2.474769592285156,0.5,-1.9114937959490135,25.162142921239138,9.0,7.833333333333333,6.0,18.95356371369277,9.0
subject-02,1,272,0.833448171615601,bicycle,bicycle,30,30_bicycle_10_n03792782_8374.png,True,-0.7897355616746392,0.0503869764506816,1.0,-0.005850348128057055,2.474769592285156,0.5,-1.9114937959490135,25.162142921239138,9.0,7.833333333333333,6.0,18.95356371369277,9.0
subject-03,1,6,0.961323976516724,elephant,elephant,30,30_elephant_10_n02504458_7033.png,True,0.7309357585554789,0.0407449752092361,1.0,-0.004493961347352666,2.4504928588867188,0.3333333333333333,-1.981018001841597,24.43916804715991,9.0,7.583333333333333,1.0,19.545439873227302,0.0
subject-04,1,926,0.776942014694214,elephant,elephant,30,30_elephant_10_n02504458_7033.png,True,-0.5679346041608047,0.0407449752092361,1.0,-0.004493961347352666,2.4504928588867188,0.3333333333333333,-1.981018001841597,24.43916804715991,9.0,7.583333333333333,1.0,19.545439873227302,0.0
subject-01,1,807,0.92778491973877,elephant,elephant,30,30_elephant_10_n02504458_7033.png,True,-0.27256057278398826,0.0407449752092361,1.0,-0.004493961347352666,2.4504928588867188,0.3333333333333333,-1.981018001841597,24.43916804715991,9.0,7.583333333333333,1.0,19.545439873227302,0.0
subject-02,1,437,0.933151960372925,elephant,elephant,30,30_elephant_10_n02504458_7033.png,True,-0.3381221753781756,0.0407449752092361,1.0,-0.004493961347352666,2.4504928588867188,0.3333333333333333,-1.981018001841597,24.43916804715991,9.0,7.583333333333333,1.0,19.545439873227302,0.0
subject-03,1,7,0.928899765014648,boat,car,180,180_car_10_n04285008_11770.png,False,0.5617918745101591,2.626685380935669,0.0909090909090909,-3.169212209083567,2.5619096755981445,0.0666666666666666,-3.953850121643931,30.96378254890442,5.0,0.10665584415584388,7.0,46.234762212410374,7.0
subject-04,1,682,1.34943819046021,keyboard,car,180,180_car_10_n04285008_11770.png,False,1.7453279257230403,2.626685380935669,0.0909090909090909,-3.169212209083567,2.5619096755981445,0.0666666666666666,-3.953850121643931,30.96378254890442,5.0,0.10665584415584388,7.0,46.234762212410374,7.0
subject-01,1,457,0.886377096176147,keyboard,car,180,180_car_10_n04285008_11770.png,False,-0.4752226884652777,2.626685380935669,0.0909090909090909,-3.169212209083567,2.5619096755981445,0.0666666666666666,-3.953850121643931,30.96378254890442,5.0,0.10665584415584388,7.0,46.234762212410374,7.0
subject-02,1,31,1.2005090713501,car,car,180,180_car_10_n04285008_11770.png,True,0.8728854677989955,2.626685380935669,0.0909090909090909,-3.169212209083567,2.5619096755981445,0.0666666666666666,-3.953850121643931,30.96378254890442,5.0,0.10665584415584388,7.0,46.234762212410374,7.0
subject-03,1,8,0.857043981552124,bottle,bottle,30,30_bottle_10_n04591713_5558.png,True,0.18694956554012923,0.0091247893869876,1.0,-0.0009298474001141502,2.5262389183044434,0.2,-2.6906885892491217,24.594131588935852,9.0,4.521367521367521,7.0,25.736221010190558,8.0
subject-04,1,625,0.616239070892334,bottle,bottle,30,30_bottle_10_n04591713_5558.png,True,-1.2172805982043837,0.0091247893869876,1.0,-0.0009298474001141502,2.5262389183044434,0.2,-2.6906885892491217,24.594131588935852,9.0,4.521367521367521,7.0,25.736221010190558,8.0
subject-01,1,934,0.707885980606079,bottle,bottle,30,30_bottle_10_n04591713_5558.png,True,-1.3488109140583675,0.0091247893869876,1.0,-0.0009298474001141502,2.5262389183044434,0.2,-2.6906885892491217,24.594131588935852,9.0,4.521367521367521,7.0,25.736221010190558,8.0
subject-02,1,917,0.749072074890137,bottle,bottle,30,30_bottle_10_n04591713_5558.png,True,-1.1719213867029346,0.0091247893869876,1.0,-0.0009298474001141502,2.5262389183044434,0.2,-2.6906885892491217,24.594131588935852,9.0,4.521367521367521,7.0,25.736221010190558,8.0
subject-03,1,9,0.71644401550293,boat,airplane,150,150_airplane_10_n02690373_9432.png,False,-0.5465030999989584,2.6533610820770264,0.0625,-3.7911402477749645,2.5432393550872803,0.25,-2.392743073223889,30.91329002380371,9.0,0.5626373626373624,4.0,39.26755399739266,3.0
subject-04,1,579,1.05884885787964,elephant,airplane,150,150_airplane_10_n02690373_9432.png,False,0.5711551659780941,2.6533610820770264,0.0625,-3.7911402477749645,2.5432393550872803,0.25,-2.392743073223889,30.91329002380371,9.0,0.5626373626373624,4.0,39.26755399739266,3.0
subject-01,1,70,1.37905287742615,oven,airplane,150,150_airplane_10_n02690373_9432.png,False,1.9360780654141176,2.6533610820770264,0.0625,-3.7911402477749645,2.5432393550872803,0.25,-2.392743073223889,30.91329002380371,9.0,0.5626373626373624,4.0,39.26755399739266,3.0
subject-02,1,828,1.12220692634583,cat,airplane,150,150_airplane_10_n02690373_9432.png,False,0.5182119162680113,2.6533610820770264,0.0625,-3.7911402477749645,2.5432393550872803,0.25,-2.392743073223889,30.91329002380371,9.0,0.5626373626373624,4.0,39.26755399739266,3.0
subject-03,1,10,0.708317995071411,airplane,airplane,60,60_airplane_10_n02690373_10399.png,True,-0.5888932336042351,0.0354230031371116,1.0,-0.0038839805744664093,2.48218297958374,0.3333333333333333,-2.036566678320455,25.481777392327785,9.0,5.468589743589743,6.0,25.942283124194955,9.0
subject-04,1,1084,0.769173860549927,airplane,airplane,60,60_airplane_10_n02690373_10399.png,True,-0.5993230756808066,0.0354230031371116,1.0,-0.0038839805744664093,2.48218297958374,0.3333333333333333,-2.036566678320455,25.481777392327785,9.0,5.468589743589743,6.0,25.942283124194955,9.0
subject-01,1,755,0.869451999664307,airplane,airplane,60,60_airplane_10_n02690373_10399.png,True,-0.5580591085444941,0.0354230031371116,1.0,-0.0038839805744664093,2.48218297958374,0.3333333333333333,-2.036566678320455,25.481777392327785,9.0,5.468589743589743,6.0,25.942283124194955,9.0
subject-02,1,36,0.862127065658569,airplane,airplane,60,60_airplane_10_n02690373_10399.png,True,-0.6598330512945526,0.0354230031371116,1.0,-0.0038839805744664093,2.48218297958374,0.3333333333333333,-2.036566678320455,25.481777392327785,9.0,5.468589743589743,6.0,25.942283124194955,9.0
subject-03,1,11,0.704149007797241,clock,bear,120,120_bear_10_n02132136_3616.png,False,-0.6106411394875741,2.6527297496795654,1.0,-1.8146724552452178,2.5099844932556152,1.0,-1.5808902949850077,31.07199764251709,5.0,9.75,3.0,22.50141277611741,10.0
subject-04,1,904,0.982696056365967,car,bear,120,120_bear_10_n02132136_3616.png,False,0.2634475694137002,2.6527297496795654,1.0,-1.8146724552452178,2.5099844932556152,1.0,-1.5808902949850077,31.07199764251709,5.0,9.75,3.0,22.50141277611741,10.0
subject-01,1,986,0.932589054107666,car,bear,120,120_bear_10_n02132136_3616.png,False,-0.24904772058722346,2.6527297496795654,1.0,-1.8146724552452178,2.5099844932556152,1.0,-1.5808902949850077,31.07199764251709,5.0,9.75,3.0,22.50141277611741,10.0
subject-02,1,267,0.836396932601929,car,bear,120,120_bear_10_n02132136_3616.png,False,-0.7763789986892966,2.6527297496795654,1.0,-1.8146724552452178,2.5099844932556152,1.0,-1.5808902949850077,31.07199764251709,5.0,9.75,3.0,22.50141277611741,10.0
subject-03,1,12,0.930129051208496,knife,knife,0,0_knife_10_n03041632_62810.png,True,0.5682045590998037,1.42641282081604,1.0,-0.3909328504164832,2.505207061767578,0.0833333333333333,-3.519641734338712,29.743244647979736,10.0,3.3289682539682537,9.0,28.81608728230388,9.0
subject-04,1,102,,na,knife,0,0_knife_10_n03041632_62810.png,False,,1.42641282081604,1.0,-0.3909328504164832,2.505207061767578,0.0833333333333333,-3.519641734338712,29.743244647979736,10.0,3.3289682539682537,9.0,28.81608728230388,9.0
subject-01,1,516,0.956422805786133,knife,knife,0,0_knife_10_n03041632_62810.png,True,-0.13239830209084494,1.42641282081604,1.0,-0.3909328504164832,2.505207061767578,0.0833333333333333,-3.519641734338712,29.743244647979736,10.0,3.3289682539682537,9.0,28.81608728230388,9.0
subject-02,1,593,1.50003790855408,oven,knife,0,0_knife_10_n03041632_62810.png,False,2.2296165825250127,1.42641282081604,1.0,-0.3909328504164832,2.505207061767578,0.0833333333333333,-3.519641734338712,29.743244647979736,10.0,3.3289682539682537,9.0,28.81608728230388,9.0
subject-03,1,13,0.789925098419189,boat,bird,180,180_bird_10_n01534433_10801.png,False,-0.16318226681488932,2.576695442199707,0.2,-2.7520646902288712,2.528585433959961,0.1111111111111111,-2.9607628095034157,30.71181631088257,10.0,0.6230158730158728,7.0,38.47350114036708,3.0
subject-04,1,558,0.684673070907593,bottle,bird,180,180_bird_10_n01534433_10801.png,False,-0.9407620558865123,2.576695442199707,0.2,-2.7520646902288712,2.528585433959961,0.1111111111111111,-2.9607628095034157,30.71181631088257,10.0,0.6230158730158728,7.0,38.47350114036708,3.0
subject-01,1,87,1.06535315513611,bird,bird,180,180_bird_10_n01534433_10801.png,True,0.40073899327513,2.576695442199707,0.2,-2.7520646902288712,2.528585433959961,0.1111111111111111,-2.9607628095034157,30.71181631088257,10.0,0.6230158730158728,7.0,38.47350114036708,3.0
subject-02,1,651,1.16071200370789,airplane,bird,180,180_bird_10_n01534433_10801.png,False,0.692622624164102,2.576695442199707,0.2,-2.7520646902288712,2.528585433959961,0.1111111111111111,-2.9607628095034157,30.71181631088257,10.0,0.6230158730158728,7.0,38.47350114036708,3.0
subject-03,1,14,0.875602006912231,keyboard,keyboard,0,0_keyboard_10_n04505470_9514.png,True,0.28375921315234837,0.001602109754458,1.0,-0.00012762168776517003,2.5436530113220215,0.2,-2.609694401631698,22.350005146610783,8.0,5.913636363636364,5.0,22.863448813201018,6.0
subject-04,1,861,0.647369861602783,keyboard,keyboard,0,0_keyboard_10_n04505470_9514.png,True,-1.0914916502174667,0.001602109754458,1.0,-0.00012762168776517003,2.5436530113220215,0.2,-2.609694401631698,22.350005146610783,8.0,5.913636363636364,5.0,22.863448813201018,6.0
subject-01,1,1085,0.94375205039978,keyboard,keyboard,0,0_keyboard_10_n04505470_9514.png,True,-0.19441272045299005,0.001602109754458,1.0,-0.00012762168776517003,2.5436530113220215,0.2,-2.609694401631698,22.350005146610783,8.0,5.913636363636364,5.0,22.863448813201018,6.0
subject-02,1,291,0.891776084899902,keyboard,keyboard,0,0_keyboard_10_n04505470_9514.png,True,-0.5255363094471791,0.001602109754458,1.0,-0.00012762168776517003,2.5436530113220215,0.2,-2.609694401631698,22.350005146610783,8.0,5.913636363636364,5.0,22.863448813201018,6.0
subject-03,1,15,0.805247068405151,boat,bottle,60,60_bottle_10_n03983396_2205.png,False,-0.0832537999503828,2.0832979679107666,0.125,-3.4757870117077103,2.4847159385681152,0.1428571428571428,-3.1703396470545893,30.318702459335327,10.0,0.6209706959706958,0.0,37.984821771424826,0.0
subject-04,1,856,0.698430061340332,keyboard,bottle,60,60_bottle_10_n03983396_2205.png,False,-0.8851747317450959,2.0832979679107666,0.125,-3.4757870117077103,2.4847159385681152,0.1428571428571428,-3.1703396470545893,30.318702459335327,10.0,0.6209706959706958,0.0,37.984821771424826,0.0
subject-01,1,61,0.848675012588501,boat,bottle,60,60_bottle_10_n03983396_2205.png,False,-0.6597478184545333,2.0832979679107666,0.125,-3.4757870117077103,2.4847159385681152,0.1428571428571428,-3.1703396470545893,30.318702459335327,10.0,0.6209706959706958,0.0,37.984821771424826,0.0
subject-02,1,41,1.15661787986755,boat,bottle,60,60_bottle_10_n03983396_2205.png,False,0.674078081830276,2.0832979679107666,0.125,-3.4757870117077103,2.4847159385681152,0.1428571428571428,-3.1703396470545893,30.318702459335327,10.0,0.6209706959706958,0.0,37.984821771424826,0.0
subject-03,1,16,0.687397956848145,bird,bird,90,90_bird_10_n01530575_35115.png,True,-0.6980245387474061,0.5543153882026672,1.0,-0.09815217038822094,2.508432149887085,0.1111111111111111,-3.127822545167219,27.194752395153046,9.0,3.545177045177045,8.0,31.315794917976458,9.0
subject-04,1,186,0.799909114837646,bird,bird,90,90_bird_10_n01530575_35115.png,True,-0.4751323559871725,0.5543153882026672,1.0,-0.09815217038822094,2.508432149887085,0.1111111111111111,-3.127822545167219,27.194752395153046,9.0,3.545177045177045,8.0,31.315794917976458,9.0
subject-01,1,714,1.06762003898621,bird,bird,90,90_bird_10_n01530575_35115.png,True,0.4118337922174179,0.5543153882026672,1.0,-0.09815217038822094,2.508432149887085,0.1111111111111111,-3.127822545167219,27.194752395153046,9.0,3.545177045177045,8.0,31.315794917976458,9.0
subject-02,1,478,0.66957688331604,cat,bird,90,90_bird_10_n01530575_35115.png,False,-1.5319989034003814,0.5543153882026672,1.0,-0.09815217038822094,2.508432149887085,0.1111111111111111,-3.127822545167219,27.194752395153046,9.0,3.545177045177045,8.0,31.315794917976458,9.0
subject-03,1,17,0.668954849243164,cat,cat,90,90_cat_10_n02123394_702.png,True,-0.7942347073114909,0.0896848142147064,1.0,-0.011005118470557289,2.4821231365203857,0.25,-2.4709013829366806,25.693343248218298,9.0,4.706060606060606,7.0,26.58909312137909,9.0
subject-04,1,259,0.601485013961792,cat,cat,90,90_cat_10_n02123394_702.png,True,-1.276896729291251,0.0896848142147064,1.0,-0.011005118470557289,2.4821231365203857,0.25,-2.4709013829366806,25.693343248218298,9.0,4.706060606060606,7.0,26.58909312137909,9.0
subject-01,1,1040,0.690905094146729,cat,cat,90,90_cat_10_n02123394_702.png,True,-1.431920386614709,0.0896848142147064,1.0,-0.011005118470557289,2.4821231365203857,0.25,-2.4709013829366806,25.693343248218298,9.0,4.706060606060606,7.0,26.58909312137909,9.0
subject-02,1,451,0.8107750415802,cat,cat,90,90_cat_10_n02123394_702.png,True,-0.8924346582771779,0.0896848142147064,1.0,-0.011005118470557289,2.4821231365203857,0.25,-2.4709013829366806,25.693343248218298,9.0,4.706060606060606,7.0,26.58909312137909,9.0
subject-03,1,18,0.766785144805908,clock,dog,150,150_dog_10_n02109525_40708.png,False,-0.2838939649398627,2.473524570465088,0.5,-1.8710832308602219,2.5411224365234375,0.1666666666666666,-2.7152580128382593,30.769692420959473,10.0,2.1146825396825397,7.0,31.78670107442432,10.0
subject-04,1,808,1.0033130645752,dog,dog,150,150_dog_10_n02109525_40708.png,True,0.3467538945693467,2.473524570465088,0.5,-1.8710832308602219,2.5411224365234375,0.1666666666666666,-2.7152580128382593,30.769692420959473,10.0,2.1146825396825397,7.0,31.78670107442432,10.0
subject-01,1,898,0.828954935073853,bear,dog,150,150_dog_10_n02109525_40708.png,False,-0.75626370088128,2.473524570465088,0.5,-1.8710832308602219,2.5411224365234375,0.1666666666666666,-2.7152580128382593,30.769692420959473,10.0,2.1146825396825397,7.0,31.78670107442432,10.0
subject-02,1,1028,1.22735500335693,bird,dog,150,150_dog_10_n02109525_40708.png,False,0.9944854833349996,2.473524570465088,0.5,-1.8710832308602219,2.5411224365234375,0.1666666666666666,-2.7152580128382593,30.769692420959473,10.0,2.1146825396825397,7.0,31.78670107442432,10.0
subject-03,1,19,0.626622915267944,bear,bear,0,0_bear_10_n02134418_2324.png,True,-1.015063137673176,0.0179741457104682,1.0,-0.0018061010349303495,2.4095025062561035,1.0,-1.5094116184940605,23.580440806457773,9.0,9.333333333333334,4.0,14.97130952659052,9.0
subject-04,1,63,0.873759031295776,bear,bear,0,0_bear_10_n02134418_2324.png,True,-0.17672993548354324,0.0179741457104682,1.0,-0.0018061010349303495,2.4095025062561035,1.0,-1.5094116184940605,23.580440806457773,9.0,9.333333333333334,4.0,14.97130952659052,9.0
subject-01,1,645,0.922998189926147,bear,bear,0,0_bear_10_n02134418_2324.png,True,-0.29598824194302437,0.0179741457104682,1.0,-0.0018061010349303495,2.4095025062561035,1.0,-1.5094116184940605,23.580440806457773,9.0,9.333333333333334,4.0,14.97130952659052,9.0
subject-02,1,511,0.683806896209717,bear,bear,0,0_bear_10_n02134418_2324.png,True,-1.4675433356626537,0.0179741457104682,1.0,-0.0018061010349303495,2.4095025062561035,1.0,-1.5094116184940605,23.580440806457773,9.0,9.333333333333334,4.0,14.97130952659052,9.0
subject-03,1,20,0.664427042007446,cat,cat,0,0_cat_10_n02123394_6517.png,True,-0.8178544305546855,0.0329488106071949,1.0,-0.003581253214036882,2.4488296508789062,0.125,-3.0939692672451318,25.11575474217534,9.0,4.212179487179487,8.0,27.534198101697186,9.0
subject-04,1,249,0.637706995010376,cat,cat,0,0_cat_10_n02123394_6517.png,True,-1.1305360109759883,0.0329488106071949,1.0,-0.003581253214036882,2.4488296508789062,0.125,-3.0939692672451318,25.11575474217534,9.0,4.212179487179487,8.0,27.534198101697186,9.0
subject-01,1,613,0.751035928726196,cat,cat,0,0_cat_10_n02123394_6517.png,True,-1.13762232636707,0.0329488106071949,1.0,-0.003581253214036882,2.4488296508789062,0.125,-3.0939692672451318,25.11575474217534,9.0,4.212179487179487,8.0,27.534198101697186,9.0
subject-02,1,101,0.759142160415649,cat,cat,0,0_cat_10_n02123394_6517.png,True,-1.126308421727846,0.0329488106071949,1.0,-0.003581253214036882,2.4488296508789062,0.125,-3.0939692672451318,25.11575474217534,9.0,4.212179487179487,8.0,27.534198101697186,9.0
subject-03,1,21,0.914345979690552,car,car,0,0_car_10_n04285008_1867.png,True,0.4858707136479509,0.0525641292333602,1.0,-0.006077601028233535,2.475061416625977,0.1428571428571428,-3.180309666825973,24.051136940717697,9.0,4.9842032967032965,6.0,29.484697215909176,8.0
subject-04,1,1037,0.643916130065918,car,car,0,0_car_10_n04285008_1867.png,True,-1.1054470058874295,0.0525641292333602,1.0,-0.006077601028233535,2.475061416625977,0.1428571428571428,-3.180309666825973,24.051136940717697,9.0,4.9842032967032965,6.0,29.484697215909176,8.0
subject-01,1,451,0.859783172607422,car,car,0,0_car_10_n04285008_1867.png,True,-0.6053812032337105,0.0525641292333602,1.0,-0.006077601028233535,2.475061416625977,0.1428571428571428,-3.180309666825973,24.051136940717697,9.0,4.9842032967032965,6.0,29.484697215909176,8.0
subject-02,1,1106,0.794466972351074,car,car,0,0_car_10_n04285008_1867.png,True,-0.9663028879635019,0.0525641292333602,1.0,-0.006077601028233535,2.475061416625977,0.1428571428571428,-3.180309666825973,24.051136940717697,9.0,4.9842032967032965,6.0,29.484697215909176,8.0
subject-03,1,22,0.870031833648682,cat,knife,30,30_knife_10_n03041632_3063.png,False,0.2547018915720918,2.1313018798828125,1.0,-0.8703972475588828,2.4964075088500977,0.0833333333333333,-3.4592424815105485,29.48524045944214,9.0,4.19563492063492,8.0,28.30199304397357,9.0
subject-04,1,979,1.46860599517822,oven,knife,30,30_knife_10_n03041632_3063.png,False,2.2268445350765402,2.1313018798828125,1.0,-0.8703972475588828,2.4964075088500977,0.0833333333333333,-3.4592424815105485,29.48524045944214,9.0,4.19563492063492,8.0,28.30199304397357,9.0
subject-01,1,56,1.05372500419617,knife,knife,30,30_knife_10_n03041632_3063.png,True,0.34382738894061066,2.1313018798828125,1.0,-0.8703972475588828,2.4964075088500977,0.0833333333333333,-3.4592424815105485,29.48524045944214,9.0,4.19563492063492,8.0,28.30199304397357,9.0
subject-02,1,566,1.02142310142517,knife,knife,30,30_knife_10_n03041632_3063.png,True,0.06170645119373885,2.1313018798828125,1.0,-0.8703972475588828,2.4964075088500977,0.0833333333333333,-3.4592424815105485,29.48524045944214,9.0,4.19563492063492,8.0,28.30199304397357,9.0
subject-03,1,23,1.29394793510437,boat,keyboard,150,150_keyboard_10_n04505470_1076.png,False,2.466099257548874,2.7043535709381104,1.0,-2.011061720974987,2.6307778358459473,0.1,-3.1210250153374117,31.335877895355225,5.0,4.905769230769231,6.0,33.1815040595189,6.0
subject-04,1,503,0.709224939346313,cat,keyboard,150,150_keyboard_10_n04505470_1076.png,False,-0.841556297486576,2.7043535709381104,1.0,-2.011061720974987,2.6307778358459473,0.1,-3.1210250153374117,31.335877895355225,5.0,4.905769230769231,6.0,33.1815040595189,6.0
subject-01,1,614,1.50007700920105,car,keyboard,150,150_keyboard_10_n04505470_1076.png,False,2.5284059030967505,2.7043535709381104,1.0,-2.011061720974987,2.6307778358459473,0.1,-3.1210250153374117,31.335877895355225,5.0,4.905769230769231,6.0,33.1815040595189,6.0
subject-02,1,254,1.10682106018066,bicycle,keyboard,150,150_keyboard_10_n04505470_1076.png,False,0.44852085230183686,2.7043535709381104,1.0,-2.011061720974987,2.6307778358459473,0.1,-3.1210250153374117,31.335877895355225,5.0,4.905769230769231,6.0,33.1815040595189,6.0
subject-03,1,24,0.97188401222229,oven,oven,150,150_oven_10_n04111531_15296.png,True,0.78602315689614,2.5845258235931396,0.0625,-4.100003074752679,2.545459508895874,0.0625,-4.523902072481065,30.937950611114502,10.0,0.3027930402930401,6.0,43.170732396868786,6.0
subject-04,1,967,0.928858995437622,truck,oven,150,150_oven_10_n04111531_15296.png,False,0.04591029836034945,2.5845258235931396,0.0625,-4.100003074752679,2.545459508895874,0.0625,-4.523902072481065,30.937950611114502,10.0,0.3027930402930401,6.0,43.170732396868786,6.0
subject-01,1,400,1.02936697006226,oven,oven,150,150_oven_10_n04111531_15296.png,True,0.22461197729383217,2.5845258235931396,0.0625,-4.100003074752679,2.545459508895874,0.0625,-4.523902072481065,30.937950611114502,10.0,0.3027930402930401,6.0,43.170732396868786,6.0
subject-02,1,81,0.786942005157471,cat,oven,150,150_oven_10_n04111531_15296.png,False,-1.000387609902649,2.5845258235931396,0.0625,-4.100003074752679,2.545459508895874,0.0625,-4.523902072481065,30.937950611114502,10.0,0.3027930402930401,6.0,43.170732396868786,6.0
subject-03,1,25,1.04346299171448,elephant,knife,90,90_knife_10_n03041632_25498.png,False,1.159421492474297,2.3458309173583984,0.5,-2.3076914593260147,2.536470890045166,0.0833333333333333,-3.5253286488562567,30.857892990112305,10.0,2.269047619047619,9.0,31.476103816544175,5.0
subject-04,1,455,1.47609996795654,airplane,knife,90,90_knife_10_n03041632_25498.png,False,2.257125132854967,2.3458309173583984,0.5,-2.3076914593260147,2.536470890045166,0.0833333333333333,-3.5253286488562567,30.857892990112305,10.0,2.269047619047619,9.0,31.476103816544175,5.0
subject-01,1,917,1.25724196434021,car,knife,90,90_knife_10_n03041632_25498.png,False,1.3398994876694608,2.3458309173583984,0.5,-2.3076914593260147,2.536470890045166,0.0833333333333333,-3.5253286488562567,30.857892990112305,10.0,2.269047619047619,9.0,31.476103816544175,5.0
subject-02,1,716,,na,knife,90,90_knife_10_n03041632_25498.png,False,,2.3458309173583984,0.5,-2.3076914593260147,2.536470890045166,0.0833333333333333,-3.5253286488562567,30.857892990112305,10.0,2.269047619047619,9.0,31.476103816544175,5.0
subject-03,1,26,0.701529979705811,truck,truck,60,60_truck_10_n03417042_18374.png,True,-0.6243035406158146,0.0729310289025306,1.0,-0.00886249128769716,2.5462794303894043,0.1666666666666666,-2.6093134217391216,26.81955573707819,9.0,3.901190476190476,8.0,26.1444886144115,9.0
subject-04,1,969,0.948368072509766,truck,truck,60,60_truck_10_n03417042_18374.png,True,0.12473985023154513,0.0729310289025306,1.0,-0.00886249128769716,2.5462794303894043,0.1666666666666666,-2.6093134217391216,26.81955573707819,9.0,3.901190476190476,8.0,26.1444886144115,9.0
subject-01,1,991,0.883809804916382,truck,truck,60,60_truck_10_n03417042_18374.png,True,-0.4877877699766788,0.0729310289025306,1.0,-0.00886249128769716,2.5462794303894043,0.1666666666666666,-2.6093134217391216,26.81955573707819,9.0,3.901190476190476,8.0,26.1444886144115,9.0
subject-02,1,289,1.04834699630737,truck,truck,60,60_truck_10_n03417042_18374.png,True,0.18365960354219613,0.0729310289025306,1.0,-0.00886249128769716,2.5462794303894043,0.1666666666666666,-2.6093134217391216,26.81955573707819,9.0,3.901190476190476,8.0,26.1444886144115,9.0
subject-03,1,27,1.16704797744751,bird,boat,150,150_boat_10_n04273569_62.png,False,1.8041139469147622,2.617011308670044,1.0,-1.9940277021315185,2.488452911376953,0.5,-2.031448626359374,30.68452477455139,5.0,5.17063492063492,7.0,28.7760024333179,0.0
subject-04,1,822,0.756585121154785,bear,boat,150,150_boat_10_n04273569_62.png,False,-0.650189894314644,2.617011308670044,1.0,-1.9940277021315185,2.488452911376953,0.5,-2.031448626359374,30.68452477455139,5.0,5.17063492063492,7.0,28.7760024333179,0.0
subject-01,1,119,1.1930410861969,bear,boat,150,150_boat_10_n04273569_62.png,False,1.0256814323919943,2.617011308670044,1.0,-1.9940277021315185,2.488452911376953,0.5,-2.031448626359374,30.68452477455139,5.0,5.17063492063492,7.0,28.7760024333179,0.0
subject-02,1,1020,0.938814163208008,cat,boat,150,150_boat_10_n04273569_62.png,False,-0.3124749394193372,2.617011308670044,1.0,-1.9940277021315185,2.488452911376953,0.5,-2.031448626359374,30.68452477455139,5.0,5.17063492063492,7.0,28.7760024333179,0.0
subject-03,1,28,0.948935985565186,bear,bear,180,180_bear_10_n02132136_20883.png,True,0.6663126634055089,2.631306409835815,0.3333333333333333,-2.3337730034993345,2.5062856674194336,1.0,-1.5705148163146871,30.98482918739319,4.0,7.726190476190475,3.0,23.515313150130602,10.0
subject-04,1,108,0.907058954238892,dog,bear,180,180_bear_10_n02132136_20883.png,False,-0.042176261148056095,2.631306409835815,0.3333333333333333,-2.3337730034993345,2.5062856674194336,1.0,-1.5705148163146871,30.98482918739319,4.0,7.726190476190475,3.0,23.515313150130602,10.0
subject-01,1,718,1.14491200447083,car,bear,180,180_bear_10_n02132136_20883.png,False,0.7901234945628859,2.631306409835815,0.3333333333333333,-2.3337730034993345,2.5062856674194336,1.0,-1.5705148163146871,30.98482918739319,4.0,7.726190476190475,3.0,23.515313150130602,10.0
subject-02,1,142,0.923338890075684,bicycle,bear,180,180_bear_10_n02132136_20883.png,False,-0.3825709767942272,2.631306409835815,0.3333333333333333,-2.3337730034993345,2.5062856674194336,1.0,-1.5705148163146871,30.98482918739319,4.0,7.726190476190475,3.0,23.515313150130602,10.0
subject-03,1,29,0.798708915710449,car,car,60,60_car_10_n02814533_38071.png,True,-0.11736067533862382,0.0317782647907733,1.0,-0.003486624845350372,2.5356130599975586,0.0714285714285714,-3.7848405496249473,25.38438694551587,9.0,3.408928571428571,8.0,33.66763852352633,8.0
subject-04,1,530,0.741966009140015,car,car,60,60_car_10_n02814533_38071.png,True,-0.7092607588469604,0.0317782647907733,1.0,-0.003486624845350372,2.5356130599975586,0.0714285714285714,-3.7848405496249473,25.38438694551587,9.0,3.408928571428571,8.0,33.66763852352633,8.0
subject-01,1,543,0.983250141143799,car,car,60,60_car_10_n02814533_38071.png,True,-0.0010974011040155995,0.0317782647907733,1.0,-0.003486624845350372,2.5356130599975586,0.0714285714285714,-3.7848405496249473,25.38438694551587,9.0,3.408928571428571,8.0,33.66763852352633,8.0
subject-02,1,692,0.601109027862549,car,car,60,60_car_10_n02814533_38071.png,True,-1.8421275398263113,0.0317782647907733,1.0,-0.003486624845350372,2.5356130599975586,0.0714285714285714,-3.7848405496249473,25.38438694551587,9.0,3.408928571428571,8.0,33.66763852352633,8.0
subject-03,1,30,0.876748085021973,knife,cat,180,180_cat_10_n02123597_3944.png,False,0.28973783511170326,2.631657838821411,0.1666666666666666,-2.690501886934217,2.5548911094665527,0.25,-2.660650425662352,30.945577383041382,9.0,0.9884670884670882,4.0,35.403571718410255,4.0
subject-04,1,1036,0.853807926177979,bear,cat,180,180_cat_10_n02123597_3944.png,False,-0.25734557249984735,2.631657838821411,0.1666666666666666,-2.690501886934217,2.5548911094665527,0.25,-2.660650425662352,30.945577383041382,9.0,0.9884670884670882,4.0,35.403571718410255,4.0
subject-01,1,391,1.41500902175903,bicycle,cat,180,180_cat_10_n02123597_3944.png,False,2.1120580531384885,2.631657838821411,0.1666666666666666,-2.690501886934217,2.5548911094665527,0.25,-2.660650425662352,30.945577383041382,9.0,0.9884670884670882,4.0,35.403571718410255,4.0
subject-02,1,833,0.829203844070435,bottle,cat,180,180_cat_10_n02123597_3944.png,False,-0.8089604593351404,2.631657838821411,0.1666666666666666,-2.690501886934217,2.5548911094665527,0.25,-2.660650425662352,30.945577383041382,9.0,0.9884670884670882,4.0,35.403571718410255,4.0
subject-03,1,31,0.976285219192505,knife,knife,60,60_knife_10_n03041632_4714.png,True,0.8089824582004086,0.0103730726987123,1.0,-0.000983184946370567,2.5595128536224365,0.1111111111111111,-3.0189593417285665,25.392563462257385,9.0,6.652777777777778,5.0,21.746839640582607,9.0
subject-04,1,414,0.822041988372803,knife,knife,60,60_knife_10_n03041632_4714.png,True,-0.38570093409333683,0.0103730726987123,1.0,-0.000983184946370567,2.5595128536224365,0.1111111111111111,-3.0189593417285665,25.392563462257385,9.0,6.652777777777778,5.0,21.746839640582607,9.0
subject-01,1,1049,0.942308187484741,knife,knife,60,60_knife_10_n03041632_4714.png,True,-0.2014794119122268,0.0103730726987123,1.0,-0.000983184946370567,2.5595128536224365,0.1111111111111111,-3.0189593417285665,25.392563462257385,9.0,6.652777777777778,5.0,21.746839640582607,9.0
subject-02,1,601,1.28477716445923,knife,knife,60,60_knife_10_n03041632_4714.png,True,1.254582084949508,0.0103730726987123,1.0,-0.000983184946370567,2.5595128536224365,0.1111111111111111,-3.0189593417285665,25.392563462257385,9.0,6.652777777777778,5.0,21.746839640582607,9.0
subject-03,1,32,0.898185014724731,clock,car,150,150_car_10_n02814533_85659.png,False,0.40156555223903634,2.485367774963379,0.1428571428571428,-2.8616868336062806,2.518437385559082,0.0714285714285714,-3.841357708140023,30.85364317893982,10.0,0.1639652014652012,10.0,44.43546664089317,0.0
subject-04,1,582,0.71026086807251,keyboard,car,150,150_car_10_n02814533_85659.png,False,-0.837370461480361,2.485367774963379,0.1428571428571428,-2.8616868336062806,2.518437385559082,0.0714285714285714,-3.841357708140023,30.85364317893982,10.0,0.1639652014652012,10.0,44.43546664089317,0.0
subject-01,1,178,0.699312925338745,boat,car,150,150_car_10_n02814533_85659.png,False,-1.3907699780430498,2.485367774963379,0.1428571428571428,-2.8616868336062806,2.518437385559082,0.0714285714285714,-3.841357708140023,30.85364317893982,10.0,0.1639652014652012,10.0,44.43546664089317,0.0
subject-02,1,725,1.07039999961853,car,car,150,150_car_10_n02814533_85659.png,True,0.28354980458160794,2.485367774963379,0.1428571428571428,-2.8616868336062806,2.518437385559082,0.0714285714285714,-3.841357708140023,30.85364317893982,10.0,0.1639652014652012,10.0,44.43546664089317,0.0
subject-03,1,33,0.632050037384033,boat,clock,180,180_clock_10_n03196217_4492.png,False,-0.9867520555719268,2.141557455062866,1.0,-1.2009565546503134,2.586833953857422,0.1428571428571428,-2.9533669711489514,30.2103168964386,10.0,2.447619047619047,10.0,36.345772865113844,10.0
subject-04,1,862,0.66723108291626,boat,clock,180,180_clock_10_n03196217_4492.png,False,-1.0112392031147002,2.141557455062866,1.0,-1.2009565546503134,2.586833953857422,0.1428571428571428,-2.9533669711489514,30.2103168964386,10.0,2.447619047619047,10.0,36.345772865113844,10.0
subject-01,1,81,1.17237520217896,boat,clock,180,180_clock_10_n03196217_4492.png,False,0.9245364936543692,2.141557455062866,1.0,-1.2009565546503134,2.586833953857422,0.1428571428571428,-2.9533669711489514,30.2103168964386,10.0,2.447619047619047,10.0,36.345772865113844,10.0
subject-02,1,333,1.28907418251038,airplane,clock,180,180_clock_10_n03196217_4492.png,False,1.274045646938914,2.141557455062866,1.0,-1.2009565546503134,2.586833953857422,0.1428571428571428,-2.9533669711489514,30.2103168964386,10.0,2.447619047619047,10.0,36.345772865113844,10.0
subject-03,1,34,0.639739036560059,boat,elephant,180,180_elephant_10_n02504013_698.png,False,-0.9466416835750304,2.667535305023194,0.0625,-3.6635545140868064,2.5585200786590576,0.25,-2.4688093363864523,31.106095552444458,9.0,2.6839285714285714,1.0,34.05012989594926,0.0
subject-04,1,1048,0.946127891540527,oven,elephant,180,180_elephant_10_n02504013_698.png,False,0.11568804007863767,2.667535305023194,0.0625,-3.6635545140868064,2.5585200786590576,0.25,-2.4688093363864523,31.106095552444458,9.0,2.6839285714285714,1.0,34.05012989594926,0.0
subject-01,1,247,0.797229051589966,boat,elephant,180,180_elephant_10_n02504013_698.png,False,-0.9115395428723175,2.667535305023194,0.0625,-3.6635545140868064,2.5585200786590576,0.25,-2.4688093363864523,31.106095552444458,9.0,2.6839285714285714,1.0,34.05012989594926,0.0
subject-02,1,1116,1.10661101341248,boat,elephant,180,180_elephant_10_n02504013_698.png,False,0.4475694347735692,2.667535305023194,0.0625,-3.6635545140868064,2.5585200786590576,0.25,-2.4688093363864523,31.106095552444458,9.0,2.6839285714285714,1.0,34.05012989594926,0.0
subject-03,1,35,0.771675825119019,elephant,elephant,90,90_elephant_10_n02504013_3081.png,True,-0.25838128088490536,0.2372616678476333,1.0,-0.03511177292854101,2.491440773010254,0.25,-2.089810472358839,28.19497813284397,10.0,5.091666666666666,9.0,26.279394684644632,9.0
subject-04,1,735,1.30748295783997,dog,elephant,90,90_elephant_10_n02504013_3081.png,False,1.5758010857872022,0.2372616678476333,1.0,-0.03511177292854101,2.491440773010254,0.25,-2.089810472358839,28.19497813284397,10.0,5.091666666666666,9.0,26.279394684644632,9.0
subject-01,1,171,0.862689018249512,elephant,elephant,90,90_elephant_10_n02504013_3081.png,True,-0.5911591366047171,0.2372616678476333,1.0,-0.03511177292854101,2.491440773010254,0.25,-2.089810472358839,28.19497813284397,10.0,5.091666666666666,9.0,26.279394684644632,9.0
subject-02,1,365,0.958786964416504,elephant,elephant,90,90_elephant_10_n02504013_3081.png,True,-0.2220071196903463,0.2372616678476333,1.0,-0.03511177292854101,2.491440773010254,0.25,-2.089810472358839,28.19497813284397,10.0,5.091666666666666,9.0,26.279394684644632,9.0
subject-03,1,36,0.621587991714478,bird,bird,90,90_bird_10_n01601694_2723.png,True,-1.041328279869463,0.494157999753952,1.0,-0.08465697131079968,2.478508949279785,0.0909090909090909,-3.3827539298644815,26.368811160326004,9.0,3.0527528027528024,8.0,33.58231470243513,9.0
subject-04,1,677,0.902265071868896,bird,bird,90,90_bird_10_n01601694_2723.png,True,-0.06154671099314866,0.494157999753952,1.0,-0.08465697131079968,2.478508949279785,0.0909090909090909,-3.3827539298644815,26.368811160326004,9.0,3.0527528027528024,8.0,33.58231470243513,9.0
subject-01,1,295,1.18003702163696,bird,bird,90,90_bird_10_n01601694_2723.png,True,0.9620357005126589,0.494157999753952,1.0,-0.08465697131079968,2.478508949279785,0.0909090909090909,-3.3827539298644815,26.368811160326004,9.0,3.0527528027528024,8.0,33.58231470243513,9.0
subject-02,1,570,0.869041919708252,bird,bird,90,90_bird_10_n01601694_2723.png,True,-0.6285118678967578,0.494157999753952,1.0,-0.08465697131079968,2.478508949279785,0.0909090909090909,-3.3827539298644815,26.368811160326004,9.0,3.0527528027528024,8.0,33.58231470243513,9.0
subject-03,1,37,0.74352502822876,bear,bear,150,150_bear_10_n02133161_2340.png,True,-0.40523250422720497,2.596072196960449,1.0,-2.0316350994264023,2.469501495361328,0.5,-1.7140665125510455,30.800710439682007,4.0,8.25,10.0,23.409862648757738,10.0
subject-04,1,988,0.749034881591797,cat,bear,150,150_bear_10_n02133161_2340.png,False,-0.680697847052211,2.596072196960449,1.0,-2.0316350994264023,2.469501495361328,0.5,-1.7140665125510455,30.800710439682007,4.0,8.25,10.0,23.409862648757738,10.0
subject-01,1,719,1.17498803138733,bear,bear,150,150_bear_10_n02133161_2340.png,True,0.9373244513329784,2.596072196960449,1.0,-2.0316350994264023,2.469501495361328,0.5,-1.7140665125510455,30.800710439682007,4.0,8.25,10.0,23.409862648757738,10.0
subject-02,1,464,0.944156169891357,car,bear,150,150_bear_10_n02133161_2340.png,False,-0.2882780482283959,2.596072196960449,1.0,-2.0316350994264023,2.469501495361328,0.5,-1.7140665125510455,30.800710439682007,4.0,8.25,10.0,23.409862648757738,10.0
subject-03,1,38,0.883117914199829,bicycle,keyboard,150,150_keyboard_10_n03085013_15162.png,False,0.3229666353796385,2.5614867210388184,0.25,-2.4914423913387864,2.5485105514526367,0.0833333333333333,-3.5277017980719254,30.814029455184937,10.0,2.1178321678321677,8.0,35.50545370104095,6.0
subject-04,1,834,0.814319849014282,bear,keyboard,150,150_keyboard_10_n03085013_15162.png,False,-0.41690347549845064,2.5614867210388184,0.25,-2.4914423913387864,2.5485105514526367,0.0833333333333333,-3.5277017980719254,30.814029455184937,10.0,2.1178321678321677,8.0,35.50545370104095,6.0
subject-01,1,940,1.18473792076111,bird,keyboard,150,150_keyboard_10_n03085013_15162.png,False,0.9850432889376758,2.5614867210388184,0.25,-2.4914423913387864,2.5485105514526367,0.0833333333333333,-3.5277017980719254,30.814029455184937,10.0,2.1178321678321677,8.0,35.50545370104095,6.0
subject-02,1,43,1.07435417175293,bottle,keyboard,150,150_keyboard_10_n03085013_15162.png,False,0.3014604285395592,2.5614867210388184,0.25,-2.4914423913387864,2.5485105514526367,0.0833333333333333,-3.5277017980719254,30.814029455184937,10.0,2.1178321678321677,8.0,35.50545370104095,6.0
subject-03,1,39,0.654864072799683,airplane,airplane,90,90_airplane_10_n02690373_19118.png,True,-0.8677405397266316,0.0204814411699771,1.0,-0.002080636591860714,2.492125988006592,0.3333333333333333,-1.9940271548822046,24.81638339534402,9.0,5.712276612276613,6.0,23.18755815244922,3.0
subject-04,1,629,0.869425058364868,airplane,airplane,90,90_airplane_10_n02690373_19118.png,True,-0.19424204754819782,0.0204814411699771,1.0,-0.002080636591860714,2.492125988006592,0.3333333333333333,-1.9940271548822046,24.81638339534402,9.0,5.712276612276613,6.0,23.18755815244922,3.0
subject-01,1,390,0.939213991165161,airplane,airplane,90,90_airplane_10_n02690373_19118.png,True,-0.2166233223742432,0.0204814411699771,1.0,-0.002080636591860714,2.492125988006592,0.3333333333333333,-1.9940271548822046,24.81638339534402,9.0,5.712276612276613,6.0,23.18755815244922,3.0
subject-02,1,305,1.00759816169739,airplane,airplane,90,90_airplane_10_n02690373_19118.png,True,-0.0009143170200332108,0.0204814411699771,1.0,-0.002080636591860714,2.492125988006592,0.3333333333333333,-1.9940271548822046,24.81638339534402,9.0,5.712276612276613,6.0,23.18755815244922,3.0
subject-03,1,40,0.802574872970581,boat,boat,90,90_boat_10_n03344393_3072.png,True,-0.09719355341832446,1.518726110458374,1.0,-0.43792288388535044,2.5001392364501953,0.5,-1.9661393552460027,29.24491548538208,10.0,6.994047619047619,5.0,23.976715091794482,9.0
subject-04,1,340,1.29603099822998,truck,boat,90,90_boat_10_n03344393_3072.png,False,1.529527608022765,1.518726110458374,1.0,-0.43792288388535044,2.5001392364501953,0.5,-1.9661393552460027,29.24491548538208,10.0,6.994047619047619,5.0,23.976715091794482,9.0
subject-01,1,471,0.761668920516968,boat,boat,90,90_boat_10_n03344393_3072.png,True,-1.0855813247655082,1.518726110458374,1.0,-0.43792288388535044,2.5001392364501953,0.5,-1.9661393552460027,29.24491548538208,10.0,6.994047619047619,5.0,23.976715091794482,9.0
subject-02,1,977,0.726943969726562,boat,boat,90,90_boat_10_n03344393_3072.png,True,-1.2721517654056929,1.518726110458374,1.0,-0.43792288388535044,2.5001392364501953,0.5,-1.9661393552460027,29.24491548538208,10.0,6.994047619047619,5.0,23.976715091794482,9.0
subject-03,1,41,0.924504995346069,airplane,truck,60,60_truck_10_n04467665_67115.png,False,0.5388661539824473,0.1912745535373687,1.0,-0.02805251255349576,2.52644419670105,0.1666666666666666,-2.671042982541618,27.883544713258743,10.0,3.2947802197802196,9.0,27.529686358908954,9.0
subject-04,1,991,1.13870000839233,airplane,truck,60,60_truck_10_n04467665_67115.png,False,0.8938065342636049,0.1912745535373687,1.0,-0.02805251255349576,2.52644419670105,0.1666666666666666,-2.671042982541618,27.883544713258743,10.0,3.2947802197802196,9.0,27.529686358908954,9.0
subject-01,1,210,1.22574210166931,car,truck,60,60_truck_10_n04467665_67115.png,False,1.185729858278046,0.1912745535373687,1.0,-0.02805251255349576,2.52644419670105,0.1666666666666666,-2.671042982541618,27.883544713258743,10.0,3.2947802197802196,9.0,27.529686358908954,9.0
subject-02,1,137,1.01839208602905,boat,truck,60,60_truck_10_n04467665_67115.png,False,0.04797731267233144,0.1912745535373687,1.0,-0.02805251255349576,2.52644419670105,0.1666666666666666,-2.671042982541618,27.883544713258743,10.0,3.2947802197802196,9.0,27.529686358908954,9.0
subject-03,1,42,1.03223991394043,bear,dog,150,150_dog_10_n02089973_2756.png,False,1.100875274148402,1.9616341590881348,0.1111111111111111,-3.2300229057937995,2.524211168289185,0.1428571428571428,-2.775319658375326,29.97324824333191,10.0,0.8031746031746028,2.0,35.004426079797575,0.0
subject-04,1,580,,na,dog,150,150_dog_10_n02089973_2756.png,False,,1.9616341590881348,0.1111111111111111,-3.2300229057937995,2.524211168289185,0.1428571428571428,-2.775319658375326,29.97324824333191,10.0,0.8031746031746028,2.0,35.004426079797575,0.0
subject-01,1,925,1.50000286102295,bottle,dog,150,150_dog_10_n02089973_2756.png,False,2.528043000018183,1.9616341590881348,0.1111111111111111,-3.2300229057937995,2.524211168289185,0.1428571428571428,-2.775319658375326,29.97324824333191,10.0,0.8031746031746028,2.0,35.004426079797575,0.0
subject-02,1,1036,0.879637956619263,bird,dog,150,150_dog_10_n02089973_2756.png,False,-0.5805165793490845,1.9616341590881348,0.1111111111111111,-3.2300229057937995,2.524211168289185,0.1428571428571428,-2.775319658375326,29.97324824333191,10.0,0.8031746031746028,2.0,35.004426079797575,0.0
subject-03,1,43,0.738069772720337,elephant,elephant,90,90_elephant_10_n02504458_3153.png,True,-0.4336903467593266,0.0784712433815002,1.0,-0.009438933385591297,2.4200477600097656,0.5,-1.9559914370563454,24.780672408640385,9.0,8.0,1.0,19.765052655023027,0.0
subject-04,1,1087,0.784786939620972,elephant,elephant,90,90_elephant_10_n02504458_3153.png,True,-0.5362359279931602,0.0784712433815002,1.0,-0.009438933385591297,2.4200477600097656,0.5,-1.9559914370563454,24.780672408640385,9.0,8.0,1.0,19.765052655023027,0.0
subject-01,1,11,1.07200479507446,elephant,elephant,90,90_elephant_10_n02504458_3153.png,True,0.4332940832720116,0.0784712433815002,1.0,-0.009438933385591297,2.4200477600097656,0.5,-1.9559914370563454,24.780672408640385,9.0,8.0,1.0,19.765052655023027,0.0
subject-02,1,1118,0.962123155593872,elephant,elephant,90,90_elephant_10_n02504458_3153.png,True,-0.20689567193372488,0.0784712433815002,1.0,-0.009438933385591297,2.4200477600097656,0.5,-1.9559914370563454,24.780672408640385,9.0,8.0,1.0,19.765052655023027,0.0
subject-03,1,44,1.03589916229248,knife,bottle,120,120_bottle_10_n04557648_1136.png,False,1.1199640800215245,1.9874674081802368,0.5,-2.173570119997862,2.5834150314331055,0.1428571428571428,-2.843187157999542,30.11286771297455,10.0,1.583272283272283,10.0,33.58221143967007,0.0
subject-04,1,726,1.32325601577759,knife,bottle,120,120_bottle_10_n04557648_1136.png,False,1.6395346537188364,1.9874674081802368,0.5,-2.173570119997862,2.5834150314331055,0.1428571428571428,-2.843187157999542,30.11286771297455,10.0,1.583272283272283,10.0,33.58221143967007,0.0
subject-01,1,1108,0.775486946105957,bottle,bottle,120,120_bottle_10_n04557648_1136.png,True,-1.0179518272584114,1.9874674081802368,0.5,-2.173570119997862,2.5834150314331055,0.1428571428571428,-2.843187157999542,30.11286771297455,10.0,1.583272283272283,10.0,33.58221143967007,0.0
subject-02,1,56,1.42611885070801,bottle,bottle,120,120_bottle_10_n04557648_1136.png,True,1.8947964473849064,1.9874674081802368,0.5,-2.173570119997862,2.5834150314331055,0.1428571428571428,-2.843187157999542,30.11286771297455,10.0,1.583272283272283,10.0,33.58221143967007,0.0
subject-03,1,45,0.799916982650757,keyboard,keyboard,30,30_keyboard_10_n04505470_6963.png,True,-0.11105868293836609,0.0237891878932714,1.0,-0.0025016937322726823,2.6001904010772705,0.1428571428571428,-2.8907196263988237,25.38593222759664,9.0,5.1314935064935066,6.0,24.92928054445036,6.0
subject-04,1,940,0.598139762878418,keyboard,keyboard,30,30_keyboard_10_n04505470_6963.png,True,-1.2904137523069392,0.0237891878932714,1.0,-0.0025016937322726823,2.6001904010772705,0.1428571428571428,-2.8907196263988237,25.38593222759664,9.0,5.1314935064935066,6.0,24.92928054445036,6.0
subject-01,1,990,0.833953142166138,keyboard,keyboard,30,30_keyboard_10_n04505470_6963.png,True,-0.7318009994692198,0.0237891878932714,1.0,-0.0025016937322726823,2.6001904010772705,0.1428571428571428,-2.8907196263988237,25.38593222759664,9.0,5.1314935064935066,6.0,24.92928054445036,6.0
subject-02,1,448,0.717172861099243,keyboard,keyboard,30,30_keyboard_10_n04505470_6963.png,True,-1.3164104993019003,0.0237891878932714,1.0,-0.0025016937322726823,2.6001904010772705,0.1428571428571428,-2.8907196263988237,25.38593222759664,9.0,5.1314935064935066,6.0,24.92928054445036,6.0
subject-03,1,46,0.655588150024414,truck,truck,90,90_truck_10_n03417042_5228.png,True,-0.8639633242303684,0.8828528523445129,1.0,-0.21870169417641425,2.5213518142700195,0.1666666666666666,-2.9028863306088257,28.429504811763763,10.0,3.076190476190476,9.0,28.906675043007866,9.0
subject-04,1,840,0.599194049835205,truck,truck,90,90_truck_10_n03417042_5228.png,True,-1.2861537369284655,0.8828528523445129,1.0,-0.21870169417641425,2.5213518142700195,0.1666666666666666,-2.9028863306088257,28.429504811763763,10.0,3.076190476190476,9.0,28.906675043007866,9.0
subject-01,1,71,0.888868093490601,truck,truck,90,90_truck_10_n03417042_5228.png,True,-0.4630310120507909,0.8828528523445129,1.0,-0.21870169417641425,2.5213518142700195,0.1666666666666666,-2.9028863306088257,28.429504811763763,10.0,3.076190476190476,9.0,28.906675043007866,9.0
subject-02,1,10,1.00040602684021,truck,truck,90,90_truck_10_n03417042_5228.png,True,-0.0334914579495275,0.8828528523445129,1.0,-0.21870169417641425,2.5213518142700195,0.1666666666666666,-2.9028863306088257,28.429504811763763,10.0,3.076190476190476,9.0,28.906675043007866,9.0
subject-03,1,47,0.545460939407349,clock,clock,60,60_clock_10_n04548280_5734.png,True,-1.4384520559503278,0.0673546195030212,1.0,-0.008252665413636952,2.560016632080078,0.1,-2.9490578585883953,25.713091731071472,9.0,4.915018315018315,6.0,28.866986484183972,9.0
subject-04,1,833,0.578902006149292,clock,clock,60,60_clock_10_n04548280_5734.png,True,-1.3681469908582091,0.0673546195030212,1.0,-0.008252665413636952,2.560016632080078,0.1,-2.9490578585883953,25.713091731071472,9.0,4.915018315018315,6.0,28.866986484183972,9.0
subject-01,1,280,0.704828023910522,clock,clock,60,60_clock_10_n04548280_5734.png,True,-1.3637774570993484,0.0673546195030212,1.0,-0.008252665413636952,2.560016632080078,0.1,-2.9490578585883953,25.713091731071472,9.0,4.915018315018315,6.0,28.866986484183972,9.0
subject-02,1,633,0.711075067520142,clock,clock,60,60_clock_10_n04548280_5734.png,True,-1.3440307657081991,0.0673546195030212,1.0,-0.008252665413636952,2.560016632080078,0.1,-2.9490578585883953,25.713091731071472,9.0,4.915018315018315,6.0,28.866986484183972,9.0
subject-03,1,48,0.78703784942627,car,truck,120,120_truck_10_n03796401_28190.png,False,-0.17824386696627606,2.6269922256469727,0.0769230769230769,-3.303362651703902,2.5940194129943848,0.1666666666666666,-2.670941212710319,30.95310068130493,9.0,1.0222985347985345,3.0,35.923472441401834,0.0
subject-04,1,439,0.755371809005737,car,truck,120,120_truck_10_n03796401_28190.png,False,-0.6550924764632329,2.6269922256469727,0.0769230769230769,-3.303362651703902,2.5940194129943848,0.1666666666666666,-2.670941212710319,30.95310068130493,9.0,1.0222985347985345,3.0,35.923472441401834,0.0
subject-01,1,792,0.898423194885254,car,truck,120,120_truck_10_n03796401_28190.png,False,-0.4162655243341757,2.6269922256469727,0.0769230769230769,-3.303362651703902,2.5940194129943848,0.1666666666666666,-2.670941212710319,30.95310068130493,9.0,1.0222985347985345,3.0,35.923472441401834,0.0
subject-02,1,669,0.785234928131104,car,truck,120,120_truck_10_n03796401_28190.png,False,-1.0081199021871776,2.6269922256469727,0.0769230769230769,-3.303362651703902,2.5940194129943848,0.1666666666666666,-2.670941212710319,30.95310068130493,9.0,1.0222985347985345,3.0,35.923472441401834,0.0
subject-03,1,49,0.842911958694458,bicycle,bicycle,60,60_bicycle_10_n02835271_4730.png,True,0.11322856740853778,0.0295742191374301,1.0,-0.003199923257814207,2.48885178565979,0.5,-1.9740187530281517,25.394753586500883,9.0,6.666666666666666,6.0,20.77094480471488,8.0
subject-04,1,355,1.0712878704071,bicycle,bicycle,60,60_bicycle_10_n02835271_4730.png,True,0.6214169892121597,0.0295742191374301,1.0,-0.003199923257814207,2.48885178565979,0.5,-1.9740187530281517,25.394753586500883,9.0,6.666666666666666,6.0,20.77094480471488,8.0
subject-01,1,83,0.997896909713745,bicycle,bicycle,60,60_bicycle_10_n02835271_4730.png,True,0.07058820926838894,0.0295742191374301,1.0,-0.003199923257814207,2.48885178565979,0.5,-1.9740187530281517,25.394753586500883,9.0,6.666666666666666,6.0,20.77094480471488,8.0
subject-02,1,18,0.865154981613159,bicycle,bicycle,60,60_bicycle_10_n02835271_4730.png,True,-0.6461179518513229,0.0295742191374301,1.0,-0.003199923257814207,2.48885178565979,0.5,-1.9740187530281517,25.394753586500883,9.0,6.666666666666666,6.0,20.77094480471488,8.0
subject-03,1,50,1.23869204521179,bear,bear,60,60_bear_10_n02134084_21921.png,True,2.177851821455845,0.0365837402641773,1.0,-0.004223610937213986,2.437103033065796,1.0,-1.5065410130326802,24.717949140816927,9.0,10.25,3.0,15.802361953998124,9.0
subject-04,1,810,1.15116190910339,dog,bear,60,60_bear_10_n02134084_21921.png,False,0.9441608408709055,0.0365837402641773,1.0,-0.004223610937213986,2.437103033065796,1.0,-1.5065410130326802,24.717949140816927,9.0,10.25,3.0,15.802361953998124,9.0
subject-01,1,273,0.898299932479858,bear,bear,60,60_bear_10_n02134084_21921.png,True,-0.416868806943892,0.0365837402641773,1.0,-0.004223610937213986,2.437103033065796,1.0,-1.5065410130326802,24.717949140816927,9.0,10.25,3.0,15.802361953998124,9.0
subject-02,1,184,1.25840592384338,dog,bear,60,60_bear_10_n02134084_21921.png,False,1.1351322082316784,0.0365837402641773,1.0,-0.004223610937213986,2.437103033065796,1.0,-1.5065410130326802,24.717949140816927,9.0,10.25,3.0,15.802361953998124,9.0
subject-03,1,51,0.742652893066406,car,dog,180,180_dog_10_n02105162_9615.png,False,-0.40978207758425017,2.598932981491089,0.1666666666666666,-2.6949895234391916,2.5103023052215576,0.2,-2.7693351963513524,30.918158292770386,4.0,1.1900793650793648,9.0,34.212178130721824,0.0
subject-04,1,44,1.02745890617371,oven,dog,180,180_dog_10_n02105162_9615.png,False,0.44431903646328075,2.598932981491089,0.1666666666666666,-2.6949895234391916,2.5103023052215576,0.2,-2.7693351963513524,30.918158292770386,4.0,1.1900793650793648,9.0,34.212178130721824,0.0
subject-01,1,621,1.03972601890564,elephant,dog,180,180_dog_10_n02105162_9615.png,False,0.2753122212192394,2.598932981491089,0.1666666666666666,-2.6949895234391916,2.5103023052215576,0.2,-2.7693351963513524,30.918158292770386,4.0,1.1900793650793648,9.0,34.212178130721824,0.0
subject-02,1,707,1.15426397323608,car,dog,180,180_dog_10_n02105162_9615.png,False,0.6634159419245269,2.598932981491089,0.1666666666666666,-2.6949895234391916,2.5103023052215576,0.2,-2.7693351963513524,30.918158292770386,4.0,1.1900793650793648,9.0,34.212178130721824,0.0
subject-03,1,52,0.764412879943848,clock,chair,120,120_chair_10_n02791124_4319.png,False,-0.29626910296680814,2.59794282913208,0.2,-2.701598500370608,2.5887975692749023,0.0714285714285714,-3.6658908133648227,31.14811062812805,9.0,1.411446886446886,0.0,35.80967527619619,6.0
subject-04,1,765,0.883945941925049,oven,chair,120,120_chair_10_n02791124_4319.png,False,-0.13556809082590354,2.59794282913208,0.2,-2.701598500370608,2.5887975692749023,0.0714285714285714,-3.6658908133648227,31.14811062812805,9.0,1.411446886446886,0.0,35.80967527619619,6.0
subject-01,1,975,0.898788928985596,truck,chair,120,120_chair_10_n02791124_4319.png,False,-0.4144755136508078,2.59794282913208,0.2,-2.701598500370608,2.5887975692749023,0.0714285714285714,-3.6658908133648227,31.14811062812805,9.0,1.411446886446886,0.0,35.80967527619619,6.0
subject-02,1,841,1.14981198310852,car,chair,120,120_chair_10_n02791124_4319.png,False,0.6432504260266361,2.59794282913208,0.2,-2.701598500370608,2.5887975692749023,0.0714285714285714,-3.6658908133648227,31.14811062812805,9.0,1.411446886446886,0.0,35.80967527619619,6.0
subject-03,1,53,0.652318954467773,boat,oven,120,120_oven_10_n04111531_2922.png,False,-0.8810173837907234,2.6640467643737793,0.0666666666666666,-3.485854417843298,2.5650062561035156,0.0625,-4.353014983755091,30.979942560195923,9.0,0.3371753246753245,6.0,41.89722136960509,6.0
subject-04,1,364,0.771698951721191,truck,oven,120,120_oven_10_n04111531_2922.png,False,-0.5891200402051373,2.6640467643737793,0.0666666666666666,-3.485854417843298,2.5650062561035156,0.0625,-4.353014983755091,30.979942560195923,9.0,0.3371753246753245,6.0,41.89722136960509,6.0
subject-01,1,235,0.984844923019409,chair,oven,120,120_oven_10_n04111531_2922.png,False,0.006707932312566552,2.6640467643737793,0.0666666666666666,-3.485854417843298,2.5650062561035156,0.0625,-4.353014983755091,30.979942560195923,9.0,0.3371753246753245,6.0,41.89722136960509,6.0
subject-02,1,477,0.903780937194824,chair,oven,120,120_oven_10_n04111531_2922.png,False,-0.47115971990659017,2.6640467643737793,0.0666666666666666,-3.485854417843298,2.5650062561035156,0.0625,-4.353014983755091,30.979942560195923,9.0,0.3371753246753245,6.0,41.89722136960509,6.0
subject-03,1,54,0.651999950408936,cat,cat,0,0_cat_10_n02123045_10887.png,True,-0.8826814978289155,0.1019999459385871,1.0,-0.012823978995413154,2.536118507385254,0.0769230769230769,-3.659396172072844,26.28883034735918,9.0,3.9689976689976687,7.0,31.065063261876094,9.0
subject-04,1,235,0.802718162536621,cat,cat,0,0_cat_10_n02123045_10887.png,True,-0.46378194866261563,0.1019999459385871,1.0,-0.012823978995413154,2.536118507385254,0.0769230769230769,-3.659396172072844,26.28883034735918,9.0,3.9689976689976687,7.0,31.065063261876094,9.0
subject-01,1,871,0.747540950775146,cat,cat,0,0_cat_10_n02123045_10887.png,True,-1.1547277804788523,0.1019999459385871,1.0,-0.012823978995413154,2.536118507385254,0.0769230769230769,-3.659396172072844,26.28883034735918,9.0,3.9689976689976687,7.0,31.065063261876094,9.0
subject-02,1,759,1.18395614624023,cat,cat,0,0_cat_10_n02123045_10887.png,True,0.7979081509371917,0.1019999459385871,1.0,-0.012823978995413154,2.536118507385254,0.0769230769230769,-3.659396172072844,26.28883034735918,9.0,3.9689976689976687,7.0,31.065063261876094,9.0
subject-03,1,55,0.636057138442993,airplane,airplane,60,60_airplane_10_n02690373_243.png,True,-0.9658486440323362,0.0196662656962871,1.0,-0.0020025741109578033,2.467562437057495,0.25,-2.0299171362556154,25.30702076666057,9.0,5.632478632478632,6.0,24.75944446995351,8.0
subject-04,1,1058,1.37405395507812,airplane,airplane,60,60_airplane_10_n02690373_243.png,True,1.8447918668731493,0.0196662656962871,1.0,-0.0020025741109578033,2.467562437057495,0.25,-2.0299171362556154,25.30702076666057,9.0,5.632478632478632,6.0,24.75944446995351,8.0
subject-01,1,470,0.889708042144775,airplane,airplane,60,60_airplane_10_n02690373_243.png,True,-0.45892005531187663,0.0196662656962871,1.0,-0.0020025741109578033,2.467562437057495,0.25,-2.0299171362556154,25.30702076666057,9.0,5.632478632478632,6.0,24.75944446995351,8.0
subject-02,1,116,0.814321994781494,airplane,airplane,60,60_airplane_10_n02690373_243.png,True,-0.876368553204979,0.0196662656962871,1.0,-0.0020025741109578033,2.467562437057495,0.25,-2.0299171362556154,25.30702076666057,9.0,5.632478632478632,6.0,24.75944446995351,8.0
subject-03,1,56,0.910104990005493,bird,dog,150,150_dog_10_n02110806_2269.png,False,0.46374720056017465,2.4230763912200928,0.3333333333333333,-2.3727306969984503,2.518914222717285,0.1428571428571428,-2.691902014977771,30.519977807998657,10.0,1.6912698412698408,9.0,33.40932684968516,0.0
subject-04,1,241,1.20879197120667,clock,dog,150,150_dog_10_n02110806_2269.png,False,1.177024340928393,2.4230763912200928,0.3333333333333333,-2.3727306969984503,2.518914222717285,0.1428571428571428,-2.691902014977771,30.519977807998657,10.0,1.6912698412698408,9.0,33.40932684968516,0.0
subject-01,1,878,1.47220301628113,bird,dog,150,150_dog_10_n02110806_2269.png,False,2.39198235093654,2.4230763912200928,0.3333333333333333,-2.3727306969984503,2.518914222717285,0.1428571428571428,-2.691902014977771,30.519977807998657,10.0,1.6912698412698408,9.0,33.40932684968516,0.0
subject-02,1,496,0.916629076004028,bicycle,dog,150,150_dog_10_n02110806_2269.png,False,-0.41296342117460844,2.4230763912200928,0.3333333333333333,-2.3727306969984503,2.518914222717285,0.1428571428571428,-2.691902014977771,30.519977807998657,10.0,1.6912698412698408,9.0,33.40932684968516,0.0
subject-03,1,57,0.673888921737671,bicycle,bicycle,60,60_bicycle_10_n03792782_1477.png,True,-0.7684956639479023,0.0490324050188064,1.0,-0.005573996649181676,2.4770257472991943,0.2,-2.3076819486926587,25.578015165403485,9.0,5.783333333333333,7.0,21.981984995970745,9.0
subject-04,1,477,0.577983140945435,bicycle,bicycle,60,60_bicycle_10_n03792782_1477.png,True,-1.3718598129451907,0.0490324050188064,1.0,-0.005573996649181676,2.4770257472991943,0.2,-2.3076819486926587,25.578015165403485,9.0,5.783333333333333,7.0,21.981984995970745,9.0
subject-01,1,694,0.807426929473877,bicycle,bicycle,60,60_bicycle_10_n03792782_1477.png,True,-0.8616281172141393,0.0490324050188064,1.0,-0.005573996649181676,2.4770257472991943,0.2,-2.3076819486926587,25.578015165403485,9.0,5.783333333333333,7.0,21.981984995970745,9.0
subject-02,1,976,0.959012985229492,bicycle,bicycle,60,60_bicycle_10_n03792782_1477.png,True,-0.22098334691301072,0.0490324050188064,1.0,-0.005573996649181676,2.4770257472991943,0.2,-2.3076819486926587,25.578015165403485,9.0,5.783333333333333,7.0,21.981984995970745,9.0
subject-03,1,58,1.16133499145508,airplane,car,180,180_car_10_n03100240_4619.png,False,1.7743116295879626,2.314495325088501,0.3333333333333333,-2.7010265858846507,2.5345346927642822,0.0769230769230769,-3.5718895011309613,30.444793939590454,9.0,0.3800366300366298,10.0,43.90436260089887,10.0
subject-04,1,688,0.786209106445312,dog,car,180,180_car_10_n03100240_4619.png,False,-0.5304894350640369,2.314495325088501,0.3333333333333333,-2.7010265858846507,2.5345346927642822,0.0769230769230769,-3.5718895011309613,30.444793939590454,9.0,0.3800366300366298,10.0,43.90436260089887,10.0
subject-01,1,578,1.119460105896,car,car,180,180_car_10_n03100240_4619.png,True,0.6655543873389876,2.314495325088501,0.3333333333333333,-2.7010265858846507,2.5345346927642822,0.0769230769230769,-3.5718895011309613,30.444793939590454,9.0,0.3800366300366298,10.0,43.90436260089887,10.0
subject-02,1,773,0.873486995697021,airplane,car,180,180_car_10_n03100240_4619.png,False,-0.6083776699424635,2.314495325088501,0.3333333333333333,-2.7010265858846507,2.5345346927642822,0.0769230769230769,-3.5718895011309613,30.444793939590454,9.0,0.3800366300366298,10.0,43.90436260089887,10.0
subject-03,1,59,0.687126874923706,airplane,elephant,180,180_elephant_10_n02504013_5021.png,False,-0.6994386625601361,2.361439943313598,0.0666666666666666,-4.339578422574129,2.542360782623291,0.2,-2.5085931170426514,30.702123880386353,10.0,2.6027777777777774,1.0,35.78851617748976,1.0
subject-04,1,1100,0.786187887191772,airplane,elephant,180,180_elephant_10_n02504013_5021.png,False,-0.5305751748579496,2.361439943313598,0.0666666666666666,-4.339578422574129,2.542360782623291,0.2,-2.5085931170426514,30.702123880386353,10.0,2.6027777777777774,1.0,35.78851617748976,1.0
subject-01,1,257,1.2233099937439,car,elephant,180,180_elephant_10_n02504013_5021.png,False,1.1738264039227748,2.361439943313598,0.0666666666666666,-4.339578422574129,2.542360782623291,0.2,-2.5085931170426514,30.702123880386353,10.0,2.6027777777777774,1.0,35.78851617748976,1.0
subject-02,1,328,1.08601307868958,airplane,elephant,180,180_elephant_10_n02504013_5021.png,False,0.35427004097055254,2.361439943313598,0.0666666666666666,-4.339578422574129,2.542360782623291,0.2,-2.5085931170426514,30.702123880386353,10.0,2.6027777777777774,1.0,35.78851617748976,1.0
subject-03,1,60,0.907013893127441,clock,chair,120,120_chair_10_n04429376_16869.png,False,0.44762220915118944,2.6814706325531006,0.1666666666666666,-2.6043373745816525,2.5496416091918945,0.0625,-3.9948555663050267,31.21779727935791,9.0,1.3401154401154398,0.0,37.476228225699316,6.0
subject-04,1,224,1.13506603240967,knife,chair,120,120_chair_10_n04429376_16869.png,False,0.8791228720296387,2.6814706325531006,0.1666666666666666,-2.6043373745816525,2.5496416091918945,0.0625,-3.9948555663050267,31.21779727935791,9.0,1.3401154401154398,0.0,37.476228225699316,6.0
subject-01,1,608,0.993827819824219,truck,chair,120,120_chair_10_n04429376_16869.png,False,0.05067288180227535,2.6814706325531006,0.1666666666666666,-2.6043373745816525,2.5496416091918945,0.0625,-3.9948555663050267,31.21779727935791,9.0,1.3401154401154398,0.0,37.476228225699316,6.0
subject-02,1,34,1.07800698280334,bicycle,chair,120,120_chair_10_n04429376_16869.png,False,0.31800602212770346,2.6814706325531006,0.1666666666666666,-2.6043373745816525,2.5496416091918945,0.0625,-3.9948555663050267,31.21779727935791,9.0,1.3401154401154398,0.0,37.476228225699316,6.0
subject-03,1,61,0.976883172988892,knife,bottle,0,0_bottle_10_n03937543_3079.png,False,0.8121017392226803,0.1489971429109573,1.0,-0.021474839416438987,2.560473918914795,0.1428571428571428,-2.724530021246632,25.810257963836193,9.0,4.4869047619047615,7.0,26.348182351769033,9.0
subject-04,1,594,1.47803497314453,bottle,bottle,0,0_bottle_10_n03937543_3079.png,True,2.264943831365081,0.1489971429109573,1.0,-0.021474839416438987,2.560473918914795,0.1428571428571428,-2.724530021246632,25.810257963836193,9.0,4.4869047619047615,7.0,26.348182351769033,9.0
subject-01,1,592,0.982815027236938,bottle,bottle,0,0_bottle_10_n03937543_3079.png,True,-0.0032269770473984973,0.1489971429109573,1.0,-0.021474839416438987,2.560473918914795,0.1428571428571428,-2.724530021246632,25.810257963836193,9.0,4.4869047619047615,7.0,26.348182351769033,9.0
subject-02,1,562,0.898256063461304,bottle,bottle,0,0_bottle_10_n03937543_3079.png,True,-0.4961849167095757,0.1489971429109573,1.0,-0.021474839416438987,2.560473918914795,0.1428571428571428,-2.724530021246632,25.810257963836193,9.0,4.4869047619047615,7.0,26.348182351769033,9.0
subject-03,1,62,1.01073598861694,cat,elephant,180,180_elephant_10_n02504013_3029.png,False,0.9886980681983757,2.285675525665283,0.0909090909090909,-4.016260915985464,2.5650076866149902,0.3333333333333333,-2.431343192674329,30.529736518859863,10.0,2.314393939393939,1.0,33.42799639987689,0.0
subject-04,1,698,0.588515996932983,car,elephant,180,180_elephant_10_n02504013_3029.png,False,-1.3293001206362303,2.285675525665283,0.0909090909090909,-4.016260915985464,2.5650076866149902,0.3333333333333333,-2.431343192674329,30.529736518859863,10.0,2.314393939393939,1.0,33.42799639987689,0.0
subject-01,1,488,1.04982709884644,boat,elephant,180,180_elephant_10_n02504013_3029.png,False,0.3247498891607193,2.285675525665283,0.0909090909090909,-4.016260915985464,2.5650076866149902,0.3333333333333333,-2.431343192674329,30.529736518859863,10.0,2.314393939393939,1.0,33.42799639987689,0.0
subject-02,1,758,1.49999904632568,bottle,elephant,180,180_elephant_10_n02504013_3029.png,False,2.2294405540833107,2.285675525665283,0.0909090909090909,-4.016260915985464,2.5650076866149902,0.3333333333333333,-2.431343192674329,30.529736518859863,10.0,2.314393939393939,1.0,33.42799639987689,0.0
subject-03,1,63,0.788789033889771,airplane,truck,120,120_truck_10_n04467665_51397.png,False,-0.16910865201070466,2.693517684936523,0.25,-2.5107410792000597,2.5883302688598633,0.1666666666666666,-2.5848448168932254,31.13734197616577,5.0,1.3303571428571428,2.0,33.518300541271365,0.0
subject-04,1,577,0.801265001296997,truck,truck,120,120_truck_10_n04467665_51397.png,True,-0.4696536794929641,2.693517684936523,0.25,-2.5107410792000597,2.5883302688598633,0.1666666666666666,-2.5848448168932254,31.13734197616577,5.0,1.3303571428571428,2.0,33.518300541271365,0.0
subject-01,1,195,1.0782310962677,oven,truck,120,120_truck_10_n04467665_51397.png,False,0.4637674398535913,2.693517684936523,0.25,-2.5107410792000597,2.5883302688598633,0.1666666666666666,-2.5848448168932254,31.13734197616577,5.0,1.3303571428571428,2.0,33.518300541271365,0.0
subject-02,1,1040,0.907019138336182,truck,truck,120,120_truck_10_n04467665_51397.png,True,-0.4564921230059626,2.693517684936523,0.25,-2.5107410792000597,2.5883302688598633,0.1666666666666666,-2.5848448168932254,31.13734197616577,5.0,1.3303571428571428,2.0,33.518300541271365,0.0
subject-03,1,64,0.752145051956177,bicycle,knife,120,120_knife_10_n03041632_36280.png,False,-0.3602653569544093,0.2444910109043121,1.0,-0.036642976057222804,2.5935003757476807,0.125,-2.9385262119027744,27.297012239694595,9.0,5.684523809523809,5.0,23.51438650627181,9.0
subject-04,1,47,0.878935098648071,car,knife,120,120_knife_10_n03041632_36280.png,False,-0.15581520597954554,0.2444910109043121,1.0,-0.036642976057222804,2.5935003757476807,0.125,-2.9385262119027744,27.297012239694595,9.0,5.684523809523809,5.0,23.51438650627181,9.0
subject-01,1,209,1.50009489059448,bicycle,knife,120,120_knife_10_n03041632_36280.png,False,2.5284934199163285,0.2444910109043121,1.0,-0.036642976057222804,2.5935003757476807,0.125,-2.9385262119027744,27.297012239694595,9.0,5.684523809523809,5.0,23.51438650627181,9.0
subject-02,1,501,1.21152114868164,dog,knife,120,120_knife_10_n03041632_36280.png,False,0.9227652326087347,0.2444910109043121,1.0,-0.036642976057222804,2.5935003757476807,0.125,-2.9385262119027744,27.297012239694595,9.0,5.684523809523809,5.0,23.51438650627181,9.0
subject-03,1,65,0.572016000747681,clock,clock,90,90_clock_10_n04548280_6022.png,True,-1.2999251339964077,0.0586990937590599,1.0,-0.006813919289192177,2.6188478469848633,0.2,-2.625478850598835,25.336144469678402,9.0,5.31025641025641,6.0,27.821192891258384,9.0
subject-04,1,536,0.466591119766235,clock,clock,90,90_clock_10_n04548280_6022.png,True,-1.8219571229876521,0.0586990937590599,1.0,-0.006813919289192177,2.6188478469848633,0.2,-2.625478850598835,25.336144469678402,9.0,5.31025641025641,6.0,27.821192891258384,9.0
subject-01,1,44,1.18802785873413,clock,clock,90,90_clock_10_n04548280_6022.png,True,1.0011452168514696,0.0586990937590599,1.0,-0.006813919289192177,2.6188478469848633,0.2,-2.625478850598835,25.336144469678402,9.0,5.31025641025641,6.0,27.821192891258384,9.0
subject-02,1,1098,0.708057165145874,clock,clock,90,90_clock_10_n04548280_6022.png,True,-1.3577005081296496,0.0586990937590599,1.0,-0.006813919289192177,2.6188478469848633,0.2,-2.625478850598835,25.336144469678402,9.0,5.31025641025641,6.0,27.821192891258384,9.0
subject-03,1,66,0.875952005386353,bicycle,bicycle,120,120_bicycle_10_n02835271_19213.png,True,0.28558501241100226,2.6221117973327637,0.1428571428571428,-2.9146885623003977,2.5045716762542725,0.3333333333333333,-2.336312730357245,31.045005798339844,10.0,2.628210678210678,0.0,29.835984682002753,1.0
subject-04,1,1067,1.24071288108826,bicycle,bicycle,120,120_bicycle_10_n02835271_19213.png,True,1.306005892027982,2.6221117973327637,0.1428571428571428,-2.9146885623003977,2.5045716762542725,0.3333333333333333,-2.336312730357245,31.045005798339844,10.0,2.628210678210678,0.0,29.835984682002753,1.0
subject-01,1,96,1.31942486763,oven,bicycle,120,120_bicycle_10_n02835271_19213.png,False,1.6442409781333363,2.6221117973327637,0.1428571428571428,-2.9146885623003977,2.5045716762542725,0.3333333333333333,-2.336312730357245,31.045005798339844,10.0,2.628210678210678,0.0,29.835984682002753,1.0
subject-02,1,356,1.40276479721069,bear,bicycle,120,120_bicycle_10_n02835271_19213.png,False,1.789013073301254,2.6221117973327637,0.1428571428571428,-2.9146885623003977,2.5045716762542725,0.3333333333333333,-2.336312730357245,31.045005798339844,10.0,2.628210678210678,0.0,29.835984682002753,1.0
subject-03,1,67,0.937669992446899,bird,bird,60,60_bird_10_n01560419_6863.png,True,0.6075425732359173,0.5061103105545044,1.0,-0.08668005173337005,2.468872547149658,0.1,-3.3367558615438564,27.025439739227295,9.0,4.148153235653235,7.0,31.57756983516581,9.0
subject-04,1,727,0.667091846466064,bird,bird,60,60_bird_10_n01560419_6863.png,True,-1.0118018103017288,0.5061103105545044,1.0,-0.08668005173337005,2.468872547149658,0.1,-3.3367558615438564,27.025439739227295,9.0,4.148153235653235,7.0,31.57756983516581,9.0
subject-01,1,820,0.979532957077026,bird,bird,60,60_bird_10_n01560419_6863.png,True,-0.019290397560583754,0.5061103105545044,1.0,-0.08668005173337005,2.468872547149658,0.1,-3.3367558615438564,27.025439739227295,9.0,4.148153235653235,7.0,31.57756983516581,9.0
subject-02,1,964,0.80122184753418,bird,bird,60,60_bird_10_n01560419_6863.png,True,-0.9357063369851083,0.5061103105545044,1.0,-0.08668005173337005,2.468872547149658,0.1,-3.3367558615438564,27.025439739227295,9.0,4.148153235653235,7.0,31.57756983516581,9.0
subject-03,1,68,0.823467016220093,bird,bird,0,0_bird_10_n01817953_2257.png,True,0.011792235026443306,0.3922770023345947,1.0,-0.06325404776144988,2.4774508476257324,0.1111111111111111,-3.3329617161673206,25.663867071270943,9.0,3.3064865689865686,8.0,32.012460190402756,9.0
subject-04,1,87,1.23898386955261,bird,bird,0,0_bird_10_n01817953_2257.png,True,1.2990195438767402,0.3922770023345947,1.0,-0.06325404776144988,2.4774508476257324,0.1111111111111111,-3.3329617161673206,25.663867071270943,9.0,3.3064865689865686,8.0,32.012460190402756,9.0
subject-01,1,372,0.804795980453491,bird,bird,0,0_bird_10_n01817953_2257.png,True,-0.874504758603288,0.3922770023345947,1.0,-0.06325404776144988,2.4774508476257324,0.1111111111111111,-3.3329617161673206,25.663867071270943,9.0,3.3064865689865686,8.0,32.012460190402756,9.0
subject-02,1,792,0.93595290184021,bird,bird,0,0_bird_10_n01817953_2257.png,True,-0.32543516842864467,0.3922770023345947,1.0,-0.06325404776144988,2.4774508476257324,0.1111111111111111,-3.3329617161673206,25.663867071270943,9.0,3.3064865689865686,8.0,32.012460190402756,9.0
subject-03,1,69,0.745253086090088,bicycle,bird,90,90_bird_10_n01582220_261.png,False,-0.39621793132074107,2.3984289169311523,0.0666666666666666,-4.2481710211326815,2.5188841819763184,0.1,-3.3831905866781002,30.84604263305664,10.0,0.15549450549450508,4.0,42.750732147288915,1.0
subject-04,1,796,1.0383288860321,bottle,bird,90,90_bird_10_n01582220_261.png,False,0.48824093179011274,2.3984289169311523,0.0666666666666666,-4.2481710211326815,2.5188841819763184,0.1,-3.3831905866781002,30.84604263305664,10.0,0.15549450549450508,4.0,42.750732147288915,1.0
subject-01,1,843,1.05491709709167,boat,bird,90,90_bird_10_n01582220_261.png,False,0.3496618435799678,2.3984289169311523,0.0666666666666666,-4.2481710211326815,2.5188841819763184,0.1,-3.3831905866781002,30.84604263305664,10.0,0.15549450549450508,4.0,42.750732147288915,1.0
subject-02,1,416,1.41311287879944,oven,bird,90,90_bird_10_n01582220_261.png,False,1.8358852355953292,2.3984289169311523,0.0666666666666666,-4.2481710211326815,2.5188841819763184,0.1,-3.3831905866781002,30.84604263305664,10.0,0.15549450549450508,4.0,42.750732147288915,1.0
subject-03,1,70,0.877120018005371,clock,oven,0,0_oven_10_n04111531_22886.png,False,0.291678057757132,1.5434561967849731,0.5,-1.0036679098611543,2.468095064163208,0.0625,-4.412904515390311,29.348663687705994,10.0,1.3839646464646465,9.0,35.035839423051556,9.0
subject-04,1,710,1.1900908946991,clock,oven,0,0_oven_10_n04111531_22886.png,False,1.1014596448051914,1.5434561967849731,0.5,-1.0036679098611543,2.468095064163208,0.0625,-4.412904515390311,29.348663687705994,10.0,1.3839646464646465,9.0,35.035839423051556,9.0
subject-01,1,573,1.11252593994141,clock,oven,0,0_oven_10_n04111531_22886.png,False,0.6316165315925463,1.5434561967849731,0.5,-1.0036679098611543,2.468095064163208,0.0625,-4.412904515390311,29.348663687705994,10.0,1.3839646464646465,9.0,35.035839423051556,9.0
subject-02,1,868,1.27292203903198,chair,oven,0,0_oven_10_n04111531_22886.png,False,1.2008836908774327,1.5434561967849731,0.5,-1.0036679098611543,2.468095064163208,0.0625,-4.412904515390311,29.348663687705994,10.0,1.3839646464646465,9.0,35.035839423051556,9.0
subject-03,1,71,0.924815893173218,bicycle,bicycle,0,0_bicycle_10_n02835271_4963.png,True,0.5404879811168363,0.0544623285531997,1.0,-0.006295188606592466,2.455230712890625,1.0,-1.7773942073408495,24.5606227517128,9.0,8.75,6.0,17.61665382229314,8.0
subject-04,1,568,0.77134895324707,bicycle,bicycle,0,0_bicycle_10_n02835271_4963.png,True,-0.5905342651204694,0.0544623285531997,1.0,-0.006295188606592466,2.455230712890625,1.0,-1.7773942073408495,24.5606227517128,9.0,8.75,6.0,17.61665382229314,8.0
subject-01,1,375,1.0839569568634,bicycle,bicycle,0,0_bicycle_10_n02835271_4963.png,True,0.49179149237752423,0.0544623285531997,1.0,-0.006295188606592466,2.455230712890625,1.0,-1.7773942073408495,24.5606227517128,9.0,8.75,6.0,17.61665382229314,8.0
subject-02,1,556,0.841462850570679,bicycle,bicycle,0,0_bicycle_10_n02835271_4963.png,True,-0.7534326653845933,0.0544623285531997,1.0,-0.006295188606592466,2.455230712890625,1.0,-1.7773942073408495,24.5606227517128,9.0,8.75,6.0,17.61665382229314,8.0
subject-03,1,72,0.806611776351929,dog,dog,60,60_dog_10_n02090721_1105.png,True,-0.07613467532060524,0.8741785287857056,1.0,-0.17647155403028456,2.456261157989502,0.25,-2.479952177836523,26.680388689041138,9.0,3.5484126984126982,9.0,26.642716728279865,9.0
subject-04,1,431,0.988744020462036,dog,dog,60,60_dog_10_n02090721_1105.png,True,0.2878853374159056,0.8741785287857056,1.0,-0.17647155403028456,2.456261157989502,0.25,-2.479952177836523,26.680388689041138,9.0,3.5484126984126982,9.0,26.642716728279865,9.0
subject-01,1,674,0.765188932418823,dog,dog,60,60_dog_10_n02090721_1105.png,True,-1.0683533471063011,0.8741785287857056,1.0,-0.17647155403028456,2.456261157989502,0.25,-2.479952177836523,26.680388689041138,9.0,3.5484126984126982,9.0,26.642716728279865,9.0
subject-02,1,765,1.01900601387024,dog,dog,60,60_dog_10_n02090721_1105.png,True,0.05075813007914298,0.8741785287857056,1.0,-0.17647155403028456,2.456261157989502,0.25,-2.479952177836523,26.680388689041138,9.0,3.5484126984126982,9.0,26.642716728279865,9.0
subject-03,1,73,0.750670909881592,truck,truck,30,30_truck_10_n04467665_6523.png,True,-0.3679553547856276,0.1063546165823936,1.0,-0.013669208956846016,2.466719150543213,0.2,-2.536298779834845,26.15757914632559,9.0,3.8952380952380947,8.0,25.859547422290998,9.0
subject-04,1,183,0.740430116653442,truck,truck,30,30_truck_10_n04467665_6523.png,True,-0.715466778536726,0.1063546165823936,1.0,-0.013669208956846016,2.466719150543213,0.2,-2.536298779834845,26.15757914632559,9.0,3.8952380952380947,8.0,25.859547422290998,9.0
subject-01,1,276,0.877709865570068,truck,truck,30,30_truck_10_n04467665_6523.png,True,-0.5176426743664716,0.1063546165823936,1.0,-0.013669208956846016,2.466719150543213,0.2,-2.536298779834845,26.15757914632559,9.0,3.8952380952380947,8.0,25.859547422290998,9.0
subject-02,1,79,1.10153293609619,truck,truck,30,30_truck_10_n04467665_6523.png,True,0.42456802508524877,0.1063546165823936,1.0,-0.013669208956846016,2.466719150543213,0.2,-2.536298779834845,26.15757914632559,9.0,3.8952380952380947,8.0,25.859547422290998,9.0
subject-03,1,74,1.14062905311584,car,car,120,120_car_10_n04285008_13247.png,True,1.666297196198343,2.5261807441711426,0.1111111111111111,-2.992222273415798,2.541107654571533,0.0666666666666666,-3.9784433855941432,30.607975244522095,8.0,0.08862942612942579,10.0,46.90072165428453,0.0
subject-04,1,554,1.50014209747314,car,car,120,120_car_10_n04285008_13247.png,True,2.3542712094640406,2.5261807441711426,0.1111111111111111,-2.992222273415798,2.541107654571533,0.0666666666666666,-3.9784433855941432,30.607975244522095,8.0,0.08862942612942579,10.0,46.90072165428453,0.0
subject-01,1,1083,1.20394206047058,bottle,car,120,120_car_10_n04285008_13247.png,False,1.079034019396481,2.5261807441711426,0.1111111111111111,-2.992222273415798,2.541107654571533,0.0666666666666666,-3.9784433855941432,30.607975244522095,8.0,0.08862942612942579,10.0,46.90072165428453,0.0
subject-02,1,294,0.773514986038208,bottle,car,120,120_car_10_n04285008_13247.png,False,-1.0612059764651964,2.5261807441711426,0.1111111111111111,-2.992222273415798,2.541107654571533,0.0666666666666666,-3.9784433855941432,30.607975244522095,8.0,0.08862942612942579,10.0,46.90072165428453,0.0
subject-03,1,75,0.692528009414673,cat,cat,90,90_cat_10_n02123597_13823.png,True,-0.671263147297574,0.270398199558258,1.0,-0.04066631185669599,2.480382919311523,0.2,-2.6165623924729267,27.154985010623932,9.0,4.484523809523809,7.0,27.737738983142762,9.0
subject-04,1,827,0.881642818450928,cat,cat,90,90_cat_10_n02123597_13823.png,True,-0.14487423025513513,0.270398199558258,1.0,-0.04066631185669599,2.480382919311523,0.2,-2.6165623924729267,27.154985010623932,9.0,4.484523809523809,7.0,27.737738983142762,9.0
subject-01,1,759,0.69879412651062,cat,cat,90,90_cat_10_n02123597_13823.png,True,-1.393309132702115,0.270398199558258,1.0,-0.04066631185669599,2.480382919311523,0.2,-2.6165623924729267,27.154985010623932,9.0,4.484523809523809,7.0,27.737738983142762,9.0
subject-02,1,1056,1.33186602592468,dog,cat,90,90_cat_10_n02123597_13823.png,False,1.467873479873502,0.270398199558258,1.0,-0.04066631185669599,2.480382919311523,0.2,-2.6165623924729267,27.154985010623932,9.0,4.484523809523809,7.0,27.737738983142762,9.0
subject-03,1,76,0.595971822738647,keyboard,keyboard,0,0_keyboard_10_n04505470_1342.png,True,-1.174957383376139,0.0170677471905946,1.0,-0.0016974900885179103,2.5371804237365723,0.2,-2.510996993879191,23.330407427623868,9.0,5.940909090909091,5.0,21.796931191097002,5.0
subject-04,1,1094,0.555257081985474,keyboard,keyboard,0,0_keyboard_10_n04505470_1342.png,True,-1.4636880955947102,0.0170677471905946,1.0,-0.0016974900885179103,2.5371804237365723,0.2,-2.510996993879191,23.330407427623868,9.0,5.940909090909091,5.0,21.796931191097002,5.0
subject-01,1,582,1.0768301486969,keyboard,keyboard,0,0_keyboard_10_n04505470_1342.png,True,0.45691078876137714,0.0170677471905946,1.0,-0.0016974900885179103,2.5371804237365723,0.2,-2.510996993879191,23.330407427623868,9.0,5.940909090909091,5.0,21.796931191097002,5.0
subject-02,1,731,0.737578153610229,keyboard,keyboard,0,0_keyboard_10_n04505470_1342.png,True,-1.2239836882036177,0.0170677471905946,1.0,-0.0016974900885179103,2.5371804237365723,0.2,-2.510996993879191,23.330407427623868,9.0,5.940909090909091,5.0,21.796931191097002,5.0
subject-03,1,77,0.622269868850708,car,car,120,120_car_10_n04285008_3884.png,True,-1.0377712050195083,2.4426002502441406,0.1111111111111111,-3.1162077370474277,2.496912956237793,0.0769230769230769,-3.7131685781055244,30.69095802307129,10.0,0.14366605616605588,10.0,44.78292212277795,0.0
subject-04,1,339,0.75633692741394,car,car,120,120_car_10_n04285008_3884.png,True,-0.6511927608928887,2.4426002502441406,0.1111111111111111,-3.1162077370474277,2.496912956237793,0.0769230769230769,-3.7131685781055244,30.69095802307129,10.0,0.14366605616605588,10.0,44.78292212277795,0.0
subject-01,1,537,0.868230819702148,car,car,120,120_car_10_n04285008_3884.png,True,-0.5640359238770956,2.4426002502441406,0.1111111111111111,-3.1162077370474277,2.496912956237793,0.0769230769230769,-3.7131685781055244,30.69095802307129,10.0,0.14366605616605588,10.0,44.78292212277795,0.0
subject-02,1,83,0.962284088134766,oven,car,120,120_car_10_n04285008_3884.png,False,-0.2061667197979607,2.4426002502441406,0.1111111111111111,-3.1162077370474277,2.496912956237793,0.0769230769230769,-3.7131685781055244,30.69095802307129,10.0,0.14366605616605588,10.0,44.78292212277795,0.0
subject-03,1,78,0.767457962036133,elephant,elephant,60,60_elephant_10_n02504458_6715.png,True,-0.28038415192357413,0.0377811454236507,1.0,-0.00415980549184638,2.478414535522461,0.5,-2.0529348958464393,25.266019459813833,9.0,7.791666666666666,1.0,21.068462215680253,9.0
subject-04,1,634,0.870537042617798,elephant,elephant,60,60_elephant_10_n02504458_6715.png,True,-0.18974889699975633,0.0377811454236507,1.0,-0.00415980549184638,2.478414535522461,0.5,-2.0529348958464393,25.266019459813833,9.0,7.791666666666666,1.0,21.068462215680253,9.0
subject-01,1,1086,0.88938307762146,elephant,elephant,60,60_elephant_10_n02504458_6715.png,True,-0.4605105276465739,0.0377811454236507,1.0,-0.00415980549184638,2.478414535522461,0.5,-2.0529348958464393,25.266019459813833,9.0,7.791666666666666,1.0,21.068462215680253,9.0
subject-02,1,28,1.17543005943298,elephant,elephant,60,60_elephant_10_n02504458_6715.png,True,0.7592888067490615,0.0377811454236507,1.0,-0.00415980549184638,2.478414535522461,0.5,-2.0529348958464393,25.266019459813833,9.0,7.791666666666666,1.0,21.068462215680253,9.0
subject-03,1,79,0.707731008529663,bear,bird,150,150_bird_10_n01833805_30804.png,False,-0.5919553029331142,2.5098297595977783,0.25,-2.687339180476698,2.5264835357666016,0.1,-3.2636278074182306,30.824486017227173,10.0,0.9959706959706958,7.0,37.909962604954735,6.0
subject-04,1,511,0.971612930297852,clock,bird,150,150_bird_10_n01833805_30804.png,False,0.21866442267381914,2.5098297595977783,0.25,-2.687339180476698,2.5264835357666016,0.1,-3.2636278074182306,30.824486017227173,10.0,0.9959706959706958,7.0,37.909962604954735,6.0
subject-01,1,862,1.11320304870605,dog,bird,150,150_bird_10_n01833805_30804.png,False,0.6349305018276821,2.5098297595977783,0.25,-2.687339180476698,2.5264835357666016,0.1,-3.2636278074182306,30.824486017227173,10.0,0.9959706959706958,7.0,37.909962604954735,6.0
subject-02,1,1067,1.14764499664307,bicycle,bird,150,150_bird_10_n01833805_30804.png,False,0.6334349505274802,2.5098297595977783,0.25,-2.687339180476698,2.5264835357666016,0.1,-3.2636278074182306,30.824486017227173,10.0,0.9959706959706958,7.0,37.909962604954735,6.0
subject-03,1,80,0.559151172637939,cat,cat,30,30_cat_10_n02123045_11826.png,True,-1.3670356940764223,0.0828981548547744,1.0,-0.010241199710479753,2.538968324661255,0.1666666666666666,-2.6235382658706246,24.583556704223156,9.0,5.281818181818181,6.0,23.910508812718774,5.0
subject-04,1,485,0.588352918624878,cat,cat,30,30_cat_10_n02123045_11826.png,True,-1.3299590646703474,0.0828981548547744,1.0,-0.010241199710479753,2.538968324661255,0.1666666666666666,-2.6235382658706246,24.583556704223156,9.0,5.281818181818181,6.0,23.910508812718774,5.0
subject-01,1,371,0.775125980377197,cat,cat,30,30_cat_10_n02123045_11826.png,True,-1.0197185001232216,0.0828981548547744,1.0,-0.010241199710479753,2.538968324661255,0.1666666666666666,-2.6235382658706246,24.583556704223156,9.0,5.281818181818181,6.0,23.910508812718774,5.0
subject-02,1,109,0.707863092422485,cat,cat,30,30_cat_10_n02123045_11826.png,True,-1.3585795704089259,0.0828981548547744,1.0,-0.010241199710479753,2.538968324661255,0.1666666666666666,-2.6235382658706246,24.583556704223156,9.0,5.281818181818181,6.0,23.910508812718774,5.0
subject-03,1,81,0.88870096206665,airplane,airplane,90,90_airplane_10_n02690373_1854.png,True,0.3520911185130085,2.5325722694396973,0.5,-2.052530980883617,2.50862455368042,0.25,-2.33537679336511,30.738208532333374,9.0,1.5098346098346096,9.0,35.62771666113268,3.0
subject-04,1,294,1.12123107910156,boat,airplane,90,90_airplane_10_n02690373_1854.png,False,0.8232205263982076,2.5325722694396973,0.5,-2.052530980883617,2.50862455368042,0.25,-2.33537679336511,30.738208532333374,9.0,1.5098346098346096,9.0,35.62771666113268,3.0
subject-01,1,557,1.07283902168274,airplane,airplane,90,90_airplane_10_n02690373_1854.png,True,0.43737703462867844,2.5325722694396973,0.5,-2.052530980883617,2.50862455368042,0.25,-2.33537679336511,30.738208532333374,9.0,1.5098346098346096,9.0,35.62771666113268,3.0
subject-02,1,855,1.09535694122314,knife,airplane,90,90_airplane_10_n02690373_1854.png,False,0.39659354193740737,2.5325722694396973,0.5,-2.052530980883617,2.50862455368042,0.25,-2.33537679336511,30.738208532333374,9.0,1.5098346098346096,9.0,35.62771666113268,3.0
subject-03,1,82,0.814389944076538,truck,truck,90,90_truck_10_n03796401_6772.png,True,-0.03555914738179729,2.1323800086975098,1.0,-0.9348458122731691,2.550494909286499,0.1666666666666666,-2.7481992612053725,30.46577215194702,10.0,2.4670995670995666,10.0,30.81105435052134,10.0
subject-04,1,354,1.04370403289795,truck,truck,90,90_truck_10_n03796401_6772.png,True,0.5099600739673626,2.1323800086975098,1.0,-0.9348458122731691,2.550494909286499,0.1666666666666666,-2.7481992612053725,30.46577215194702,10.0,2.4670995670995666,10.0,30.81105435052134,10.0
subject-01,1,1082,0.946112155914307,truck,truck,90,90_truck_10_n03796401_6772.png,True,-0.18286166715791058,2.1323800086975098,1.0,-0.9348458122731691,2.550494909286499,0.1666666666666666,-2.7481992612053725,30.46577215194702,10.0,2.4670995670995666,10.0,30.81105435052134,10.0
subject-02,1,274,1.2350389957428,truck,truck,90,90_truck_10_n03796401_6772.png,True,1.0292905179772174,2.1323800086975098,1.0,-0.9348458122731691,2.550494909286499,0.1666666666666666,-2.7481992612053725,30.46577215194702,10.0,2.4670995670995666,10.0,30.81105435052134,10.0
subject-03,1,83,0.616265058517456,boat,bear,150,150_bear_10_n02134084_3860.png,False,-1.0690958508835002,2.5472869873046875,0.25,-2.4569157801477113,2.558755397796631,0.5,-1.920663695219344,30.968847036361694,5.0,7.583333333333333,3.0,24.327304728138206,5.0
subject-04,1,871,0.69334602355957,oven,bear,150,150_bear_10_n02134084_3860.png,False,-0.905717601019314,2.5472869873046875,0.25,-2.4569157801477113,2.558755397796631,0.5,-1.920663695219344,30.968847036361694,5.0,7.583333333333333,3.0,24.327304728138206,5.0
subject-01,1,1013,0.925686120986938,cat,bear,150,150_bear_10_n02134084_3860.png,False,-0.28283271362211365,2.5472869873046875,0.25,-2.4569157801477113,2.558755397796631,0.5,-1.920663695219344,30.968847036361694,5.0,7.583333333333333,3.0,24.327304728138206,5.0
subject-02,1,689,1.03745007514954,car,bear,150,150_bear_10_n02134084_3860.png,False,0.13430144448295273,2.5472869873046875,0.25,-2.4569157801477113,2.558755397796631,0.5,-1.920663695219344,30.968847036361694,5.0,7.583333333333333,3.0,24.327304728138206,5.0
subject-03,1,84,0.710241079330444,bird,bird,0,0_bird_10_n02011460_5925.png,True,-0.5788612875413854,0.4710332155227661,1.0,-0.07997115982414583,2.4433555603027344,0.0833333333333333,-3.4699851328285782,26.010396987199783,9.0,3.2738095238095237,8.0,32.742908805699216,9.0
subject-04,1,1039,1.49999308586121,bird,bird,0,0_bird_10_n02011460_5925.png,True,2.3536691041697404,0.4710332155227661,1.0,-0.07997115982414583,2.4433555603027344,0.0833333333333333,-3.4699851328285782,26.010396987199783,9.0,3.2738095238095237,8.0,32.742908805699216,9.0
subject-01,1,150,1.08734488487244,bird,bird,0,0_bird_10_n02011460_5925.png,True,0.5083730124627222,0.4710332155227661,1.0,-0.07997115982414583,2.4433555603027344,0.0833333333333333,-3.4699851328285782,26.010396987199783,9.0,3.2738095238095237,8.0,32.742908805699216,9.0
subject-02,1,1060,1.07119393348694,bird,bird,0,0_bird_10_n02011460_5925.png,True,0.2871459684513761,0.4710332155227661,1.0,-0.07997115982414583,2.4433555603027344,0.0833333333333333,-3.4699851328285782,26.010396987199783,9.0,3.2738095238095237,8.0,32.742908805699216,9.0
subject-03,1,85,0.815810203552246,bicycle,bicycle,90,90_bicycle_10_n02835271_22739.png,True,-0.028150233087673553,0.1434469223022461,1.0,-0.019223826308860513,2.5088329315185547,0.25,-2.1556408419358903,26.259964048862457,9.0,6.866666666666666,6.0,21.027117231849427,9.0
subject-04,1,618,0.793496131896973,bicycle,bicycle,90,90_bicycle_10_n02835271_22739.png,True,-0.5010450411183776,0.1434469223022461,1.0,-0.019223826308860513,2.5088329315185547,0.25,-2.1556408419358903,26.259964048862457,9.0,6.866666666666666,6.0,21.027117231849427,9.0
subject-01,1,836,0.864227056503296,bicycle,bicycle,90,90_bicycle_10_n02835271_22739.png,True,-0.5836315232289692,0.1434469223022461,1.0,-0.019223826308860513,2.5088329315185547,0.25,-2.1556408419358903,26.259964048862457,9.0,6.866666666666666,6.0,21.027117231849427,9.0
subject-02,1,327,0.70650315284729,bicycle,bicycle,90,90_bicycle_10_n02835271_22739.png,True,-1.3647394859383872,0.1434469223022461,1.0,-0.019223826308860513,2.5088329315185547,0.25,-2.1556408419358903,26.259964048862457,9.0,6.866666666666666,6.0,21.027117231849427,9.0
subject-03,1,86,0.821799993515015,airplane,boat,120,120_boat_10_n03662601_7885.png,False,0.0030960576310245184,0.8138002157211304,1.0,-0.1693858797731343,2.49448299407959,0.5,-1.9895761191657013,28.18510067462921,10.0,5.837301587301587,7.0,23.83464219856136,9.0
subject-04,1,1081,1.12381386756897,truck,boat,120,120_boat_10_n03662601_7885.png,False,0.8336566970438567,0.8138002157211304,1.0,-0.1693858797731343,2.49448299407959,0.5,-1.9895761191657013,28.18510067462921,10.0,5.837301587301587,7.0,23.83464219856136,9.0
subject-01,1,388,0.763463973999023,boat,boat,120,120_boat_10_n03662601_7885.png,True,-1.0767958029695086,0.8138002157211304,1.0,-0.1693858797731343,2.49448299407959,0.5,-1.9895761191657013,28.18510067462921,10.0,5.837301587301587,7.0,23.83464219856136,9.0
subject-02,1,284,0.835326910018921,boat,boat,120,120_boat_10_n03662601_7885.png,True,-0.7812257204452986,0.8138002157211304,1.0,-0.1693858797731343,2.49448299407959,0.5,-1.9895761191657013,28.18510067462921,10.0,5.837301587301587,7.0,23.83464219856136,9.0
subject-03,1,87,0.92209005355835,cat,cat,90,90_cat_10_n02123045_12691.png,True,0.5262683878442644,0.0755669027566909,1.0,-0.009085798358067936,2.4387803077697754,0.2,-2.77408699355537,25.147753570228815,9.0,4.576165501165502,7.0,26.521612465635634,9.0
subject-04,1,1113,0.579801082611084,cat,cat,90,90_cat_10_n02123045_12691.png,True,-1.3645141283543134,0.0755669027566909,1.0,-0.009085798358067936,2.4387803077697754,0.2,-2.77408699355537,25.147753570228815,9.0,4.576165501165502,7.0,26.521612465635634,9.0
subject-01,1,1073,0.639853000640869,cat,cat,90,90_cat_10_n02123045_12691.png,True,-1.6817844072196404,0.0755669027566909,1.0,-0.009085798358067936,2.4387803077697754,0.2,-2.77408699355537,25.147753570228815,9.0,4.576165501165502,7.0,26.521612465635634,9.0
subject-02,1,1012,0.706377029418945,cat,cat,90,90_cat_10_n02123045_12691.png,True,-1.3653107684270083,0.0755669027566909,1.0,-0.009085798358067936,2.4387803077697754,0.2,-2.77408699355537,25.147753570228815,9.0,4.576165501165502,7.0,26.521612465635634,9.0
subject-03,1,88,0.857363939285278,bottle,knife,60,60_knife_10_n03041632_105581.png,False,0.18861865450818424,1.8005428314208984,1.0,-1.0366534133209606,2.5318541526794434,0.1,-3.1956516632373604,30.03834080696106,10.0,3.3777777777777778,10.0,28.88752858136428,10.0
subject-04,1,562,1.36408996582031,clock,knife,60,60_knife_10_n03041632_105581.png,False,1.8045307717358468,1.8005428314208984,1.0,-1.0366534133209606,2.5318541526794434,0.1,-3.1956516632373604,30.03834080696106,10.0,3.3777777777777778,10.0,28.88752858136428,10.0
subject-01,1,994,0.855355978012085,oven,knife,60,60_knife_10_n03041632_105581.png,False,-0.6270492008735009,1.8005428314208984,1.0,-1.0366534133209606,2.5318541526794434,0.1,-3.1956516632373604,30.03834080696106,10.0,3.3777777777777778,10.0,28.88752858136428,10.0
subject-02,1,223,1.35287880897522,oven,knife,60,60_knife_10_n03041632_105581.png,False,1.5630519502931652,1.8005428314208984,1.0,-1.0366534133209606,2.5318541526794434,0.1,-3.1956516632373604,30.03834080696106,10.0,3.3777777777777778,10.0,28.88752858136428,10.0
subject-03,1,89,0.849536895751953,knife,car,120,120_car_10_n03100240_14794.png,False,0.14778816141404605,1.3023512363433838,0.1111111111111111,-4.717896941270972,2.6131703853607178,0.0714285714285714,-3.5501458135157633,29.332205295562744,10.0,0.2581349206349204,8.0,46.548329582393166,7.0
subject-04,1,913,0.677315950393677,cat,car,120,120_car_10_n03100240_14794.png,False,-0.9704896801626228,1.3023512363433838,0.1111111111111111,-4.717896941270972,2.6131703853607178,0.0714285714285714,-3.5501458135157633,29.332205295562744,10.0,0.2581349206349204,8.0,46.548329582393166,7.0
subject-01,1,508,0.775722026824951,keyboard,car,120,120_car_10_n03100240_14794.png,False,-1.0168012728035236,1.3023512363433838,0.1111111111111111,-4.717896941270972,2.6131703853607178,0.0714285714285714,-3.5501458135157633,29.332205295562744,10.0,0.2581349206349204,8.0,46.548329582393166,7.0
subject-02,1,901,0.892040014266968,knife,car,120,120_car_10_n03100240_14794.png,False,-0.5243408279445265,1.3023512363433838,0.1111111111111111,-4.717896941270972,2.6131703853607178,0.0714285714285714,-3.5501458135157633,29.332205295562744,10.0,0.2581349206349204,8.0,46.548329582393166,7.0
subject-03,1,90,0.628738880157471,truck,truck,60,60_truck_10_n03796401_8037.png,True,-1.0040250120461207,0.1505350470542907,1.0,-0.02043127954181276,2.5310733318328857,0.1666666666666666,-2.4979261386978022,26.328302204608917,9.0,4.026190476190476,8.0,24.585556743377985,9.0
subject-04,1,500,1.311763048172,truck,truck,60,60_truck_10_n03796401_8037.png,True,1.593095476577421,0.1505350470542907,1.0,-0.02043127954181276,2.5310733318328857,0.1666666666666666,-2.4979261386978022,26.328302204608917,9.0,4.026190476190476,8.0,24.585556743377985,9.0
subject-01,1,678,0.844531059265137,truck,truck,60,60_truck_10_n03796401_8037.png,True,-0.680029549672001,0.1505350470542907,1.0,-0.02043127954181276,2.5310733318328857,0.1666666666666666,-2.4979261386978022,26.328302204608917,9.0,4.026190476190476,8.0,24.585556743377985,9.0
subject-02,1,648,0.803308010101318,truck,truck,60,60_truck_10_n03796401_8037.png,True,-0.9262569574474535,0.1505350470542907,1.0,-0.02043127954181276,2.5310733318328857,0.1666666666666666,-2.4979261386978022,26.328302204608917,9.0,4.026190476190476,8.0,24.585556743377985,9.0
subject-03,1,91,0.754711151123047,knife,knife,90,90_knife_10_n03041632_24100.png,True,-0.3468790644334004,0.8786322474479675,1.0,-0.1907122300834191,2.6030895709991455,0.125,-2.914364941737083,27.577030956745148,9.0,5.847222222222222,5.0,23.529569089521786,5.0
subject-04,1,603,0.806818008422852,knife,knife,90,90_knife_10_n03041632_24100.png,True,-0.44721586443641603,0.8786322474479675,1.0,-0.1907122300834191,2.6030895709991455,0.125,-2.914364941737083,27.577030956745148,9.0,5.847222222222222,5.0,23.529569089521786,5.0
subject-01,1,902,0.834068059921265,knife,knife,90,90_knife_10_n03041632_24100.png,True,-0.731238558041982,0.8786322474479675,1.0,-0.1907122300834191,2.6030895709991455,0.125,-2.914364941737083,27.577030956745148,9.0,5.847222222222222,5.0,23.529569089521786,5.0
subject-02,1,644,0.954042911529541,knife,knife,90,90_knife_10_n03041632_24100.png,True,-0.2434955487235258,0.8786322474479675,1.0,-0.1907122300834191,2.6030895709991455,0.125,-2.914364941737083,27.577030956745148,9.0,5.847222222222222,5.0,23.529569089521786,5.0
subject-03,1,92,0.612522840499878,boat,boat,60,60_boat_10_n03344393_3499.png,True,-1.0886174756544524,0.4417596161365509,1.0,-0.0786600167087654,2.499765396118164,0.5,-1.8729908036088845,26.633185535669327,9.0,6.701190476190476,5.0,22.580911272922794,9.0
subject-04,1,238,0.690124034881592,boat,boat,60,60_boat_10_n03344393_3499.png,True,-0.9187365625355266,0.4417596161365509,1.0,-0.0786600167087654,2.499765396118164,0.5,-1.8729908036088845,26.633185535669327,9.0,6.701190476190476,5.0,22.580911272922794,9.0
subject-01,1,466,0.728866100311279,boat,boat,60,60_boat_10_n03344393_3499.png,True,-1.2461280130777779,0.4417596161365509,1.0,-0.0786600167087654,2.499765396118164,0.5,-1.8729908036088845,26.633185535669327,9.0,6.701190476190476,5.0,22.580911272922794,9.0
subject-02,1,264,0.955064058303833,boat,boat,60,60_boat_10_n03344393_3499.png,True,-0.23887021243097853,0.4417596161365509,1.0,-0.0786600167087654,2.499765396118164,0.5,-1.8729908036088845,26.633185535669327,9.0,6.701190476190476,5.0,22.580911272922794,9.0
subject-03,1,93,0.680482864379883,clock,clock,180,180_clock_10_n02708093_960.png,True,-0.7340977551628454,2.6541872024536133,1.0,-1.9427129612674514,2.585411071777344,0.125,-2.934846309004738,31.294891119003296,9.0,4.876190476190477,6.0,35.60338057973488,6.0
