subject_id,session,trial,rt,object_response,category,condition,item_id,response_correct,rt_zscore,output_entropy,output_rank_correct,output_logprob_correct,midpoint_entropy,midpoint_rank_correct,midpoint_logprob_correct,auc_entropy,layer_biggest_change_entropy,auc_rank_correct,layer_biggest_change_rank_correct,auc_logprob_correct,layer_biggest_change_logprob_correct
subject-02,1,1,1.4882390499115,bear,bear,0,bear3.png,True,2.236266491909835,1.3393901586532593,0.1,-4.657837519667407,1.890092730522156,0.1,-4.214235411438857,26.709384202957153,10.0,0.5642246642246639,0.0,42.836084711147606,0.0
subject-06,1,152,0.783299922943115,bear,bear,0,bear3.png,True,-0.3848132282371456,1.3393901586532593,0.1,-4.657837519667407,1.890092730522156,0.1,-4.214235411438857,26.709384202957153,10.0,0.5642246642246639,0.0,42.836084711147606,0.0
subject-01,1,134,0.748464107513428,bear,bear,0,bear3.png,True,-0.2784406445045133,1.3393901586532593,0.1,-4.657837519667407,1.890092730522156,0.1,-4.214235411438857,26.709384202957153,10.0,0.5642246642246639,0.0,42.836084711147606,0.0
subject-05,1,104,1.38831210136414,dog,bear,0,bear3.png,False,1.6777434427538067,1.3393901586532593,0.1,-4.657837519667407,1.890092730522156,0.1,-4.214235411438857,26.709384202957153,10.0,0.5642246642246639,0.0,42.836084711147606,0.0
subject-08,1,61,1.22859907150269,bear,bear,0,bear3.png,True,1.138021264602907,1.3393901586532593,0.1,-4.657837519667407,1.890092730522156,0.1,-4.214235411438857,26.709384202957153,10.0,0.5642246642246639,0.0,42.836084711147606,0.0
subject-09,1,60,0.51078200340271,elephant,bear,0,bear3.png,False,-1.5002717911041625,1.3393901586532593,0.1,-4.657837519667407,1.890092730522156,0.1,-4.214235411438857,26.709384202957153,10.0,0.5642246642246639,0.0,42.836084711147606,0.0
subject-04,1,154,0.992640972137451,bear,bear,0,bear3.png,True,0.3006273619308012,1.3393901586532593,0.1,-4.657837519667407,1.890092730522156,0.1,-4.214235411438857,26.709384202957153,10.0,0.5642246642246639,0.0,42.836084711147606,0.0
subject-10,1,49,0.646453857421875,bear,bear,0,bear3.png,True,-0.9117894400005704,1.3393901586532593,0.1,-4.657837519667407,1.890092730522156,0.1,-4.214235411438857,26.709384202957153,10.0,0.5642246642246639,0.0,42.836084711147606,0.0
subject-07,1,145,0.634361982345581,bear,bear,0,bear3.png,True,-1.0283254384695353,1.3393901586532593,0.1,-4.657837519667407,1.890092730522156,0.1,-4.214235411438857,26.709384202957153,10.0,0.5642246642246639,0.0,42.836084711147606,0.0
subject-03,1,154,0.667145013809204,bear,bear,0,bear3.png,True,-0.5712462306135512,1.3393901586532593,0.1,-4.657837519667407,1.890092730522156,0.1,-4.214235411438857,26.709384202957153,10.0,0.5642246642246639,0.0,42.836084711147606,0.0
subject-02,1,2,0.756563901901245,airplane,airplane,0,airplane2.png,True,-0.9474271300923377,0.1645315885543823,1.0,-0.026007845974765846,1.8910377025604248,0.3333333333333333,-1.8058187975630529,25.384248852729797,10.0,4.699999999999999,0.0,23.487848896476102,10.0
subject-06,1,78,1.25446915626526,airplane,airplane,0,airplane2.png,True,1.5776310794930548,0.1645315885543823,1.0,-0.026007845974765846,1.8910377025604248,0.3333333333333333,-1.8058187975630529,25.384248852729797,10.0,4.699999999999999,0.0,23.487848896476102,10.0
subject-01,1,81,0.892848014831543,airplane,airplane,0,airplane2.png,True,0.6231568725353028,0.1645315885543823,1.0,-0.026007845974765846,1.8910377025604248,0.3333333333333333,-1.8058187975630529,25.384248852729797,10.0,4.699999999999999,0.0,23.487848896476102,10.0
subject-05,1,132,1.34412407875061,airplane,airplane,0,airplane2.png,True,1.4522172155341002,0.1645315885543823,1.0,-0.026007845974765846,1.8910377025604248,0.3333333333333333,-1.8058187975630529,25.384248852729797,10.0,4.699999999999999,0.0,23.487848896476102,10.0
subject-08,1,124,1.41381001472473,cat,airplane,0,airplane2.png,False,1.9125926963267113,0.1645315885543823,1.0,-0.026007845974765846,1.8910377025604248,0.3333333333333333,-1.8058187975630529,25.384248852729797,10.0,4.699999999999999,0.0,23.487848896476102,10.0
subject-09,1,117,0.757713079452515,airplane,airplane,0,airplane2.png,True,-0.458367023176171,0.1645315885543823,1.0,-0.026007845974765846,1.8910377025604248,0.3333333333333333,-1.8058187975630529,25.384248852729797,10.0,4.699999999999999,0.0,23.487848896476102,10.0
subject-04,1,1,1.06918811798096,airplane,airplane,0,airplane2.png,True,0.7975899552708671,0.1645315885543823,1.0,-0.026007845974765846,1.8910377025604248,0.3333333333333333,-1.8058187975630529,25.384248852729797,10.0,4.699999999999999,0.0,23.487848896476102,10.0
subject-10,1,107,0.818277835845947,airplane,airplane,0,airplane2.png,True,-0.02060930864482752,0.1645315885543823,1.0,-0.026007845974765846,1.8910377025604248,0.3333333333333333,-1.8058187975630529,25.384248852729797,10.0,4.699999999999999,0.0,23.487848896476102,10.0
subject-07,1,63,1.12592601776123,airplane,airplane,0,airplane2.png,True,1.4308509005909915,0.1645315885543823,1.0,-0.026007845974765846,1.8910377025604248,0.3333333333333333,-1.8058187975630529,25.384248852729797,10.0,4.699999999999999,0.0,23.487848896476102,10.0
subject-03,1,50,0.71658992767334,airplane,airplane,0,airplane2.png,True,-0.34782168157529003,0.1645315885543823,1.0,-0.026007845974765846,1.8910377025604248,0.3333333333333333,-1.8058187975630529,25.384248852729797,10.0,4.699999999999999,0.0,23.487848896476102,10.0
subject-02,1,3,0.708386182785034,cat,cat,0,cat6.png,True,-1.1570599124685181,1.67706298828125,0.3333333333333333,-2.688721181732502,1.9069496393203735,0.1428571428571428,-3.7892574939764354,27.14610254764557,10.0,2.3218253968253966,9.0,36.07461608386541,6.0
subject-06,1,138,0.667901992797852,cat,cat,0,cat6.png,True,-0.8654515957737277,1.67706298828125,0.3333333333333333,-2.688721181732502,1.9069496393203735,0.1428571428571428,-3.7892574939764354,27.14610254764557,10.0,2.3218253968253966,9.0,36.07461608386541,6.0
subject-01,1,71,0.894155979156494,cat,cat,0,cat6.png,True,0.6313243851733583,1.67706298828125,0.3333333333333333,-2.688721181732502,1.9069496393203735,0.1428571428571428,-3.7892574939764354,27.14610254764557,10.0,2.3218253968253966,9.0,36.07461608386541,6.0
subject-05,1,144,0.834008932113647,cat,cat,0,cat6.png,True,-1.1513015133948532,1.67706298828125,0.3333333333333333,-2.688721181732502,1.9069496393203735,0.1428571428571428,-3.7892574939764354,27.14610254764557,10.0,2.3218253968253966,9.0,36.07461608386541,6.0
subject-08,1,13,0.73754096031189,cat,cat,0,cat6.png,True,-0.9156348403101346,1.67706298828125,0.3333333333333333,-2.688721181732502,1.9069496393203735,0.1428571428571428,-3.7892574939764354,27.14610254764557,10.0,2.3218253968253966,9.0,36.07461608386541,6.0
subject-09,1,75,1.05202388763428,cat,cat,0,cat6.png,True,0.7834525128771715,1.67706298828125,0.3333333333333333,-2.688721181732502,1.9069496393203735,0.1428571428571428,-3.7892574939764354,27.14610254764557,10.0,2.3218253968253966,9.0,36.07461608386541,6.0
subject-04,1,77,0.936779975891113,cat,cat,0,cat6.png,True,-0.06203574268570985,1.67706298828125,0.3333333333333333,-2.688721181732502,1.9069496393203735,0.1428571428571428,-3.7892574939764354,27.14610254764557,10.0,2.3218253968253966,9.0,36.07461608386541,6.0
subject-10,1,85,0.826597929000854,cat,cat,0,cat6.png,True,0.0225435840927746,1.67706298828125,0.3333333333333333,-2.688721181732502,1.9069496393203735,0.1428571428571428,-3.7892574939764354,27.14610254764557,10.0,2.3218253968253966,9.0,36.07461608386541,6.0
subject-07,1,124,0.628164052963257,cat,cat,0,cat6.png,True,-1.0593321846715669,1.67706298828125,0.3333333333333333,-2.688721181732502,1.9069496393203735,0.1428571428571428,-3.7892574939764354,27.14610254764557,10.0,2.3218253968253966,9.0,36.07461608386541,6.0
subject-03,1,18,0.547772884368896,cat,cat,0,cat6.png,True,-1.110647801040451,1.67706298828125,0.3333333333333333,-2.688721181732502,1.9069496393203735,0.1428571428571428,-3.7892574939764354,27.14610254764557,10.0,2.3218253968253966,9.0,36.07461608386541,6.0
subject-02,1,4,1.10423302650452,chair,chair,0,chair9.png,True,0.5653644107664637,1.512752652168274,0.5,-1.0367161898354553,1.824015498161316,0.0833333333333333,-4.5480888333679905,26.145306825637817,10.0,0.8328144078144075,10.0,44.601473720696184,10.0
subject-06,1,125,0.695960998535156,chair,chair,0,chair9.png,True,-0.7485843807786154,1.512752652168274,0.5,-1.0367161898354553,1.824015498161316,0.0833333333333333,-4.5480888333679905,26.145306825637817,10.0,0.8328144078144075,10.0,44.601473720696184,10.0
subject-01,1,144,0.653154134750366,chair,chair,0,chair9.png,True,-0.8735986256705202,1.512752652168274,0.5,-1.0367161898354553,1.824015498161316,0.0833333333333333,-4.5480888333679905,26.145306825637817,10.0,0.8328144078144075,10.0,44.601473720696184,10.0
subject-05,1,94,0.702850103378296,chair,chair,0,chair9.png,True,-1.8207081548719997,1.512752652168274,0.5,-1.0367161898354553,1.824015498161316,0.0833333333333333,-4.5480888333679905,26.145306825637817,10.0,0.8328144078144075,10.0,44.601473720696184,10.0
subject-08,1,131,1.35749006271362,chair,chair,0,chair9.png,True,1.6770567981505273,1.512752652168274,0.5,-1.0367161898354553,1.824015498161316,0.0833333333333333,-4.5480888333679905,26.145306825637817,10.0,0.8328144078144075,10.0,44.601473720696184,10.0
subject-09,1,25,0.720402956008911,chair,chair,0,chair9.png,True,-0.6157939300270214,1.512752652168274,0.5,-1.0367161898354553,1.824015498161316,0.0833333333333333,-4.5480888333679905,26.145306825637817,10.0,0.8328144078144075,10.0,44.601473720696184,10.0
subject-04,1,44,0.959920167922974,chair,chair,0,chair9.png,True,0.08819598334168113,1.512752652168274,0.5,-1.0367161898354553,1.824015498161316,0.0833333333333333,-4.5480888333679905,26.145306825637817,10.0,0.8328144078144075,10.0,44.601473720696184,10.0
subject-10,1,114,0.689215898513794,chair,chair,0,chair9.png,True,-0.6900003640703096,1.512752652168274,0.5,-1.0367161898354553,1.824015498161316,0.0833333333333333,-4.5480888333679905,26.145306825637817,10.0,0.8328144078144075,10.0,44.601473720696184,10.0
subject-07,1,19,0.765960931777954,chair,chair,0,chair9.png,True,-0.36996762672346545,1.512752652168274,0.5,-1.0367161898354553,1.824015498161316,0.0833333333333333,-4.5480888333679905,26.145306825637817,10.0,0.8328144078144075,10.0,44.601473720696184,10.0
subject-03,1,49,0.61817479133606,chair,chair,0,chair9.png,True,-0.7925258126233298,1.512752652168274,0.5,-1.0367161898354553,1.824015498161316,0.0833333333333333,-4.5480888333679905,26.145306825637817,10.0,0.8328144078144075,10.0,44.601473720696184,10.0
subject-02,1,5,0.856657028198242,bicycle,bicycle,0,bicycle4.png,True,-0.5118979903305197,0.695357084274292,0.5,-2.9308178704972505,1.8589309453964231,0.1,-4.122819439278177,26.384990096092224,10.0,1.790079365079365,9.0,36.18216925480925,6.0
subject-06,1,67,0.756174087524414,bicycle,bicycle,0,bicycle4.png,True,-0.49779374042916313,0.695357084274292,0.5,-2.9308178704972505,1.8589309453964231,0.1,-4.122819439278177,26.384990096092224,10.0,1.790079365079365,9.0,36.18216925480925,6.0
subject-01,1,98,0.742784023284912,bicycle,bicycle,0,bicycle4.png,True,-0.3139096239228621,0.695357084274292,0.5,-2.9308178704972505,1.8589309453964231,0.1,-4.122819439278177,26.384990096092224,10.0,1.790079365079365,9.0,36.18216925480925,6.0
subject-05,1,30,0.849432945251465,bicycle,bicycle,0,bicycle4.png,True,-1.0725806454804296,0.695357084274292,0.5,-2.9308178704972505,1.8589309453964231,0.1,-4.122819439278177,26.384990096092224,10.0,1.790079365079365,9.0,36.18216925480925,6.0
subject-08,1,85,0.674549102783203,bicycle,bicycle,0,bicycle4.png,True,-1.1790733414274424,0.695357084274292,0.5,-2.9308178704972505,1.8589309453964231,0.1,-4.122819439278177,26.384990096092224,10.0,1.790079365079365,9.0,36.18216925480925,6.0
subject-09,1,73,0.889032125473022,bicycle,bicycle,0,bicycle4.png,True,0.09572257282480046,0.695357084274292,0.5,-2.9308178704972505,1.8589309453964231,0.1,-4.122819439278177,26.384990096092224,10.0,1.790079365079365,9.0,36.18216925480925,6.0
subject-04,1,97,0.916872978210449,bicycle,bicycle,0,bicycle4.png,True,-0.1912767886317272,0.695357084274292,0.5,-2.9308178704972505,1.8589309453964231,0.1,-4.122819439278177,26.384990096092224,10.0,1.790079365079365,9.0,36.18216925480925,6.0
subject-10,1,60,0.56698203086853,bicycle,bicycle,0,bicycle4.png,True,-1.323977037310729,0.695357084274292,0.5,-2.9308178704972505,1.8589309453964231,0.1,-4.122819439278177,26.384990096092224,10.0,1.790079365079365,9.0,36.18216925480925,6.0
subject-07,1,97,0.721762895584106,bicycle,bicycle,0,bicycle4.png,True,-0.5910797443928282,0.695357084274292,0.5,-2.9308178704972505,1.8589309453964231,0.1,-4.122819439278177,26.384990096092224,10.0,1.790079365079365,9.0,36.18216925480925,6.0
subject-03,1,82,0.616266012191772,bicycle,bicycle,0,bicycle4.png,True,-0.8011509286605024,0.695357084274292,0.5,-2.9308178704972505,1.8589309453964231,0.1,-4.122819439278177,26.384990096092224,10.0,1.790079365079365,9.0,36.18216925480925,6.0
subject-02,1,6,0.971307039260864,knife,knife,0,knife4.png,True,-0.013028362224150575,0.3789288401603699,1.0,-0.07355843080522316,1.8271369934082031,0.2,-3.2988733324430006,25.19866508245468,10.0,4.302453102453102,8.0,30.893663886465085,10.0
subject-06,1,13,0.711824893951416,knife,knife,0,knife4.png,True,-0.6825104331259655,0.3789288401603699,1.0,-0.07355843080522316,1.8271369934082031,0.2,-3.2988733324430006,25.19866508245468,10.0,4.302453102453102,8.0,30.893663886465085,10.0
subject-01,1,97,1.12074089050293,knife,knife,0,knife4.png,True,2.046221635588762,0.3789288401603699,1.0,-0.07355843080522316,1.8271369934082031,0.2,-3.2988733324430006,25.19866508245468,10.0,4.302453102453102,8.0,30.893663886465085,10.0
subject-05,1,53,1.24139785766602,knife,knife,0,knife4.png,True,0.9279245292474024,0.3789288401603699,1.0,-0.07355843080522316,1.8271369934082031,0.2,-3.2988733324430006,25.19866508245468,10.0,4.302453102453102,8.0,30.893663886465085,10.0
subject-08,1,17,0.865185976028442,knife,knife,0,knife4.png,True,-0.38181010589664577,0.3789288401603699,1.0,-0.07355843080522316,1.8271369934082031,0.2,-3.2988733324430006,25.19866508245468,10.0,4.302453102453102,8.0,30.893663886465085,10.0
subject-09,1,125,1.07684707641602,knife,knife,0,knife4.png,True,0.8881918561814346,0.3789288401603699,1.0,-0.07355843080522316,1.8271369934082031,0.2,-3.2988733324430006,25.19866508245468,10.0,4.302453102453102,8.0,30.893663886465085,10.0
subject-04,1,105,0.921754121780396,knife,knife,0,knife4.png,True,-0.1595872234591059,0.3789288401603699,1.0,-0.07355843080522316,1.8271369934082031,0.2,-3.2988733324430006,25.19866508245468,10.0,4.302453102453102,8.0,30.893663886465085,10.0
subject-10,1,141,0.861316919326782,knife,knife,0,knife4.png,True,0.20261667192941682,0.3789288401603699,1.0,-0.07355843080522316,1.8271369934082031,0.2,-3.2988733324430006,25.19866508245468,10.0,4.302453102453102,8.0,30.893663886465085,10.0
subject-07,1,2,1.16748690605164,knife,knife,0,knife4.png,True,1.6387700031911083,0.3789288401603699,1.0,-0.07355843080522316,1.8271369934082031,0.2,-3.2988733324430006,25.19866508245468,10.0,4.302453102453102,8.0,30.893663886465085,10.0
subject-03,1,88,0.988739013671875,knife,knife,0,knife4.png,True,0.8819263765864891,0.3789288401603699,1.0,-0.07355843080522316,1.8271369934082031,0.2,-3.2988733324430006,25.19866508245468,10.0,4.302453102453102,8.0,30.893663886465085,10.0
subject-02,1,7,0.731976985931396,cat,cat,0,cat3.png,True,-1.0544106838877365,1.6193568706512451,0.125,-4.314182915307242,1.911423683166504,0.1428571428571428,-3.888686927118517,27.029423356056213,10.0,1.6329365079365077,9.0,37.956891540881436,0.0
subject-06,1,49,0.84004020690918,boat,cat,0,cat3.png,False,-0.14848700102767892,1.6193568706512451,0.125,-4.314182915307242,1.911423683166504,0.1428571428571428,-3.888686927118517,27.029423356056213,10.0,1.6329365079365077,9.0,37.956891540881436,0.0
subject-01,1,47,0.635940790176392,cat,cat,0,cat3.png,True,-0.9810864268813033,1.6193568706512451,0.125,-4.314182915307242,1.911423683166504,0.1428571428571428,-3.888686927118517,27.029423356056213,10.0,1.6329365079365077,9.0,37.956891540881436,0.0
subject-05,1,98,1.11084008216858,cat,cat,0,cat3.png,True,0.2615855350892998,1.6193568706512451,0.125,-4.314182915307242,1.911423683166504,0.1428571428571428,-3.888686927118517,27.029423356056213,10.0,1.6329365079365077,9.0,37.956891540881436,0.0
subject-08,1,126,0.964310884475708,car,cat,0,cat3.png,False,0.032740573020004465,1.6193568706512451,0.125,-4.314182915307242,1.911423683166504,0.1428571428571428,-3.888686927118517,27.029423356056213,10.0,1.6329365079365077,9.0,37.956891540881436,0.0
subject-09,1,61,0.69528603553772,cat,cat,0,cat3.png,True,-0.7217726493248868,1.6193568706512451,0.125,-4.314182915307242,1.911423683166504,0.1428571428571428,-3.888686927118517,27.029423356056213,10.0,1.6329365079365077,9.0,37.956891540881436,0.0
subject-04,1,61,0.87791109085083,cat,cat,0,cat3.png,True,-0.4442267891875182,1.6193568706512451,0.125,-4.314182915307242,1.911423683166504,0.1428571428571428,-3.888686927118517,27.029423356056213,10.0,1.6329365079365077,9.0,37.956891540881436,0.0
subject-10,1,52,0.716023921966553,car,cat,0,cat3.png,False,-0.5509581996347167,1.6193568706512451,0.125,-4.314182915307242,1.911423683166504,0.1428571428571428,-3.888686927118517,27.029423356056213,10.0,1.6329365079365077,9.0,37.956891540881436,0.0
subject-07,1,12,0.838085889816284,clock,cat,0,cat3.png,False,-0.009143853044379304,1.6193568706512451,0.125,-4.314182915307242,1.911423683166504,0.1428571428571428,-3.888686927118517,27.029423356056213,10.0,1.6329365079365077,9.0,37.956891540881436,0.0
subject-03,1,109,0.969465970993042,boat,cat,0,cat3.png,False,0.794838129634627,1.6193568706512451,0.125,-4.314182915307242,1.911423683166504,0.1428571428571428,-3.888686927118517,27.029423356056213,10.0,1.6329365079365077,9.0,37.956891540881436,0.0
subject-02,1,8,0.606236934661865,bicycle,bicycle,0,bicycle7.png,True,-1.6015357302223996,0.5015473365783691,0.3333333333333333,-3.8883772652660586,1.8704445362091064,0.1111111111111111,-3.927607423325467,25.925769090652466,10.0,1.4194444444444443,3.0,37.28181204555111,6.0
subject-06,1,72,0.581346035003662,bicycle,bicycle,0,bicycle7.png,True,-1.2259616517374352,0.5015473365783691,0.3333333333333333,-3.8883772652660586,1.8704445362091064,0.1111111111111111,-3.927607423325467,25.925769090652466,10.0,1.4194444444444443,3.0,37.28181204555111,6.0
subject-01,1,83,0.721719026565552,bicycle,bicycle,0,bicycle7.png,True,-0.44544885908694626,0.5015473365783691,0.3333333333333333,-3.8883772652660586,1.8704445362091064,0.1111111111111111,-3.927607423325467,25.925769090652466,10.0,1.4194444444444443,3.0,37.28181204555111,6.0
subject-05,1,82,0.895545959472656,bicycle,bicycle,0,bicycle7.png,True,-0.8372296723447911,0.5015473365783691,0.3333333333333333,-3.8883772652660586,1.8704445362091064,0.1111111111111111,-3.927607423325467,25.925769090652466,10.0,1.4194444444444443,3.0,37.28181204555111,6.0
subject-08,1,47,0.998222827911377,bicycle,bicycle,0,bicycle7.png,True,0.1745638482679056,0.5015473365783691,0.3333333333333333,-3.8883772652660586,1.8704445362091064,0.1111111111111111,-3.927607423325467,25.925769090652466,10.0,1.4194444444444443,3.0,37.28181204555111,6.0
subject-09,1,54,0.580985069274902,bicycle,bicycle,0,bicycle7.png,True,-1.2040558986960044,0.5015473365783691,0.3333333333333333,-3.8883772652660586,1.8704445362091064,0.1111111111111111,-3.927607423325467,25.925769090652466,10.0,1.4194444444444443,3.0,37.28181204555111,6.0
subject-04,1,2,0.81469988822937,bicycle,bicycle,0,bicycle7.png,True,-0.8546092121602347,0.5015473365783691,0.3333333333333333,-3.8883772652660586,1.8704445362091064,0.1111111111111111,-3.927607423325467,25.925769090652466,10.0,1.4194444444444443,3.0,37.28181204555111,6.0
subject-10,1,158,0.62942099571228,bicycle,bicycle,0,bicycle7.png,True,-1.0001318708704778,0.5015473365783691,0.3333333333333333,-3.8883772652660586,1.8704445362091064,0.1111111111111111,-3.927607423325467,25.925769090652466,10.0,1.4194444444444443,3.0,37.28181204555111,6.0
subject-07,1,122,0.667020082473755,bicycle,bicycle,0,bicycle7.png,True,-0.8649448383286688,0.5015473365783691,0.3333333333333333,-3.8883772652660586,1.8704445362091064,0.1111111111111111,-3.927607423325467,25.925769090652466,10.0,1.4194444444444443,3.0,37.28181204555111,6.0
subject-03,1,58,0.6910400390625,bicycle,bicycle,0,bicycle7.png,True,-0.4632728350860511,0.5015473365783691,0.3333333333333333,-3.8883772652660586,1.8704445362091064,0.1111111111111111,-3.927607423325467,25.925769090652466,10.0,1.4194444444444443,3.0,37.28181204555111,6.0
subject-02,1,9,1.05053615570068,truck,truck,0,truck1.png,True,0.33171647894240275,1.467241287231445,0.125,-5.626568926007334,1.968996524810791,0.0666666666666666,-4.928197659980885,26.747299671173096,10.0,0.1776307026307022,10.0,51.845926425646084,7.0
subject-06,1,63,0.63689398765564,boat,truck,0,truck1.png,False,-0.9946015463262031,1.467241287231445,0.125,-5.626568926007334,1.968996524810791,0.0666666666666666,-4.928197659980885,26.747299671173096,10.0,0.1776307026307022,10.0,51.845926425646084,7.0
subject-01,1,6,0.85198712348938,boat,truck,0,truck1.png,False,0.3680032417573266,1.467241287231445,0.125,-5.626568926007334,1.968996524810791,0.0666666666666666,-4.928197659980885,26.747299671173096,10.0,0.1776307026307022,10.0,51.845926425646084,7.0
subject-05,1,47,1.16509890556335,oven,truck,0,truck1.png,False,0.5385109780000679,1.467241287231445,0.125,-5.626568926007334,1.968996524810791,0.0666666666666666,-4.928197659980885,26.747299671173096,10.0,0.1776307026307022,10.0,51.845926425646084,7.0
subject-08,1,102,1.50006818771362,clock,truck,0,truck1.png,False,2.273333349052535,1.467241287231445,0.125,-5.626568926007334,1.968996524810791,0.0666666666666666,-4.928197659980885,26.747299671173096,10.0,0.1776307026307022,10.0,51.845926425646084,7.0
subject-09,1,95,0.869516849517822,oven,truck,0,truck1.png,False,0.013379518275229523,1.467241287231445,0.125,-5.626568926007334,1.968996524810791,0.0666666666666666,-4.928197659980885,26.747299671173096,10.0,0.1776307026307022,10.0,51.845926425646084,7.0
subject-04,1,62,0.683799028396606,keyboard,truck,0,truck1.png,False,-1.7044492689786457,1.467241287231445,0.125,-5.626568926007334,1.968996524810791,0.0666666666666666,-4.928197659980885,26.747299671173096,10.0,0.1776307026307022,10.0,51.845926425646084,7.0
subject-10,1,66,0.940274000167847,boat,truck,0,truck1.png,False,0.6121344954647401,1.467241287231445,0.125,-5.626568926007334,1.968996524810791,0.0666666666666666,-4.928197659980885,26.747299671173096,10.0,0.1776307026307022,10.0,51.845926425646084,7.0
subject-07,1,133,0.567660093307495,clock,truck,0,truck1.png,False,-1.3620189055971754,1.467241287231445,0.125,-5.626568926007334,1.968996524810791,0.0666666666666666,-4.928197659980885,26.747299671173096,10.0,0.1776307026307022,10.0,51.845926425646084,7.0
subject-03,1,148,0.96454906463623,car,truck,0,truck1.png,False,0.7726203219860451,1.467241287231445,0.125,-5.626568926007334,1.968996524810791,0.0666666666666666,-4.928197659980885,26.747299671173096,10.0,0.1776307026307022,10.0,51.845926425646084,7.0
subject-02,1,10,,na,clock,0,clock8.png,False,,0.4976240992546081,1.0,-0.1224968378007686,1.848587989807129,1.0,-1.0947216042285928,25.213612616062164,10.0,9.5,4.0,16.724176927720663,10.0
subject-06,1,65,0.951296806335449,bottle,clock,0,clock8.png,False,0.3149025091533096,0.4976240992546081,1.0,-0.1224968378007686,1.848587989807129,1.0,-1.0947216042285928,25.213612616062164,10.0,9.5,4.0,16.724176927720663,10.0
subject-01,1,43,0.584911823272705,clock,clock,0,clock8.png,True,-1.2997340567456526,0.4976240992546081,1.0,-0.1224968378007686,1.848587989807129,1.0,-1.0947216042285928,25.213612616062164,10.0,9.5,4.0,16.724176927720663,10.0
subject-05,1,134,1.12792897224426,clock,clock,0,clock8.png,True,0.34880357921513816,0.4976240992546081,1.0,-0.1224968378007686,1.848587989807129,1.0,-1.0947216042285928,25.213612616062164,10.0,9.5,4.0,16.724176927720663,10.0
subject-08,1,67,0.646968126296997,clock,clock,0,clock8.png,True,-1.2944198542933136,0.4976240992546081,1.0,-0.1224968378007686,1.848587989807129,1.0,-1.0947216042285928,25.213612616062164,10.0,9.5,4.0,16.724176927720663,10.0
subject-09,1,46,0.659524917602539,clock,clock,0,clock8.png,True,-0.8726636585860508,0.4976240992546081,1.0,-0.1224968378007686,1.848587989807129,1.0,-1.0947216042285928,25.213612616062164,10.0,9.5,4.0,16.724176927720663,10.0
subject-04,1,56,0.853607892990112,clock,clock,0,clock8.png,True,-0.6020090304746154,0.4976240992546081,1.0,-0.1224968378007686,1.848587989807129,1.0,-1.0947216042285928,25.213612616062164,10.0,9.5,4.0,16.724176927720663,10.0
subject-10,1,89,0.636389017105103,clock,clock,0,clock8.png,True,-0.9639916168902126,0.4976240992546081,1.0,-0.1224968378007686,1.848587989807129,1.0,-1.0947216042285928,25.213612616062164,10.0,9.5,4.0,16.724176927720663,10.0
subject-07,1,42,0.789776086807251,clock,clock,0,clock8.png,True,-0.25082614862573516,0.4976240992546081,1.0,-0.1224968378007686,1.848587989807129,1.0,-1.0947216042285928,25.213612616062164,10.0,9.5,4.0,16.724176927720663,10.0
subject-03,1,72,0.642270088195801,clock,clock,0,clock8.png,True,-0.6836474586307772,0.4976240992546081,1.0,-0.1224968378007686,1.848587989807129,1.0,-1.0947216042285928,25.213612616062164,10.0,9.5,4.0,16.724176927720663,10.0
subject-02,1,11,0.838557004928589,knife,boat,0,boat4.png,False,-0.5906555220006776,1.7616595029830933,0.1,-4.799016466298914,1.927734971046448,0.25,-2.8679227382256323,27.38927674293518,10.0,1.416208791208791,1.0,35.82170303480532,1.0
subject-06,1,44,0.651650905609131,airplane,boat,0,boat4.png,False,-0.9331382172516796,1.7616595029830933,0.1,-4.799016466298914,1.927734971046448,0.25,-2.8679227382256323,27.38927674293518,10.0,1.416208791208791,1.0,35.82170303480532,1.0
subject-01,1,119,0.812122106552124,knife,boat,0,boat4.png,False,0.11906829495477018,1.7616595029830933,0.1,-4.799016466298914,1.927734971046448,0.25,-2.8679227382256323,27.38927674293518,10.0,1.416208791208791,1.0,35.82170303480532,1.0
subject-05,1,86,1.50031590461731,bird,boat,0,boat4.png,False,2.249386926393452,1.7616595029830933,0.1,-4.799016466298914,1.927734971046448,0.25,-2.8679227382256323,27.38927674293518,10.0,1.416208791208791,1.0,35.82170303480532,1.0
subject-08,1,37,1.36074995994568,knife,boat,0,boat4.png,False,1.690690027496388,1.7616595029830933,0.1,-4.799016466298914,1.927734971046448,0.25,-2.8679227382256323,27.38927674293518,10.0,1.416208791208791,1.0,35.82170303480532,1.0
subject-09,1,146,0.774216890335083,knife,boat,0,boat4.png,False,-0.38873059052214065,1.7616595029830933,0.1,-4.799016466298914,1.927734971046448,0.25,-2.8679227382256323,27.38927674293518,10.0,1.416208791208791,1.0,35.82170303480532,1.0
subject-04,1,88,1.15667796134949,knife,boat,0,boat4.png,False,1.365595188806662,1.7616595029830933,0.1,-4.799016466298914,1.927734971046448,0.25,-2.8679227382256323,27.38927674293518,10.0,1.416208791208791,1.0,35.82170303480532,1.0
subject-10,1,14,1.01478004455566,boat,boat,0,boat4.png,True,0.9985666281235066,1.7616595029830933,0.1,-4.799016466298914,1.927734971046448,0.25,-2.8679227382256323,27.38927674293518,10.0,1.416208791208791,1.0,35.82170303480532,1.0
subject-07,1,88,,na,boat,0,boat4.png,False,,1.7616595029830933,0.1,-4.799016466298914,1.927734971046448,0.25,-2.8679227382256323,27.38927674293518,10.0,1.416208791208791,1.0,35.82170303480532,1.0
subject-03,1,103,1.0808048248291,boat,boat,0,boat4.png,True,1.2979400922977957,1.7616595029830933,0.1,-4.799016466298914,1.927734971046448,0.25,-2.8679227382256323,27.38927674293518,10.0,1.416208791208791,1.0,35.82170303480532,1.0
subject-02,1,12,,na,clock,0,clock9.png,False,,0.1636784970760345,1.0,-0.024593436869655743,1.8241441249847412,0.5,-1.1933381292630916,25.291607946157455,10.0,8.166666666666666,5.0,17.29100505385623,10.0
subject-06,1,136,0.530699014663696,clock,clock,0,clock9.png,True,-1.4369091197392485,0.1636784970760345,1.0,-0.024593436869655743,1.8241441249847412,0.5,-1.1933381292630916,25.291607946157455,10.0,8.166666666666666,5.0,17.29100505385623,10.0
subject-01,1,77,0.628190040588379,clock,clock,0,clock9.png,True,-1.0294855643859662,0.1636784970760345,1.0,-0.024593436869655743,1.8241441249847412,0.5,-1.1933381292630916,25.291607946157455,10.0,8.166666666666666,5.0,17.29100505385623,10.0
subject-05,1,111,0.776348829269409,clock,clock,0,clock9.png,True,-1.4455863599763246,0.1636784970760345,1.0,-0.024593436869655743,1.8241441249847412,0.5,-1.1933381292630916,25.291607946157455,10.0,8.166666666666666,5.0,17.29100505385623,10.0
subject-08,1,59,0.777606010437012,clock,clock,0,clock9.png,True,-0.7480786327900552,0.1636784970760345,1.0,-0.024593436869655743,1.8241441249847412,0.5,-1.1933381292630916,25.291607946157455,10.0,8.166666666666666,5.0,17.29100505385623,10.0
subject-09,1,40,0.950921058654785,bottle,clock,0,clock9.png,False,0.35685768629690934,0.1636784970760345,1.0,-0.024593436869655743,1.8241441249847412,0.5,-1.1933381292630916,25.291607946157455,10.0,8.166666666666666,5.0,17.29100505385623,10.0
subject-04,1,5,1.00104403495789,clock,clock,0,clock9.png,True,0.3551820790953338,0.1636784970760345,1.0,-0.024593436869655743,1.8241441249847412,0.5,-1.1933381292630916,25.291607946157455,10.0,8.166666666666666,5.0,17.29100505385623,10.0
subject-10,1,12,0.675580024719238,clock,clock,0,clock9.png,True,-0.7607240192367081,0.1636784970760345,1.0,-0.024593436869655743,1.8241441249847412,0.5,-1.1933381292630916,25.291607946157455,10.0,8.166666666666666,5.0,17.29100505385623,10.0
subject-07,1,80,1.02916383743286,clock,clock,0,clock9.png,True,0.9467730445325655,0.1636784970760345,1.0,-0.024593436869655743,1.8241441249847412,0.5,-1.1933381292630916,25.291607946157455,10.0,8.166666666666666,5.0,17.29100505385623,10.0
subject-03,1,127,0.755110025405884,clock,clock,0,clock9.png,True,-0.17376261680572105,0.1636784970760345,1.0,-0.024593436869655743,1.8241441249847412,0.5,-1.1933381292630916,25.291607946157455,10.0,8.166666666666666,5.0,17.29100505385623,10.0
subject-02,1,13,1.30305004119873,cat,cat,0,cat8.png,True,1.4304648085984772,2.14697003364563,0.1428571428571428,-3.1816931989105592,1.7905827760696411,0.1428571428571428,-3.7440351408942028,27.178733944892883,4.0,2.113492063492063,9.0,35.85409985825464,6.0
subject-06,1,121,0.964730978012085,dog,cat,0,cat8.png,False,0.3708565313418917,2.14697003364563,0.1428571428571428,-3.1816931989105592,1.7905827760696411,0.1428571428571428,-3.7440351408942028,27.178733944892883,4.0,2.113492063492063,9.0,35.85409985825464,6.0
subject-01,1,127,0.628992080688477,cat,cat,0,cat8.png,True,-1.0244772682659455,2.14697003364563,0.1428571428571428,-3.1816931989105592,1.7905827760696411,0.1428571428571428,-3.7440351408942028,27.178733944892883,4.0,2.113492063492063,9.0,35.85409985825464,6.0
subject-05,1,99,1.22710490226746,dog,cat,0,cat8.png,False,0.8549763383982879,2.14697003364563,0.1428571428571428,-3.1816931989105592,1.7905827760696411,0.1428571428571428,-3.7440351408942028,27.178733944892883,4.0,2.113492063492063,9.0,35.85409985825464,6.0
subject-08,1,144,1.34829688072205,elephant,cat,0,cat8.png,False,1.6386099547111999,2.14697003364563,0.1428571428571428,-3.1816931989105592,1.7905827760696411,0.1428571428571428,-3.7440351408942028,27.178733944892883,4.0,2.113492063492063,9.0,35.85409985825464,6.0
subject-09,1,47,1.08969593048096,bear,cat,0,cat8.png,False,0.9424065080058636,2.14697003364563,0.1428571428571428,-3.1816931989105592,1.7905827760696411,0.1428571428571428,-3.7440351408942028,27.178733944892883,4.0,2.113492063492063,9.0,35.85409985825464,6.0
subject-04,1,147,1.21036195755005,oven,cat,0,cat8.png,False,1.7141246823455885,2.14697003364563,0.1428571428571428,-3.1816931989105592,1.7905827760696411,0.1428571428571428,-3.7440351408942028,27.178733944892883,4.0,2.113492063492063,9.0,35.85409985825464,6.0
subject-10,1,53,0.994323968887329,cat,cat,0,cat8.png,True,0.8924693978746909,2.14697003364563,0.1428571428571428,-3.1816931989105592,1.7905827760696411,0.1428571428571428,-3.7440351408942028,27.178733944892883,4.0,2.113492063492063,9.0,35.85409985825464,6.0
subject-07,1,131,0.679083108901978,cat,cat,0,cat8.png,True,-0.8045964258483619,2.14697003364563,0.1428571428571428,-3.1816931989105592,1.7905827760696411,0.1428571428571428,-3.7440351408942028,27.178733944892883,4.0,2.113492063492063,9.0,35.85409985825464,6.0
subject-03,1,26,0.84175705909729,cat,cat,0,cat8.png,True,0.21776550843684686,2.14697003364563,0.1428571428571428,-3.1816931989105592,1.7905827760696411,0.1428571428571428,-3.7440351408942028,27.178733944892883,4.0,2.113492063492063,9.0,35.85409985825464,6.0
subject-02,1,14,1.45526504516602,airplane,knife,0,knife2.png,False,2.0927887082437673,0.5345804691314697,1.0,-0.10510354669438378,1.882495403289795,0.2,-3.315561698109099,25.93667721748352,10.0,4.267532467532467,8.0,31.58134899982699,10.0
subject-06,1,147,0.665268898010254,knife,knife,0,knife2.png,True,-0.876418572206382,0.5345804691314697,1.0,-0.10510354669438378,1.882495403289795,0.2,-3.315561698109099,25.93667721748352,10.0,4.267532467532467,8.0,31.58134899982699,10.0
subject-01,1,73,0.990110874176025,knife,knife,0,knife2.png,True,1.2305095485642858,0.5345804691314697,1.0,-0.10510354669438378,1.882495403289795,0.2,-3.315561698109099,25.93667721748352,10.0,4.267532467532467,8.0,31.58134899982699,10.0
subject-05,1,76,0.918184995651245,knife,knife,0,knife2.png,True,-0.7216848682266659,0.5345804691314697,1.0,-0.10510354669438378,1.882495403289795,0.2,-3.315561698109099,25.93667721748352,10.0,4.267532467532467,8.0,31.58134899982699,10.0
subject-08,1,115,0.913789987564087,knife,knife,0,knife2.png,True,-0.1785430734645965,0.5345804691314697,1.0,-0.10510354669438378,1.882495403289795,0.2,-3.315561698109099,25.93667721748352,10.0,4.267532467532467,8.0,31.58134899982699,10.0
subject-09,1,149,0.695480108261108,knife,knife,0,knife2.png,True,-0.7209537759005393,0.5345804691314697,1.0,-0.10510354669438378,1.882495403289795,0.2,-3.315561698109099,25.93667721748352,10.0,4.267532467532467,8.0,31.58134899982699,10.0
subject-04,1,20,0.877105951309204,knife,knife,0,knife2.png,True,-0.4494539499156932,0.5345804691314697,1.0,-0.10510354669438378,1.882495403289795,0.2,-3.315561698109099,25.93667721748352,10.0,4.267532467532467,8.0,31.58134899982699,10.0
subject-10,1,69,0.870828151702881,knife,knife,0,knife2.png,True,0.25194751268883075,0.5345804691314697,1.0,-0.10510354669438378,1.882495403289795,0.2,-3.315561698109099,25.93667721748352,10.0,4.267532467532467,8.0,31.58134899982699,10.0
subject-07,1,113,0.708755016326904,knife,knife,0,knife2.png,True,-0.6561550277455229,0.5345804691314697,1.0,-0.10510354669438378,1.882495403289795,0.2,-3.315561698109099,25.93667721748352,10.0,4.267532467532467,8.0,31.58134899982699,10.0
subject-03,1,113,0.593040943145752,knife,knife,0,knife2.png,True,-0.9060970226560934,0.5345804691314697,1.0,-0.10510354669438378,1.882495403289795,0.2,-3.315561698109099,25.93667721748352,10.0,4.267532467532467,8.0,31.58134899982699,10.0
subject-02,1,15,1.15370202064514,elephant,elephant,0,elephant1.png,True,0.7806158397109216,1.7083557844161987,0.0833333333333333,-4.530099678767981,1.8816382884979248,0.125,-3.8468977593125664,27.350179314613342,10.0,0.5995781995781992,2.0,41.642305319951944,2.0
subject-06,1,76,0.655722856521606,elephant,elephant,0,elephant1.png,True,-0.9161783303906461,1.7083557844161987,0.0833333333333333,-4.530099678767981,1.8816382884979248,0.125,-3.8468977593125664,27.350179314613342,10.0,0.5995781995781992,2.0,41.642305319951944,2.0
subject-01,1,146,0.687237977981567,elephant,elephant,0,elephant1.png,True,-0.6607639060731394,1.7083557844161987,0.0833333333333333,-4.530099678767981,1.8816382884979248,0.125,-3.8468977593125664,27.350179314613342,10.0,0.5995781995781992,2.0,41.642305319951944,2.0
subject-05,1,109,1.09761118888855,elephant,elephant,0,elephant1.png,True,0.19406808997004774,1.7083557844161987,0.0833333333333333,-4.530099678767981,1.8816382884979248,0.125,-3.8468977593125664,27.350179314613342,10.0,0.5995781995781992,2.0,41.642305319951944,2.0
subject-08,1,7,1.10558295249939,elephant,elephant,0,elephant1.png,True,0.6235550577802365,1.7083557844161987,0.0833333333333333,-4.530099678767981,1.8816382884979248,0.125,-3.8468977593125664,27.350179314613342,10.0,0.5995781995781992,2.0,41.642305319951944,2.0
subject-09,1,11,0.669009923934937,elephant,elephant,0,elephant1.png,True,-0.8326424774546834,1.7083557844161987,0.0833333333333333,-4.530099678767981,1.8816382884979248,0.125,-3.8468977593125664,27.350179314613342,10.0,0.5995781995781992,2.0,41.642305319951944,2.0
subject-04,1,151,1.02733588218689,elephant,elephant,0,elephant1.png,True,0.5258751132854871,1.7083557844161987,0.0833333333333333,-4.530099678767981,1.8816382884979248,0.125,-3.8468977593125664,27.350179314613342,10.0,0.5995781995781992,2.0,41.642305319951944,2.0
subject-10,1,75,0.68091607093811,elephant,elephant,0,elephant1.png,True,-0.7330481476041809,1.7083557844161987,0.0833333333333333,-4.530099678767981,1.8816382884979248,0.125,-3.8468977593125664,27.350179314613342,10.0,0.5995781995781992,2.0,41.642305319951944,2.0
subject-07,1,9,0.987496852874756,elephant,elephant,0,elephant1.png,True,0.7383231678880144,1.7083557844161987,0.0833333333333333,-4.530099678767981,1.8816382884979248,0.125,-3.8468977593125664,27.350179314613342,10.0,0.5995781995781992,2.0,41.642305319951944,2.0
subject-03,1,76,0.673961162567139,elephant,elephant,0,elephant1.png,True,-0.5404464001880411,1.7083557844161987,0.0833333333333333,-4.530099678767981,1.8816382884979248,0.125,-3.8468977593125664,27.350179314613342,10.0,0.5995781995781992,2.0,41.642305319951944,2.0
subject-02,1,16,1.33007192611694,cat,clock,0,clock1.png,False,1.5480434948536188,1.395419359207153,1.0,-0.5674432261394673,1.9675166606903076,1.0,-1.1761313265179978,27.11270844936371,10.0,9.0,2.0,18.384583896565925,10.0
subject-06,1,73,0.603765964508057,boat,clock,0,clock1.png,False,-1.1325814818876558,1.395419359207153,1.0,-0.5674432261394673,1.9675166606903076,1.0,-1.1761313265179978,27.11270844936371,10.0,9.0,2.0,18.384583896565925,10.0
subject-01,1,153,0.500497102737427,clock,clock,0,clock1.png,True,-1.8268572233775877,1.395419359207153,1.0,-0.5674432261394673,1.9675166606903076,1.0,-1.1761313265179978,27.11270844936371,10.0,9.0,2.0,18.384583896565925,10.0
subject-05,1,78,1.16198897361755,oven,clock,0,clock1.png,False,0.5226385497454579,1.395419359207153,1.0,-0.5674432261394673,1.9675166606903076,1.0,-1.1761313265179978,27.11270844936371,10.0,9.0,2.0,18.384583896565925,10.0
subject-08,1,151,0.741611003875732,clock,clock,0,clock1.png,True,-0.8986134947266616,1.395419359207153,1.0,-0.5674432261394673,1.9675166606903076,1.0,-1.1761313265179978,27.11270844936371,10.0,9.0,2.0,18.384583896565925,10.0
subject-09,1,104,1.1656391620636,bear,clock,0,clock1.png,False,1.2628425436138442,1.395419359207153,1.0,-0.5674432261394673,1.9675166606903076,1.0,-1.1761313265179978,27.11270844936371,10.0,9.0,2.0,18.384583896565925,10.0
subject-04,1,113,1.0001859664917,airplane,clock,0,clock1.png,False,0.3496112909813939,1.395419359207153,1.0,-0.5674432261394673,1.9675166606903076,1.0,-1.1761313265179978,27.11270844936371,10.0,9.0,2.0,18.384583896565925,10.0
subject-10,1,149,0.60344409942627,clock,clock,0,clock1.png,True,-1.1348633213741155,1.395419359207153,1.0,-0.5674432261394673,1.9675166606903076,1.0,-1.1761313265179978,27.11270844936371,10.0,9.0,2.0,18.384583896565925,10.0
subject-07,1,79,0.855340003967285,clock,clock,0,clock1.png,True,0.07717431959352172,1.395419359207153,1.0,-0.5674432261394673,1.9675166606903076,1.0,-1.1761313265179978,27.11270844936371,10.0,9.0,2.0,18.384583896565925,10.0
subject-03,1,138,0.907974004745483,clock,clock,0,clock1.png,True,0.5169770969288532,1.395419359207153,1.0,-0.5674432261394673,1.9675166606903076,1.0,-1.1761313265179978,27.11270844936371,10.0,9.0,2.0,18.384583896565925,10.0
subject-02,1,17,1.01262593269348,elephant,elephant,0,elephant2.png,True,0.16676002863118958,1.7702884674072266,0.125,-3.843120945740779,1.775152564048767,0.125,-4.23552239223771,26.335949182510376,10.0,0.5678932178932177,2.0,43.06857967905864,2.0
subject-06,1,18,1.05937600135803,bottle,elephant,0,elephant2.png,False,0.765057965104125,1.7702884674072266,0.125,-3.843120945740779,1.775152564048767,0.125,-4.23552239223771,26.335949182510376,10.0,0.5678932178932177,2.0,43.06857967905864,2.0
subject-01,1,62,0.846899032592773,elephant,elephant,0,elephant2.png,True,0.3362309327509876,1.7702884674072266,0.125,-3.843120945740779,1.775152564048767,0.125,-4.23552239223771,26.335949182510376,10.0,0.5678932178932177,2.0,43.06857967905864,2.0
subject-05,1,24,1.07941508293152,elephant,elephant,0,elephant2.png,True,0.10119905252815818,1.7702884674072266,0.125,-3.843120945740779,1.775152564048767,0.125,-4.23552239223771,26.335949182510376,10.0,0.5678932178932177,2.0,43.06857967905864,2.0
subject-08,1,86,1.14126086235046,elephant,elephant,0,elephant2.png,True,0.7727637882877304,1.7702884674072266,0.125,-3.843120945740779,1.775152564048767,0.125,-4.23552239223771,26.335949182510376,10.0,0.5678932178932177,2.0,43.06857967905864,2.0
subject-09,1,80,1.0336320400238,elephant,elephant,0,elephant2.png,True,0.705849669108333,1.7702884674072266,0.125,-3.843120945740779,1.775152564048767,0.125,-4.23552239223771,26.335949182510376,10.0,0.5678932178932177,2.0,43.06857967905864,2.0
subject-04,1,158,0.886391878128052,elephant,elephant,0,elephant2.png,True,-0.3891674660421461,1.7702884674072266,0.125,-3.843120945740779,1.775152564048767,0.125,-4.23552239223771,26.335949182510376,10.0,0.5678932178932177,2.0,43.06857967905864,2.0
subject-10,1,160,0.622035980224609,elephant,elephant,0,elephant2.png,True,-1.03843490128992,1.7702884674072266,0.125,-3.843120945740779,1.775152564048767,0.125,-4.23552239223771,26.335949182510376,10.0,0.5678932178932177,2.0,43.06857967905864,2.0
subject-07,1,112,0.688468933105469,elephant,elephant,0,elephant2.png,True,-0.7576414105484939,1.7702884674072266,0.125,-3.843120945740779,1.775152564048767,0.125,-4.23552239223771,26.335949182510376,10.0,0.5678932178932177,2.0,43.06857967905864,2.0
subject-03,1,100,0.773735046386719,elephant,elephant,0,elephant2.png,True,-0.08960255688721198,1.7702884674072266,0.125,-3.843120945740779,1.775152564048767,0.125,-4.23552239223771,26.335949182510376,10.0,0.5678932178932177,2.0,43.06857967905864,2.0
subject-02,1,18,1.40305280685425,car,elephant,0,elephant10.png,False,1.865600767590479,1.7969156503677368,0.0833333333333333,-5.509120699627818,1.84214186668396,0.1111111111111111,-4.274346012089348,26.936193585395813,10.0,0.38219003219003206,2.0,45.799646874937764,0.0
subject-06,1,106,0.749807119369507,cat,elephant,0,elephant10.png,False,-0.5243124932029756,1.7969156503677368,0.0833333333333333,-5.509120699627818,1.84214186668396,0.1111111111111111,-4.274346012089348,26.936193585395813,10.0,0.38219003219003206,2.0,45.799646874937764,0.0
subject-01,1,151,0.96931004524231,elephant,elephant,0,elephant10.png,True,1.1006198948808772,1.7969156503677368,0.0833333333333333,-5.509120699627818,1.84214186668396,0.1111111111111111,-4.274346012089348,26.936193585395813,10.0,0.38219003219003206,2.0,45.799646874937764,0.0
subject-05,1,22,0.979480981826782,elephant,elephant,0,elephant10.png,True,-0.40884324988171233,1.7969156503677368,0.0833333333333333,-5.509120699627818,1.84214186668396,0.1111111111111111,-4.274346012089348,26.936193585395813,10.0,0.38219003219003206,2.0,45.799646874937764,0.0
subject-08,1,53,0.836654186248779,car,elephant,0,elephant10.png,False,-0.501133018867192,1.7969156503677368,0.0833333333333333,-5.509120699627818,1.84214186668396,0.1111111111111111,-4.274346012089348,26.936193585395813,10.0,0.38219003219003206,2.0,45.799646874937764,0.0
subject-09,1,78,1.30338406562805,elephant,elephant,0,elephant10.png,True,1.8440455014490704,1.7969156503677368,0.0833333333333333,-5.509120699627818,1.84214186668396,0.1111111111111111,-4.274346012089348,26.936193585395813,10.0,0.38219003219003206,2.0,45.799646874937764,0.0
subject-04,1,86,1.22241497039795,dog,elephant,0,elephant10.png,False,1.7923757582864106,1.7969156503677368,0.0833333333333333,-5.509120699627818,1.84214186668396,0.1111111111111111,-4.274346012089348,26.936193585395813,10.0,0.38219003219003206,2.0,45.799646874937764,0.0
subject-10,1,88,1.32191205024719,cat,elephant,0,elephant10.png,False,2.5915337080743477,1.7969156503677368,0.0833333333333333,-5.509120699627818,1.84214186668396,0.1111111111111111,-4.274346012089348,26.936193585395813,10.0,0.38219003219003206,2.0,45.799646874937764,0.0
subject-07,1,77,1.50025010108948,bird,elephant,0,elephant10.png,False,3.303504029258118,1.7969156503677368,0.0833333333333333,-5.509120699627818,1.84214186668396,0.1111111111111111,-4.274346012089348,26.936193585395813,10.0,0.38219003219003206,2.0,45.799646874937764,0.0
subject-03,1,8,0.920548915863037,dog,elephant,0,elephant10.png,False,0.5737987925506871,1.7969156503677368,0.0833333333333333,-5.509120699627818,1.84214186668396,0.1111111111111111,-4.274346012089348,26.936193585395813,10.0,0.38219003219003206,2.0,45.799646874937764,0.0
subject-02,1,19,0.887548923492432,dog,dog,0,dog4.png,True,-0.3774799630309329,1.7842150926589966,0.1428571428571428,-3.709878956802196,1.815119981765747,0.0833333333333333,-4.815324395049217,26.965378522872925,10.0,0.8900793650793648,8.0,41.84591847454142,6.0
subject-06,1,126,0.924702167510986,dog,dog,0,dog4.png,True,0.20413445834230803,1.7842150926589966,0.1428571428571428,-3.709878956802196,1.815119981765747,0.0833333333333333,-4.815324395049217,26.965378522872925,10.0,0.8900793650793648,8.0,41.84591847454142,6.0
subject-01,1,68,0.635033845901489,dog,dog,0,dog4.png,True,-0.9867497914593545,1.7842150926589966,0.1428571428571428,-3.709878956802196,1.815119981765747,0.0833333333333333,-4.815324395049217,26.965378522872925,10.0,0.8900793650793648,8.0,41.84591847454142,6.0
subject-05,1,87,1.26321005821228,dog,dog,0,dog4.png,True,1.0392493409408636,1.7842150926589966,0.1428571428571428,-3.709878956802196,1.815119981765747,0.0833333333333333,-4.815324395049217,26.965378522872925,10.0,0.8900793650793648,8.0,41.84591847454142,6.0
subject-08,1,39,0.967269897460938,elephant,dog,0,dog4.png,False,0.04511547314516199,1.7842150926589966,0.1428571428571428,-3.709878956802196,1.815119981765747,0.0833333333333333,-4.815324395049217,26.965378522872925,10.0,0.8900793650793648,8.0,41.84591847454142,6.0
subject-09,1,82,0.899706125259399,dog,dog,0,dog4.png,True,0.14076061116407124,1.7842150926589966,0.1428571428571428,-3.709878956802196,1.815119981765747,0.0833333333333333,-4.815324395049217,26.965378522872925,10.0,0.8900793650793648,8.0,41.84591847454142,6.0
subject-04,1,131,1.08609890937805,dog,dog,0,dog4.png,True,0.907378905015796,1.7842150926589966,0.1428571428571428,-3.709878956802196,1.815119981765747,0.0833333333333333,-4.815324395049217,26.965378522872925,10.0,0.8900793650793648,8.0,41.84591847454142,6.0
subject-10,1,54,0.670926094055176,dog,dog,0,dog4.png,True,-0.7848620387294414,1.7842150926589966,0.1428571428571428,-3.709878956802196,1.815119981765747,0.0833333333333333,-4.815324395049217,26.965378522872925,10.0,0.8900793650793648,8.0,41.84591847454142,6.0
subject-07,1,101,0.795686960220337,dog,dog,0,dog4.png,True,-0.22125547422041147,1.7842150926589966,0.1428571428571428,-3.709878956802196,1.815119981765747,0.0833333333333333,-4.815324395049217,26.965378522872925,10.0,0.8900793650793648,8.0,41.84591847454142,6.0
subject-03,1,143,0.690836906433105,dog,dog,0,dog4.png,True,-0.46419072152917923,1.7842150926589966,0.1428571428571428,-3.709878956802196,1.815119981765747,0.0833333333333333,-4.815324395049217,26.965378522872925,10.0,0.8900793650793648,8.0,41.84591847454142,6.0
subject-02,1,20,1.26184797286987,bear,oven,0,oven1.png,False,1.2511847517199415,1.3711514472961426,0.1428571428571428,-4.301517322338701,2.025211811065674,0.0625,-6.482691171340283,26.672741532325745,10.0,0.17619047619047612,10.0,60.33474134397012,6.0
subject-06,1,99,0.619308233261108,boat,oven,0,oven1.png,False,-1.0678471259778248,1.3711514472961426,0.1428571428571428,-4.301517322338701,2.025211811065674,0.0625,-6.482691171340283,26.672741532325745,10.0,0.17619047619047612,10.0,60.33474134397012,6.0
subject-01,1,149,0.678347110748291,keyboard,oven,0,oven1.png,False,-0.7162824466830083,1.3711514472961426,0.1428571428571428,-4.301517322338701,2.025211811065674,0.0625,-6.482691171340283,26.672741532325745,10.0,0.17619047619047612,10.0,60.33474134397012,6.0
subject-05,1,107,1.15071582794189,oven,oven,0,oven1.png,True,0.4651028225787198,1.3711514472961426,0.1428571428571428,-4.301517322338701,2.025211811065674,0.0625,-6.482691171340283,26.672741532325745,10.0,0.17619047619047612,10.0,60.33474134397012,6.0
subject-08,1,107,0.854934930801392,oven,oven,0,oven1.png,True,-0.42468104343440527,1.3711514472961426,0.1428571428571428,-4.301517322338701,2.025211811065674,0.0625,-6.482691171340283,26.672741532325745,10.0,0.17619047619047612,10.0,60.33474134397012,6.0
subject-09,1,21,1.02046513557434,keyboard,oven,0,oven1.png,False,0.6502930306155025,1.3711514472961426,0.1428571428571428,-4.301517322338701,2.025211811065674,0.0625,-6.482691171340283,26.672741532325745,10.0,0.17619047619047612,10.0,60.33474134397012,6.0
subject-04,1,112,1.0484631061554,airplane,oven,0,oven1.png,False,0.6630381635569087,1.3711514472961426,0.1428571428571428,-4.301517322338701,2.025211811065674,0.0625,-6.482691171340283,26.672741532325745,10.0,0.17619047619047612,10.0,60.33474134397012,6.0
subject-10,1,55,0.98662281036377,knife,oven,0,oven1.png,False,0.8525266638770057,1.3711514472961426,0.1428571428571428,-4.301517322338701,2.025211811065674,0.0625,-6.482691171340283,26.672741532325745,10.0,0.17619047619047612,10.0,60.33474134397012,6.0
subject-07,1,4,0.971678018569946,clock,oven,0,oven1.png,False,0.6591853542336567,1.3711514472961426,0.1428571428571428,-4.301517322338701,2.025211811065674,0.0625,-6.482691171340283,26.672741532325745,10.0,0.17619047619047612,10.0,60.33474134397012,6.0
subject-03,1,116,1.35455894470215,oven,oven,0,oven1.png,True,2.5349407461580933,1.3711514472961426,0.1428571428571428,-4.301517322338701,2.025211811065674,0.0625,-6.482691171340283,26.672741532325745,10.0,0.17619047619047612,10.0,60.33474134397012,6.0
subject-02,1,21,1.22245717048645,chair,oven,0,oven6.png,False,1.0797859463147257,1.5732591152191162,0.3333333333333333,-2.197256421624715,1.9517579078674316,0.0625,-6.482147404342486,27.556342601776123,10.0,0.7625,9.0,54.81992910814576,6.0
subject-06,1,117,0.860707998275757,boat,oven,0,oven6.png,False,-0.06240457744769264,1.5732591152191162,0.3333333333333333,-2.197256421624715,1.9517579078674316,0.0625,-6.482147404342486,27.556342601776123,10.0,0.7625,9.0,54.81992910814576,6.0
subject-01,1,17,1.12676501274109,keyboard,oven,0,oven6.png,False,2.083838941791058,1.5732591152191162,0.3333333333333333,-2.197256421624715,1.9517579078674316,0.0625,-6.482147404342486,27.556342601776123,10.0,0.7625,9.0,54.81992910814576,6.0
subject-05,1,126,1.45046901702881,truck,oven,0,oven6.png,False,1.9949790612848401,1.5732591152191162,0.3333333333333333,-2.197256421624715,1.9517579078674316,0.0625,-6.482147404342486,27.556342601776123,10.0,0.7625,9.0,54.81992910814576,6.0
subject-08,1,22,0.898582935333252,oven,oven,0,oven6.png,True,-0.24214054785689207,1.5732591152191162,0.3333333333333333,-2.197256421624715,1.9517579078674316,0.0625,-6.482147404342486,27.556342601776123,10.0,0.7625,9.0,54.81992910814576,6.0
subject-09,1,57,1.14707088470459,chair,oven,0,oven6.png,False,1.184495269459255,1.5732591152191162,0.3333333333333333,-2.197256421624715,1.9517579078674316,0.0625,-6.482147404342486,27.556342601776123,10.0,0.7625,9.0,54.81992910814576,6.0
subject-04,1,128,0.968414068222046,chair,oven,0,oven6.png,False,0.14334043939793198,1.5732591152191162,0.3333333333333333,-2.197256421624715,1.9517579078674316,0.0625,-6.482147404342486,27.556342601776123,10.0,0.7625,9.0,54.81992910814576,6.0
subject-10,1,27,0.801138877868652,oven,oven,0,oven6.png,True,-0.10950201711075207,1.5732591152191162,0.3333333333333333,-2.197256421624715,1.9517579078674316,0.0625,-6.482147404342486,27.556342601776123,10.0,0.7625,9.0,54.81992910814576,6.0
subject-07,1,139,0.806159019470215,keyboard,oven,0,oven6.png,False,-0.16886628690575323,1.5732591152191162,0.3333333333333333,-2.197256421624715,1.9517579078674316,0.0625,-6.482147404342486,27.556342601776123,10.0,0.7625,9.0,54.81992910814576,6.0
subject-03,1,136,0.78331995010376,car,oven,0,oven6.png,False,-0.04629167568233351,1.5732591152191162,0.3333333333333333,-2.197256421624715,1.9517579078674316,0.0625,-6.482147404342486,27.556342601776123,10.0,0.7625,9.0,54.81992910814576,6.0
subject-02,1,22,1.3343710899353,airplane,truck,0,truck6.png,False,1.5667501852006627,1.993128776550293,0.125,-4.289903948857023,1.9109357595443728,0.0666666666666666,-5.250091845419107,27.72151803970337,10.0,0.20711788211788168,10.0,50.462211536505656,6.0
subject-06,1,153,1.02964210510254,car,truck,0,truck6.png,False,0.6412147441836893,1.993128776550293,0.125,-4.289903948857023,1.9109357595443728,0.0666666666666666,-5.250091845419107,27.72151803970337,10.0,0.20711788211788168,10.0,50.462211536505656,6.0
subject-01,1,112,1.08314108848572,keyboard,truck,0,truck6.png,False,1.811431701103786,1.993128776550293,0.125,-4.289903948857023,1.9109357595443728,0.0666666666666666,-5.250091845419107,27.72151803970337,10.0,0.20711788211788168,10.0,50.462211536505656,6.0
subject-05,1,117,0.924229860305786,car,truck,0,truck6.png,False,-0.6908331704370716,1.993128776550293,0.125,-4.289903948857023,1.9109357595443728,0.0666666666666666,-5.250091845419107,27.72151803970337,10.0,0.20711788211788168,10.0,50.462211536505656,6.0
subject-08,1,32,1.00429081916809,airplane,truck,0,truck6.png,False,0.19994081894595567,1.993128776550293,0.125,-4.289903948857023,1.9109357595443728,0.0666666666666666,-5.250091845419107,27.72151803970337,10.0,0.20711788211788168,10.0,50.462211536505656,6.0
subject-09,1,151,1.49475407600403,knife,truck,0,truck6.png,False,2.6515150570790262,1.993128776550293,0.125,-4.289903948857023,1.9109357595443728,0.0666666666666666,-5.250091845419107,27.72151803970337,10.0,0.20711788211788168,10.0,50.462211536505656,6.0
subject-04,1,69,0.833937883377075,truck,truck,0,truck6.png,True,-0.7297114925403231,1.993128776550293,0.125,-4.289903948857023,1.9109357595443728,0.0666666666666666,-5.250091845419107,27.72151803970337,10.0,0.20711788211788168,10.0,50.462211536505656,6.0
subject-10,1,105,0.909419059753418,truck,truck,0,truck6.png,True,0.4521026413329526,1.993128776550293,0.125,-4.289903948857023,1.9109357595443728,0.0666666666666666,-5.250091845419107,27.72151803970337,10.0,0.20711788211788168,10.0,50.462211536505656,6.0
subject-07,1,156,0.765719890594482,car,truck,0,truck6.png,False,-0.37117349764246443,1.993128776550293,0.125,-4.289903948857023,1.9109357595443728,0.0666666666666666,-5.250091845419107,27.72151803970337,10.0,0.20711788211788168,10.0,50.462211536505656,6.0
subject-03,1,146,1.37590885162354,car,truck,0,truck6.png,False,2.6314136278588807,1.993128776550293,0.125,-4.289903948857023,1.9109357595443728,0.0666666666666666,-5.250091845419107,27.72151803970337,10.0,0.20711788211788168,10.0,50.462211536505656,6.0
subject-02,1,23,0.81890082359314,bird,bird,0,bird9.png,True,-0.6761842697253578,1.839559555053711,0.1428571428571428,-3.9308441168701007,1.822322130203247,0.1666666666666666,-3.4970794023976137,26.841272711753845,10.0,0.9812881562881559,9.0,39.253688311616294,9.0
subject-06,1,32,0.955866098403931,bird,bird,0,bird9.png,True,0.3339338477382261,1.839559555053711,0.1428571428571428,-3.9308441168701007,1.822322130203247,0.1666666666666666,-3.4970794023976137,26.841272711753845,10.0,0.9812881562881559,9.0,39.253688311616294,9.0
subject-01,1,75,0.813444137573242,bird,bird,0,bird9.png,True,0.12732364631787882,1.839559555053711,0.1428571428571428,-3.9308441168701007,1.822322130203247,0.1666666666666666,-3.4970794023976137,26.841272711753845,10.0,0.9812881562881559,9.0,39.253688311616294,9.0
subject-05,1,137,0.934601068496704,bird,bird,0,bird9.png,True,-0.6379007395051731,1.839559555053711,0.1428571428571428,-3.9308441168701007,1.822322130203247,0.1666666666666666,-3.4970794023976137,26.841272711753845,10.0,0.9812881562881559,9.0,39.253688311616294,9.0
subject-08,1,1,0.629379987716675,bird,bird,0,bird9.png,True,-1.3679752794993956,1.839559555053711,0.1428571428571428,-3.9308441168701007,1.822322130203247,0.1666666666666666,-3.4970794023976137,26.841272711753845,10.0,0.9812881562881559,9.0,39.253688311616294,9.0
subject-09,1,150,1.18798208236694,bird,bird,0,bird9.png,True,1.3571166040759215,1.839559555053711,0.1428571428571428,-3.9308441168701007,1.822322130203247,0.1666666666666666,-3.4970794023976137,26.841272711753845,10.0,0.9812881562881559,9.0,39.253688311616294,9.0
subject-04,1,102,0.764665842056274,bird,bird,0,bird9.png,True,-1.1794423469228537,1.839559555053711,0.1428571428571428,-3.9308441168701007,1.822322130203247,0.1666666666666666,-3.4970794023976137,26.841272711753845,10.0,0.9812881562881559,9.0,39.253688311616294,9.0
subject-10,1,112,0.809945106506348,bird,bird,0,bird9.png,True,-0.06382774006240306,1.839559555053711,0.1428571428571428,-3.9308441168701007,1.822322130203247,0.1666666666666666,-3.4970794023976137,26.841272711753845,10.0,0.9812881562881559,9.0,39.253688311616294,9.0
subject-07,1,3,0.881437063217163,bird,bird,0,bird9.png,True,0.20773161427455847,1.839559555053711,0.1428571428571428,-3.9308441168701007,1.822322130203247,0.1666666666666666,-3.4970794023976137,26.841272711753845,10.0,0.9812881562881559,9.0,39.253688311616294,9.0
subject-03,1,51,0.577271938323975,bird,bird,0,bird9.png,True,-0.9773517284640278,1.839559555053711,0.1428571428571428,-3.9308441168701007,1.822322130203247,0.1666666666666666,-3.4970794023976137,26.841272711753845,10.0,0.9812881562881559,9.0,39.253688311616294,9.0
subject-02,1,24,1.0552339553833,car,truck,0,truck10.png,False,0.35215772930832473,1.856100082397461,0.0769230769230769,-4.204772391282503,1.924776911735535,0.0666666666666666,-5.2045225008460045,27.383410215377808,10.0,0.1376123876123871,7.0,50.2490461116165,6.0
subject-06,1,35,0.885267019271851,truck,truck,0,truck10.png,True,0.039885019471423755,1.856100082397461,0.0769230769230769,-4.204772391282503,1.924776911735535,0.0666666666666666,-5.2045225008460045,27.383410215377808,10.0,0.1376123876123871,7.0,50.2490461116165,6.0
subject-01,1,70,1.03991103172302,truck,truck,0,truck10.png,True,1.5414839447179847,1.856100082397461,0.0769230769230769,-4.204772391282503,1.924776911735535,0.0666666666666666,-5.2045225008460045,27.383410215377808,10.0,0.1376123876123871,7.0,50.2490461116165,6.0
subject-05,1,123,0.949949026107788,car,truck,0,truck10.png,False,-0.5595680427509195,1.856100082397461,0.0769230769230769,-4.204772391282503,1.924776911735535,0.0666666666666666,-5.2045225008460045,27.383410215377808,10.0,0.1376123876123871,7.0,50.2490461116165,6.0
subject-08,1,57,0.656507015228271,chair,truck,0,truck10.png,False,-1.2545272284688582,1.856100082397461,0.0769230769230769,-4.204772391282503,1.924776911735535,0.0666666666666666,-5.2045225008460045,27.383410215377808,10.0,0.1376123876123871,7.0,50.2490461116165,6.0
subject-09,1,24,1.50017905235291,dog,truck,0,truck10.png,False,2.6744052854545526,1.856100082397461,0.0769230769230769,-4.204772391282503,1.924776911735535,0.0666666666666666,-5.2045225008460045,27.383410215377808,10.0,0.1376123876123871,7.0,50.2490461116165,6.0
subject-04,1,53,0.864168882369995,truck,truck,0,truck10.png,True,-0.5334445319210926,1.856100082397461,0.0769230769230769,-4.204772391282503,1.924776911735535,0.0666666666666666,-5.2045225008460045,27.383410215377808,10.0,0.1376123876123871,7.0,50.2490461116165,6.0
subject-10,1,133,1.21908903121948,truck,truck,0,truck10.png,True,2.0582331033278396,1.856100082397461,0.0769230769230769,-4.204772391282503,1.924776911735535,0.0666666666666666,-5.2045225008460045,27.383410215377808,10.0,0.1376123876123871,7.0,50.2490461116165,6.0
subject-07,1,146,1.0408411026001,truck,truck,0,truck10.png,True,1.0051915864422292,1.856100082397461,0.0769230769230769,-4.204772391282503,1.924776911735535,0.0666666666666666,-5.2045225008460045,27.383410215377808,10.0,0.1376123876123871,7.0,50.2490461116165,6.0
subject-03,1,11,0.943207025527954,truck,truck,0,truck10.png,True,0.6761829922249726,1.856100082397461,0.0769230769230769,-4.204772391282503,1.924776911735535,0.0666666666666666,-5.2045225008460045,27.383410215377808,10.0,0.1376123876123871,7.0,50.2490461116165,6.0
subject-02,1,25,0.839663982391357,airplane,airplane,0,airplane8.png,True,-0.585838798216224,0.2131047546863556,1.0,-0.03394572996996928,1.8535852432250977,0.3333333333333333,-1.8619945553568824,25.459554225206375,10.0,6.3999999999999995,9.0,22.69900538478029,10.0
subject-06,1,5,0.848408937454224,airplane,airplane,0,airplane8.png,True,-0.11363080401911789,0.2131047546863556,1.0,-0.03394572996996928,1.8535852432250977,0.3333333333333333,-1.8619945553568824,25.459554225206375,10.0,6.3999999999999995,9.0,22.69900538478029,10.0
subject-01,1,131,0.805322885513306,airplane,airplane,0,airplane8.png,True,0.07661092612282076,0.2131047546863556,1.0,-0.03394572996996928,1.8535852432250977,0.3333333333333333,-1.8619945553568824,25.459554225206375,10.0,6.3999999999999995,9.0,22.69900538478029,10.0
subject-05,1,20,0.817336082458496,airplane,airplane,0,airplane8.png,True,-1.2363961760959687,0.2131047546863556,1.0,-0.03394572996996928,1.8535852432250977,0.3333333333333333,-1.8619945553568824,25.459554225206375,10.0,6.3999999999999995,9.0,22.69900538478029,10.0
subject-08,1,43,0.948816061019897,airplane,airplane,0,airplane8.png,True,-0.03206039057147567,0.2131047546863556,1.0,-0.03394572996996928,1.8535852432250977,0.3333333333333333,-1.8619945553568824,25.459554225206375,10.0,6.3999999999999995,9.0,22.69900538478029,10.0
subject-09,1,101,0.728198051452637,airplane,airplane,0,airplane8.png,True,-0.5829031848069511,0.2131047546863556,1.0,-0.03394572996996928,1.8535852432250977,0.3333333333333333,-1.8619945553568824,25.459554225206375,10.0,6.3999999999999995,9.0,22.69900538478029,10.0
subject-04,1,108,0.946673154830933,airplane,airplane,0,airplane8.png,True,0.0021931688972447994,0.2131047546863556,1.0,-0.03394572996996928,1.8535852432250977,0.3333333333333333,-1.8619945553568824,25.459554225206375,10.0,6.3999999999999995,9.0,22.69900538478029,10.0
subject-10,1,103,0.630344867706299,airplane,airplane,0,airplane8.png,True,-0.9953401277590844,0.2131047546863556,1.0,-0.03394572996996928,1.8535852432250977,0.3333333333333333,-1.8619945553568824,25.459554225206375,10.0,6.3999999999999995,9.0,22.69900538478029,10.0
subject-07,1,140,0.564454793930054,airplane,airplane,0,airplane8.png,True,-1.3780542454933156,0.2131047546863556,1.0,-0.03394572996996928,1.8535852432250977,0.3333333333333333,-1.8619945553568824,25.459554225206375,10.0,6.3999999999999995,9.0,22.69900538478029,10.0
subject-03,1,153,0.531010866165161,airplane,airplane,0,airplane8.png,True,-1.1863895925709451,0.2131047546863556,1.0,-0.03394572996996928,1.8535852432250977,0.3333333333333333,-1.8619945553568824,25.459554225206375,10.0,6.3999999999999995,9.0,22.69900538478029,10.0
subject-02,1,26,0.946459054946899,chair,chair,0,chair10.png,True,-0.12114788684530371,1.3832736015319824,0.5,-1.0815274557436954,1.857654094696045,0.0833333333333333,-4.53722282713952,26.49430215358734,10.0,1.1459096459096456,10.0,43.30680900717415,10.0
subject-06,1,16,1.0633590221405,chair,chair,0,chair10.png,True,0.7816474533587311,1.3832736015319824,0.5,-1.0815274557436954,1.857654094696045,0.0833333333333333,-4.53722282713952,26.49430215358734,10.0,1.1459096459096456,10.0,43.30680900717415,10.0
subject-01,1,53,0.800169944763184,chair,chair,0,chair10.png,True,0.04443366570606824,1.3832736015319824,0.5,-1.0815274557436954,1.857654094696045,0.0833333333333333,-4.53722282713952,26.49430215358734,10.0,1.1459096459096456,10.0,43.30680900717415,10.0
subject-05,1,61,1.00441598892212,chair,chair,0,chair10.png,True,-0.2815803007090032,1.3832736015319824,0.5,-1.0815274557436954,1.857654094696045,0.0833333333333333,-4.53722282713952,26.49430215358734,10.0,1.1459096459096456,10.0,43.30680900717415,10.0
subject-08,1,35,0.864506006240845,chair,chair,0,chair10.png,True,-0.38465381028444,1.3832736015319824,0.5,-1.0815274557436954,1.857654094696045,0.0833333333333333,-4.53722282713952,26.49430215358734,10.0,1.1459096459096456,10.0,43.30680900717415,10.0
subject-09,1,138,0.600820064544678,chair,chair,0,chair10.png,True,-1.1203638155689686,1.3832736015319824,0.5,-1.0815274557436954,1.857654094696045,0.0833333333333333,-4.53722282713952,26.49430215358734,10.0,1.1459096459096456,10.0,43.30680900717415,10.0
subject-04,1,12,0.764400959014893,chair,chair,0,chair10.png,True,-1.181162031722671,1.3832736015319824,0.5,-1.0815274557436954,1.857654094696045,0.0833333333333333,-4.53722282713952,26.49430215358734,10.0,1.1459096459096456,10.0,43.30680900717415,10.0
subject-10,1,19,0.782241821289062,chair,chair,0,chair10.png,True,-0.2075132581452959,1.3832736015319824,0.5,-1.0815274557436954,1.857654094696045,0.0833333333333333,-4.53722282713952,26.49430215358734,10.0,1.1459096459096456,10.0,43.30680900717415,10.0
subject-07,1,91,0.547832012176514,chair,chair,0,chair10.png,True,-1.4612140143789856,1.3832736015319824,0.5,-1.0815274557436954,1.857654094696045,0.0833333333333333,-4.53722282713952,26.49430215358734,10.0,1.1459096459096456,10.0,43.30680900717415,10.0
subject-03,1,17,0.595327138900757,chair,chair,0,chair10.png,True,-0.8957664908448999,1.3832736015319824,0.5,-1.0815274557436954,1.857654094696045,0.0833333333333333,-4.53722282713952,26.49430215358734,10.0,1.1459096459096456,10.0,43.30680900717415,10.0
subject-02,1,27,1.50021600723267,oven,oven,0,oven10.png,True,2.2883810986968722,1.084190845489502,0.1428571428571428,-5.292497849740762,2.0043110847473145,0.0625,-6.4514805584742145,26.611035227775574,10.0,0.132117882117882,10.0,61.15032886423184,6.0
subject-06,1,85,0.733500003814697,boat,oven,0,oven10.png,False,-0.5922324757332339,1.084190845489502,0.1428571428571428,-5.292497849740762,2.0043110847473145,0.0625,-6.4514805584742145,26.611035227775574,10.0,0.132117882117882,10.0,61.15032886423184,6.0
subject-01,1,109,0.789233922958374,keyboard,oven,0,oven10.png,False,-0.02385573225146254,1.084190845489502,0.1428571428571428,-5.292497849740762,2.0043110847473145,0.0625,-6.4514805584742145,26.611035227775574,10.0,0.132117882117882,10.0,61.15032886423184,6.0
subject-05,1,127,1.50022888183594,knife,oven,0,oven10.png,False,2.248942780708631,1.084190845489502,0.1428571428571428,-5.292497849740762,2.0043110847473145,0.0625,-6.4514805584742145,26.611035227775574,10.0,0.132117882117882,10.0,61.15032886423184,6.0
subject-08,1,4,0.703803062438965,oven,oven,0,oven10.png,True,-1.0567302389089865,1.084190845489502,0.1428571428571428,-5.292497849740762,2.0043110847473145,0.0625,-6.4514805584742145,26.611035227775574,10.0,0.132117882117882,10.0,61.15032886423184,6.0
subject-09,1,156,1.05185699462891,chair,oven,0,oven10.png,False,0.7827483219717153,1.084190845489502,0.1428571428571428,-5.292497849740762,2.0043110847473145,0.0625,-6.4514805584742145,26.611035227775574,10.0,0.132117882117882,10.0,61.15032886423184,6.0
subject-04,1,115,0.821154832839966,boat,oven,0,oven10.png,False,-0.8127021498106289,1.084190845489502,0.1428571428571428,-5.292497849740762,2.0043110847473145,0.0625,-6.4514805584742145,26.611035227775574,10.0,0.132117882117882,10.0,61.15032886423184,6.0
subject-10,1,73,1.06440210342407,boat,oven,0,oven10.png,False,1.255935787807081,1.084190845489502,0.1428571428571428,-5.292497849740762,2.0043110847473145,0.0625,-6.4514805584742145,26.611035227775574,10.0,0.132117882117882,10.0,61.15032886423184,6.0
subject-07,1,57,1.28846001625061,clock,oven,0,oven10.png,False,2.243969303445689,1.084190845489502,0.1428571428571428,-5.292497849740762,2.0043110847473145,0.0625,-6.4514805584742145,26.611035227775574,10.0,0.132117882117882,10.0,61.15032886423184,6.0
subject-03,1,111,0.695950031280518,boat,oven,0,oven10.png,False,-0.4410862700511437,1.084190845489502,0.1428571428571428,-5.292497849740762,2.0043110847473145,0.0625,-6.4514805584742145,26.611035227775574,10.0,0.132117882117882,10.0,61.15032886423184,6.0
subject-02,1,28,0.856839179992676,knife,knife,0,knife8.png,True,-0.5111054042931875,0.8229038715362549,1.0,-0.18269501385709438,1.8523350954055784,0.2,-3.2439996293836937,26.034043312072754,10.0,4.302453102453102,8.0,30.96429700431231,10.0
subject-06,1,10,0.740181922912598,knife,knife,0,knife8.png,True,-0.5644019359377291,0.8229038715362549,1.0,-0.18269501385709438,1.8523350954055784,0.2,-3.2439996293836937,26.034043312072754,10.0,4.302453102453102,8.0,30.96429700431231,10.0
subject-01,1,39,0.703930139541626,knife,knife,0,knife8.png,True,-0.5565306040651918,0.8229038715362549,1.0,-0.18269501385709438,1.8523350954055784,0.2,-3.2439996293836937,26.034043312072754,10.0,4.302453102453102,8.0,30.96429700431231,10.0
subject-05,1,154,1.48813104629517,knife,knife,0,knife8.png,True,2.187198012654699,0.8229038715362549,1.0,-0.18269501385709438,1.8523350954055784,0.2,-3.2439996293836937,26.034043312072754,10.0,4.302453102453102,8.0,30.96429700431231,10.0
subject-08,1,112,0.99507999420166,knife,knife,0,knife8.png,True,0.16142019075039682,0.8229038715362549,1.0,-0.18269501385709438,1.8523350954055784,0.2,-3.2439996293836937,26.034043312072754,10.0,4.302453102453102,8.0,30.96429700431231,10.0
subject-09,1,59,0.77022910118103,knife,knife,0,knife8.png,True,-0.4055567292146286,0.8229038715362549,1.0,-0.18269501385709438,1.8523350954055784,0.2,-3.2439996293836937,26.034043312072754,10.0,4.302453102453102,8.0,30.96429700431231,10.0
subject-04,1,87,0.936819076538086,knife,knife,0,knife8.png,True,-0.06178189182416693,0.8229038715362549,1.0,-0.18269501385709438,1.8523350954055784,0.2,-3.2439996293836937,26.034043312072754,10.0,4.302453102453102,8.0,30.96429700431231,10.0
subject-10,1,29,0.894069910049438,knife,knife,0,knife8.png,True,0.37249293042501663,0.8229038715362549,1.0,-0.18269501385709438,1.8523350954055784,0.2,-3.2439996293836937,26.034043312072754,10.0,4.302453102453102,8.0,30.96429700431231,10.0
subject-07,1,118,0.773309946060181,knife,knife,0,knife8.png,True,-0.33320228032665455,0.8229038715362549,1.0,-0.18269501385709438,1.8523350954055784,0.2,-3.2439996293836937,26.034043312072754,10.0,4.302453102453102,8.0,30.96429700431231,10.0
subject-03,1,38,0.549882173538208,knife,knife,0,knife8.png,True,-1.1011166492067204,0.8229038715362549,1.0,-0.18269501385709438,1.8523350954055784,0.2,-3.2439996293836937,26.034043312072754,10.0,4.302453102453102,8.0,30.96429700431231,10.0
subject-02,1,29,0.749418973922729,cat,cat,0,cat2.png,True,-0.9785164211482468,2.179478645324707,0.1428571428571428,-3.312684391529864,1.9057364463806152,0.1428571428571428,-3.7136479407075327,28.25204062461853,10.0,2.2801587301587296,9.0,35.53685719126445,0.0
subject-06,1,68,0.662561893463135,cat,cat,0,cat2.png,True,-0.8876933866229281,2.179478645324707,0.1428571428571428,-3.312684391529864,1.9057364463806152,0.1428571428571428,-3.7136479407075327,28.25204062461853,10.0,2.2801587301587296,9.0,35.53685719126445,0.0
subject-01,1,30,0.756917953491211,cat,cat,0,cat2.png,True,-0.22565105953911188,2.179478645324707,0.1428571428571428,-3.312684391529864,1.9057364463806152,0.1428571428571428,-3.7136479407075327,28.25204062461853,10.0,2.2801587301587296,9.0,35.53685719126445,0.0
subject-05,1,48,0.819185018539429,cat,cat,0,cat2.png,True,-1.2269596013401762,2.179478645324707,0.1428571428571428,-3.312684391529864,1.9057364463806152,0.1428571428571428,-3.7136479407075327,28.25204062461853,10.0,2.2801587301587296,9.0,35.53685719126445,0.0
subject-08,1,9,0.739552974700928,cat,cat,0,cat2.png,True,-0.9072203868288536,2.179478645324707,0.1428571428571428,-3.312684391529864,1.9057364463806152,0.1428571428571428,-3.7136479407075327,28.25204062461853,10.0,2.2801587301587296,9.0,35.53685719126445,0.0
subject-09,1,35,0.566449165344238,cat,cat,0,cat2.png,True,-1.2653889145876431,2.179478645324707,0.1428571428571428,-3.312684391529864,1.9057364463806152,0.1428571428571428,-3.7136479407075327,28.25204062461853,10.0,2.2801587301587296,9.0,35.53685719126445,0.0
subject-04,1,136,0.904654979705811,cat,cat,0,cat2.png,True,-0.27059899137855675,2.179478645324707,0.1428571428571428,-3.312684391529864,1.9057364463806152,0.1428571428571428,-3.7136479407075327,28.25204062461853,10.0,2.2801587301587296,9.0,35.53685719126445,0.0
subject-10,1,102,0.721697092056274,cat,cat,0,cat2.png,True,-0.5215338054836106,2.179478645324707,0.1428571428571428,-3.312684391529864,1.9057364463806152,0.1428571428571428,-3.7136479407075327,28.25204062461853,10.0,2.2801587301587296,9.0,35.53685719126445,0.0
subject-07,1,155,0.858811140060425,cat,cat,0,cat2.png,True,0.0945395764774819,2.179478645324707,0.1428571428571428,-3.312684391529864,1.9057364463806152,0.1428571428571428,-3.7136479407075327,28.25204062461853,10.0,2.2801587301587296,9.0,35.53685719126445,0.0
subject-03,1,23,1.23787403106689,bird,cat,0,cat2.png,False,2.0076817791354804,2.179478645324707,0.1428571428571428,-3.312684391529864,1.9057364463806152,0.1428571428571428,-3.7136479407075327,28.25204062461853,10.0,2.2801587301587296,9.0,35.53685719126445,0.0
subject-02,1,30,1.12313604354858,chair,dog,0,dog3.png,False,0.6476159604650314,2.011587619781494,0.3333333333333333,-2.022514354365026,1.869222640991211,0.0833333333333333,-4.6946577841997055,27.08992111682892,10.0,1.3305555555555555,8.0,39.77753074910367,6.0
subject-06,1,88,1.21260190010071,cat,dog,0,dog3.png,False,1.4032517849005581,2.011587619781494,0.3333333333333333,-2.022514354365026,1.869222640991211,0.0833333333333333,-4.6946577841997055,27.08992111682892,10.0,1.3305555555555555,8.0,39.77753074910367,6.0
subject-01,1,15,1.10391688346863,cat,dog,0,dog3.png,False,1.941165031632442,2.011587619781494,0.3333333333333333,-2.022514354365026,1.869222640991211,0.0833333333333333,-4.6946577841997055,27.08992111682892,10.0,1.3305555555555555,8.0,39.77753074910367,6.0
subject-05,1,72,1.07752990722656,dog,dog,0,dog3.png,True,0.09157751847345914,2.011587619781494,0.3333333333333333,-2.022514354365026,1.869222640991211,0.0833333333333333,-4.6946577841997055,27.08992111682892,10.0,1.3305555555555555,8.0,39.77753074910367,6.0
subject-08,1,12,1.25294709205627,cat,dog,0,dog3.png,False,1.239847219439807,2.011587619781494,0.3333333333333333,-2.022514354365026,1.869222640991211,0.0833333333333333,-4.6946577841997055,27.08992111682892,10.0,1.3305555555555555,8.0,39.77753074910367,6.0
subject-09,1,76,0.974622011184692,cat,dog,0,dog3.png,False,0.4568618487554425,2.011587619781494,0.3333333333333333,-2.022514354365026,1.869222640991211,0.0833333333333333,-4.6946577841997055,27.08992111682892,10.0,1.3305555555555555,8.0,39.77753074910367,6.0
subject-04,1,29,1.00472187995911,chair,dog,0,dog3.png,False,0.3790595387911625,2.011587619781494,0.3333333333333333,-2.022514354365026,1.869222640991211,0.0833333333333333,-4.6946577841997055,27.08992111682892,10.0,1.3305555555555555,8.0,39.77753074910367,6.0
subject-10,1,87,0.713446855545044,dog,dog,0,dog3.png,True,-0.564324380613047,2.011587619781494,0.3333333333333333,-2.022514354365026,1.869222640991211,0.0833333333333333,-4.6946577841997055,27.08992111682892,10.0,1.3305555555555555,8.0,39.77753074910367,6.0
subject-07,1,141,0.5485999584198,cat,dog,0,dog3.png,False,-1.4573721644975912,2.011587619781494,0.3333333333333333,-2.022514354365026,1.869222640991211,0.0833333333333333,-4.6946577841997055,27.08992111682892,10.0,1.3305555555555555,8.0,39.77753074910367,6.0
subject-03,1,93,0.849153995513916,dog,dog,0,dog3.png,True,0.25118971841101123,2.011587619781494,0.3333333333333333,-2.022514354365026,1.869222640991211,0.0833333333333333,-4.6946577841997055,27.08992111682892,10.0,1.3305555555555555,8.0,39.77753074910367,6.0
subject-02,1,31,1.03586506843567,chair,chair,0,chair7.png,True,0.26787906820012214,1.752049684524536,0.5,-1.8497591847715724,1.8437657356262207,0.0833333333333333,-4.676569096920457,26.82223069667816,10.0,0.8514041514041513,10.0,45.25239667591261,7.0
subject-06,1,55,0.904741764068604,chair,chair,0,chair7.png,True,0.12099834217591342,1.752049684524536,0.5,-1.8497591847715724,1.8437657356262207,0.0833333333333333,-4.676569096920457,26.82223069667816,10.0,0.8514041514041513,10.0,45.25239667591261,7.0
subject-01,1,156,0.683084964752197,chair,chair,0,chair7.png,True,-0.6866971730513196,1.752049684524536,0.5,-1.8497591847715724,1.8437657356262207,0.0833333333333333,-4.676569096920457,26.82223069667816,10.0,0.8514041514041513,10.0,45.25239667591261,7.0
subject-05,1,89,0.909730911254883,chair,chair,0,chair7.png,True,-0.764832708879864,1.752049684524536,0.5,-1.8497591847715724,1.8437657356262207,0.0833333333333333,-4.676569096920457,26.82223069667816,10.0,0.8514041514041513,10.0,45.25239667591261,7.0
subject-08,1,55,0.765474081039429,chair,chair,0,chair7.png,True,-0.7988156235940616,1.752049684524536,0.5,-1.8497591847715724,1.8437657356262207,0.0833333333333333,-4.676569096920457,26.82223069667816,10.0,0.8514041514041513,10.0,45.25239667591261,7.0
subject-09,1,2,0.627962112426758,chair,chair,0,chair7.png,True,-1.005840242626836,1.752049684524536,0.5,-1.8497591847715724,1.8437657356262207,0.0833333333333333,-4.676569096920457,26.82223069667816,10.0,0.8514041514041513,10.0,45.25239667591261,7.0
subject-04,1,23,0.842625141143799,chair,chair,0,chair7.png,True,-0.6733117130163303,1.752049684524536,0.5,-1.8497591847715724,1.8437657356262207,0.0833333333333333,-4.676569096920457,26.82223069667816,10.0,0.8514041514041513,10.0,45.25239667591261,7.0
subject-10,1,41,0.812083959579468,chair,chair,0,chair7.png,True,-0.05273439104245812,1.752049684524536,0.5,-1.8497591847715724,1.8437657356262207,0.0833333333333333,-4.676569096920457,26.82223069667816,10.0,0.8514041514041513,10.0,45.25239667591261,7.0
subject-07,1,44,0.856029987335205,chair,chair,0,chair7.png,True,0.08062614000853484,1.752049684524536,0.5,-1.8497591847715724,1.8437657356262207,0.0833333333333333,-4.676569096920457,26.82223069667816,10.0,0.8514041514041513,10.0,45.25239667591261,7.0
subject-03,1,7,0.629884004592896,chair,chair,0,chair7.png,True,-0.7396159076998435,1.752049684524536,0.5,-1.8497591847715724,1.8437657356262207,0.0833333333333333,-4.676569096920457,26.82223069667816,10.0,0.8514041514041513,10.0,45.25239667591261,7.0
subject-02,1,32,1.31253814697266,bear,clock,0,clock3.png,False,1.4717498268466571,0.3824138343334198,1.0,-0.07860707799601685,1.78783917427063,0.5,-1.0824984352992693,25.105582684278488,10.0,9.5,2.0,16.837028242954982,10.0
subject-06,1,159,0.494019031524658,clock,clock,0,clock3.png,True,-1.5896831529911808,0.3824138343334198,1.0,-0.07860707799601685,1.78783917427063,0.5,-1.0824984352992693,25.105582684278488,10.0,9.5,2.0,16.837028242954982,10.0
subject-01,1,120,0.580572128295898,clock,clock,0,clock3.png,True,-1.3268330478207364,0.3824138343334198,1.0,-0.07860707799601685,1.78783917427063,0.5,-1.0824984352992693,25.105582684278488,10.0,9.5,2.0,16.837028242954982,10.0
subject-05,1,46,0.935148954391479,clock,clock,0,clock3.png,True,-0.6351044469469793,0.3824138343334198,1.0,-0.07860707799601685,1.78783917427063,0.5,-1.0824984352992693,25.105582684278488,10.0,9.5,2.0,16.837028242954982,10.0
subject-08,1,81,0.709136962890625,clock,clock,0,clock3.png,True,-1.0344233123438453,0.3824138343334198,1.0,-0.07860707799601685,1.78783917427063,0.5,-1.0824984352992693,25.105582684278488,10.0,9.5,2.0,16.837028242954982,10.0
subject-09,1,159,0.643404006958008,clock,clock,0,clock3.png,True,-0.940684476105552,0.3824138343334198,1.0,-0.07860707799601685,1.78783917427063,0.5,-1.0824984352992693,25.105582684278488,10.0,9.5,2.0,16.837028242954982,10.0
subject-04,1,31,1.09535098075867,clock,clock,0,clock3.png,True,0.9674455911921856,0.3824138343334198,1.0,-0.07860707799601685,1.78783917427063,0.5,-1.0824984352992693,25.105582684278488,10.0,9.5,2.0,16.837028242954982,10.0
subject-10,1,143,0.532644033432007,clock,clock,0,clock3.png,True,-1.502074072117174,0.3824138343334198,1.0,-0.07860707799601685,1.78783917427063,0.5,-1.0824984352992693,25.105582684278488,10.0,9.5,2.0,16.837028242954982,10.0
subject-07,1,24,0.764301061630249,clock,clock,0,clock3.png,True,-0.3782715568303485,0.3824138343334198,1.0,-0.07860707799601685,1.78783917427063,0.5,-1.0824984352992693,25.105582684278488,10.0,9.5,2.0,16.837028242954982,10.0
subject-03,1,144,0.551088094711304,clock,clock,0,clock3.png,True,-1.0956675064492871,0.3824138343334198,1.0,-0.07860707799601685,1.78783917427063,0.5,-1.0824984352992693,25.105582684278488,10.0,9.5,2.0,16.837028242954982,10.0
subject-02,1,33,,na,dog,0,dog2.png,False,,1.8329119682312012,0.1428571428571428,-3.406316216796143,1.9444955587387085,0.0769230769230769,-4.673787375050019,27.282448172569275,10.0,0.5932289932289931,9.0,42.34221628301699,6.0
subject-06,1,130,0.806125164031982,bird,dog,0,dog2.png,False,-0.2897449146047258,1.8329119682312012,0.1428571428571428,-3.406316216796143,1.9444955587387085,0.0769230769230769,-4.673787375050019,27.282448172569275,10.0,0.5932289932289931,9.0,42.34221628301699,6.0
subject-01,1,57,1.05719804763794,keyboard,dog,0,dog2.png,False,1.64943178264136,1.8329119682312012,0.1428571428571428,-3.406316216796143,1.9444955587387085,0.0769230769230769,-4.673787375050019,27.282448172569275,10.0,0.5932289932289931,9.0,42.34221628301699,6.0
subject-05,1,43,1.01910018920898,dog,dog,0,dog2.png,True,-0.20663527953441826,1.8329119682312012,0.1428571428571428,-3.406316216796143,1.9444955587387085,0.0769230769230769,-4.673787375050019,27.282448172569275,10.0,0.5932289932289931,9.0,42.34221628301699,6.0
subject-08,1,71,1.07816696166992,bird,dog,0,dog2.png,False,0.5088985320940035,1.8329119682312012,0.1428571428571428,-3.406316216796143,1.9444955587387085,0.0769230769230769,-4.673787375050019,27.282448172569275,10.0,0.5932289932289931,9.0,42.34221628301699,6.0
subject-09,1,105,,na,dog,0,dog2.png,False,,1.8329119682312012,0.1428571428571428,-3.406316216796143,1.9444955587387085,0.0769230769230769,-4.673787375050019,27.282448172569275,10.0,0.5932289932289931,9.0,42.34221628301699,6.0
subject-04,1,92,0.97970986366272,dog,dog,0,dog2.png,True,0.21667547670307838,1.8329119682312012,0.1428571428571428,-3.406316216796143,1.9444955587387085,0.0769230769230769,-4.673787375050019,27.282448172569275,10.0,0.5932289932289931,9.0,42.34221628301699,6.0
subject-10,1,79,1.15451312065125,cat,dog,0,dog2.png,False,1.7233044804986204,1.8329119682312012,0.1428571428571428,-3.406316216796143,1.9444955587387085,0.0769230769230769,-4.673787375050019,27.282448172569275,10.0,0.5932289932289931,9.0,42.34221628301699,6.0
subject-07,1,158,1.00017499923706,bird,dog,0,dog2.png,False,0.8017488770755504,1.8329119682312012,0.1428571428571428,-3.406316216796143,1.9444955587387085,0.0769230769230769,-4.673787375050019,27.282448172569275,10.0,0.5932289932289931,9.0,42.34221628301699,6.0
subject-03,1,32,0.862236976623535,dog,dog,0,dog2.png,True,0.3103072074721644,1.8329119682312012,0.1428571428571428,-3.406316216796143,1.9444955587387085,0.0769230769230769,-4.673787375050019,27.282448172569275,10.0,0.5932289932289931,9.0,42.34221628301699,6.0
subject-02,1,34,1.05457901954651,bear,elephant,0,elephant4.png,False,0.3493079467892939,1.479517936706543,0.0666666666666666,-7.541115667174458,1.937361478805542,0.125,-3.817681875897613,27.171268224716187,10.0,0.5020202020202018,2.0,44.99832892927253,2.0
subject-06,1,80,0.991156101226807,elephant,elephant,0,elephant4.png,True,0.48091854084144764,1.479517936706543,0.0666666666666666,-7.541115667174458,1.937361478805542,0.125,-3.817681875897613,27.171268224716187,10.0,0.5020202020202018,2.0,44.99832892927253,2.0
subject-01,1,5,0.892575025558472,elephant,elephant,0,elephant4.png,True,0.6214522057524806,1.479517936706543,0.0666666666666666,-7.541115667174458,1.937361478805542,0.125,-3.817681875897613,27.171268224716187,10.0,0.5020202020202018,2.0,44.99832892927253,2.0
subject-05,1,39,1.03443193435669,elephant,elephant,0,elephant4.png,True,-0.12838532772964245,1.479517936706543,0.0666666666666666,-7.541115667174458,1.937361478805542,0.125,-3.817681875897613,27.171268224716187,10.0,0.5020202020202018,2.0,44.99832892927253,2.0
subject-08,1,29,,na,elephant,0,elephant4.png,False,,1.479517936706543,0.0666666666666666,-7.541115667174458,1.937361478805542,0.125,-3.817681875897613,27.171268224716187,10.0,0.5020202020202018,2.0,44.99832892927253,2.0
subject-09,1,58,1.20147800445557,elephant,elephant,0,elephant4.png,True,1.4140615046395593,1.479517936706543,0.0666666666666666,-7.541115667174458,1.937361478805542,0.125,-3.817681875897613,27.171268224716187,10.0,0.5020202020202018,2.0,44.99832892927253,2.0
subject-04,1,134,0.989313125610352,elephant,elephant,0,elephant4.png,True,0.27902217701997717,1.479517936706543,0.0666666666666666,-7.541115667174458,1.937361478805542,0.125,-3.817681875897613,27.171268224716187,10.0,0.5020202020202018,2.0,44.99832892927253,2.0
subject-10,1,101,1.14590692520142,elephant,elephant,0,elephant4.png,True,1.6786676931200657,1.479517936706543,0.0666666666666666,-7.541115667174458,1.937361478805542,0.125,-3.817681875897613,27.171268224716187,10.0,0.5020202020202018,2.0,44.99832892927253,2.0
subject-07,1,53,0.862534046173096,elephant,elephant,0,elephant4.png,True,0.1131643780602156,1.479517936706543,0.0666666666666666,-7.541115667174458,1.937361478805542,0.125,-3.817681875897613,27.171268224716187,10.0,0.5020202020202018,2.0,44.99832892927253,2.0
subject-03,1,64,0.749830007553101,elephant,elephant,0,elephant4.png,True,-0.1976212003379632,1.479517936706543,0.0666666666666666,-7.541115667174458,1.937361478805542,0.125,-3.817681875897613,27.171268224716187,10.0,0.5020202020202018,2.0,44.99832892927253,2.0
subject-02,1,35,0.615163087844849,bottle,bottle,0,bottle2.png,True,-1.5626959021443765,0.0555563010275363,1.0,-0.007182041694137399,1.687401533126831,0.5,-1.1418926637185005,24.224276188760996,10.0,6.416666666666666,3.0,19.97730846397252,10.0
subject-06,1,123,0.51701807975769,bottle,bottle,0,bottle2.png,True,-1.4938909235837334,0.0555563010275363,1.0,-0.007182041694137399,1.687401533126831,0.5,-1.1418926637185005,24.224276188760996,10.0,6.416666666666666,3.0,19.97730846397252,10.0
subject-01,1,93,0.990937948226929,bottle,bottle,0,bottle2.png,True,1.235674167839066,0.0555563010275363,1.0,-0.007182041694137399,1.687401533126831,0.5,-1.1418926637185005,24.224276188760996,10.0,6.416666666666666,3.0,19.97730846397252,10.0
subject-05,1,112,0.876287937164307,bottle,bottle,0,bottle2.png,True,-0.935518503979114,0.0555563010275363,1.0,-0.007182041694137399,1.687401533126831,0.5,-1.1418926637185005,24.224276188760996,10.0,6.416666666666666,3.0,19.97730846397252,10.0
subject-08,1,98,0.759682893753052,bottle,bottle,0,bottle2.png,True,-0.8230349712727357,0.0555563010275363,1.0,-0.007182041694137399,1.687401533126831,0.5,-1.1418926637185005,24.224276188760996,10.0,6.416666666666666,3.0,19.97730846397252,10.0
subject-09,1,18,0.613155126571655,bottle,bottle,0,bottle2.png,True,-1.0683170657463468,0.0555563010275363,1.0,-0.007182041694137399,1.687401533126831,0.5,-1.1418926637185005,24.224276188760996,10.0,6.416666666666666,3.0,19.97730846397252,10.0
subject-04,1,100,0.643973112106323,bottle,bottle,0,bottle2.png,True,-1.963008754426028,0.0555563010275363,1.0,-0.007182041694137399,1.687401533126831,0.5,-1.1418926637185005,24.224276188760996,10.0,6.416666666666666,3.0,19.97730846397252,10.0
subject-10,1,40,0.716948986053467,bottle,bottle,0,bottle2.png,True,-0.5461602736289883,0.0555563010275363,1.0,-0.007182041694137399,1.687401533126831,0.5,-1.1418926637185005,24.224276188760996,10.0,6.416666666666666,3.0,19.97730846397252,10.0
subject-07,1,52,0.71012282371521,bottle,bottle,0,bottle2.png,True,-0.6493122171992427,0.0555563010275363,1.0,-0.007182041694137399,1.687401533126831,0.5,-1.1418926637185005,24.224276188760996,10.0,6.416666666666666,3.0,19.97730846397252,10.0
subject-03,1,108,0.679076910018921,bottle,bottle,0,bottle2.png,True,-0.5173300980634444,0.0555563010275363,1.0,-0.007182041694137399,1.687401533126831,0.5,-1.1418926637185005,24.224276188760996,10.0,6.416666666666666,3.0,19.97730846397252,10.0
subject-02,1,36,0.943508148193359,knife,boat,0,boat1.png,False,-0.13398798813330937,1.494899034500122,0.125,-4.370613853078386,1.9219484329223633,0.25,-2.8261280056093034,27.218687534332275,10.0,1.4220238095238094,1.0,34.99397112265873,1.0
subject-06,1,149,1.26250004768372,boat,boat,0,boat1.png,True,1.611080159007508,1.494899034500122,0.125,-4.370613853078386,1.9219484329223633,0.25,-2.8261280056093034,27.218687534332275,10.0,1.4220238095238094,1.0,34.99397112265873,1.0
subject-01,1,23,0.946758031845093,boat,boat,0,boat1.png,True,0.9597950643242346,1.494899034500122,0.125,-4.370613853078386,1.9219484329223633,0.25,-2.8261280056093034,27.218687534332275,10.0,1.4220238095238094,1.0,34.99397112265873,1.0
subject-05,1,71,0.869098901748657,airplane,boat,0,boat1.png,False,-0.9722098048961175,1.494899034500122,0.125,-4.370613853078386,1.9219484329223633,0.25,-2.8261280056093034,27.218687534332275,10.0,1.4220238095238094,1.0,34.99397112265873,1.0
subject-08,1,143,0.995759963989258,knife,boat,0,boat1.png,False,0.16426389513819473,1.494899034500122,0.125,-4.370613853078386,1.9219484329223633,0.25,-2.8261280056093034,27.218687534332275,10.0,1.4220238095238094,1.0,34.99397112265873,1.0
subject-09,1,53,1.07262301445007,cat,boat,0,boat1.png,False,0.8703687843641835,1.494899034500122,0.125,-4.370613853078386,1.9219484329223633,0.25,-2.8261280056093034,27.218687534332275,10.0,1.4220238095238094,1.0,34.99397112265873,1.0
subject-04,1,114,1.08454704284668,knife,boat,0,boat1.png,False,0.897303811980662,1.494899034500122,0.125,-4.370613853078386,1.9219484329223633,0.25,-2.8261280056093034,27.218687534332275,10.0,1.4220238095238094,1.0,34.99397112265873,1.0
subject-10,1,59,1.01859283447266,oven,boat,0,boat1.png,False,1.0183419973718992,1.494899034500122,0.125,-4.370613853078386,1.9219484329223633,0.25,-2.8261280056093034,27.218687534332275,10.0,1.4220238095238094,1.0,34.99397112265873,1.0
subject-07,1,16,0.963483095169067,knife,boat,0,boat1.png,False,0.618188128489071,1.494899034500122,0.125,-4.370613853078386,1.9219484329223633,0.25,-2.8261280056093034,27.218687534332275,10.0,1.4220238095238094,1.0,34.99397112265873,1.0
subject-03,1,118,0.721549034118652,boat,boat,0,boat1.png,True,-0.3254131862501472,1.494899034500122,0.125,-4.370613853078386,1.9219484329223633,0.25,-2.8261280056093034,27.218687534332275,10.0,1.4220238095238094,1.0,34.99397112265873,1.0
subject-02,1,37,1.04216384887695,elephant,bear,0,bear7.png,False,0.2952865688810309,1.3098630905151367,0.0714285714285714,-7.810481551099445,1.8271644115448,0.1,-4.34571916213782,25.952853679656982,10.0,0.45992063492063473,0.0,48.225539307017115,7.0
subject-06,1,54,1.19820213317871,elephant,bear,0,bear7.png,False,1.3432760084062565,1.3098630905151367,0.0714285714285714,-7.810481551099445,1.8271644115448,0.1,-4.34571916213782,25.952853679656982,10.0,0.45992063492063473,0.0,48.225539307017115,7.0
subject-01,1,123,0.803043127059937,elephant,bear,0,bear7.png,False,0.06237509749630065,1.3098630905151367,0.0714285714285714,-7.810481551099445,1.8271644115448,0.1,-4.34571916213782,25.952853679656982,10.0,0.45992063492063473,0.0,48.225539307017115,7.0
subject-05,1,49,0.82790994644165,elephant,bear,0,bear7.png,False,-1.1824294332952876,1.3098630905151367,0.0714285714285714,-7.810481551099445,1.8271644115448,0.1,-4.34571916213782,25.952853679656982,10.0,0.45992063492063473,0.0,48.225539307017115,7.0
subject-08,1,155,1.13417911529541,elephant,bear,0,bear7.png,False,0.7431471854017985,1.3098630905151367,0.0714285714285714,-7.810481551099445,1.8271644115448,0.1,-4.34571916213782,25.952853679656982,10.0,0.45992063492063473,0.0,48.225539307017115,7.0
subject-09,1,27,1.01343989372253,elephant,bear,0,bear7.png,False,0.6206506174436109,1.3098630905151367,0.0714285714285714,-7.810481551099445,1.8271644115448,0.1,-4.34571916213782,25.952853679656982,10.0,0.45992063492063473,0.0,48.225539307017115,7.0
subject-04,1,32,1.49184608459473,bear,bear,0,bear7.png,True,3.5415877473456905,1.3098630905151367,0.0714285714285714,-7.810481551099445,1.8271644115448,0.1,-4.34571916213782,25.952853679656982,10.0,0.45992063492063473,0.0,48.225539307017115,7.0
subject-10,1,36,1.37491798400879,elephant,bear,0,bear7.png,False,2.8664536316237297,1.3098630905151367,0.0714285714285714,-7.810481551099445,1.8271644115448,0.1,-4.34571916213782,25.952853679656982,10.0,0.45992063492063473,0.0,48.225539307017115,7.0
subject-07,1,34,0.912187814712524,elephant,bear,0,bear7.png,False,0.3615702091216754,1.3098630905151367,0.0714285714285714,-7.810481551099445,1.8271644115448,0.1,-4.34571916213782,25.952853679656982,10.0,0.45992063492063473,0.0,48.225539307017115,7.0
subject-03,1,68,0.594317197799683,elephant,bear,0,bear7.png,False,-0.9003300671043851,1.3098630905151367,0.0714285714285714,-7.810481551099445,1.8271644115448,0.1,-4.34571916213782,25.952853679656982,10.0,0.45992063492063473,0.0,48.225539307017115,7.0
subject-02,1,38,0.924787998199463,cat,bear,0,bear1.png,False,-0.2154438395457391,1.7907297611236572,0.0769230769230769,-4.997440807320191,1.883695602416992,0.0909090909090909,-4.43709808318924,27.44343411922455,10.0,0.5027528027528025,0.0,43.60951047298562,0.0
subject-06,1,81,0.67340612411499,bear,bear,0,bear1.png,True,-0.8425266032054378,1.7907297611236572,0.0769230769230769,-4.997440807320191,1.883695602416992,0.0909090909090909,-4.43709808318924,27.44343411922455,10.0,0.5027528027528025,0.0,43.60951047298562,0.0
subject-01,1,143,0.722584009170532,bear,bear,0,bear1.png,True,-0.4400475218921135,1.7907297611236572,0.0769230769230769,-4.997440807320191,1.883695602416992,0.0909090909090909,-4.43709808318924,27.44343411922455,10.0,0.5027528027528025,0.0,43.60951047298562,0.0
subject-05,1,147,0.865018129348755,bear,bear,0,bear1.png,True,-0.993037195420952,1.7907297611236572,0.0769230769230769,-4.997440807320191,1.883695602416992,0.0909090909090909,-4.43709808318924,27.44343411922455,10.0,0.5027528027528025,0.0,43.60951047298562,0.0
subject-08,1,64,1.27205300331116,elephant,bear,0,bear1.png,False,1.3197501278621586,1.7907297611236572,0.0769230769230769,-4.997440807320191,1.883695602416992,0.0909090909090909,-4.43709808318924,27.44343411922455,10.0,0.5027528027528025,0.0,43.60951047298562,0.0
subject-09,1,110,0.623086929321289,bear,bear,0,bear1.png,True,-1.0264106649623614,1.7907297611236572,0.0769230769230769,-4.997440807320191,1.883695602416992,0.0909090909090909,-4.43709808318924,27.44343411922455,10.0,0.5027528027528025,0.0,43.60951047298562,0.0
subject-04,1,50,0.722615957260132,bear,bear,0,bear1.png,True,-1.452440374055877,1.7907297611236572,0.0769230769230769,-4.997440807320191,1.883695602416992,0.0909090909090909,-4.43709808318924,27.44343411922455,10.0,0.5027528027528025,0.0,43.60951047298562,0.0
subject-10,1,24,0.586394071578979,bear,bear,0,bear1.png,True,-1.223294785922483,1.7907297611236572,0.0769230769230769,-4.997440807320191,1.883695602416992,0.0909090909090909,-4.43709808318924,27.44343411922455,10.0,0.5027528027528025,0.0,43.60951047298562,0.0
subject-07,1,132,0.601091146469116,bear,bear,0,bear1.png,True,-1.1947714078110188,1.7907297611236572,0.0769230769230769,-4.997440807320191,1.883695602416992,0.0909090909090909,-4.43709808318924,27.44343411922455,10.0,0.5027528027528025,0.0,43.60951047298562,0.0
subject-03,1,66,0.545977115631104,bear,bear,0,bear1.png,True,-1.1187622619437638,1.7907297611236572,0.0769230769230769,-4.997440807320191,1.883695602416992,0.0909090909090909,-4.43709808318924,27.44343411922455,10.0,0.5027528027528025,0.0,43.60951047298562,0.0
subject-02,1,39,0.66292405128479,bicycle,bicycle,0,bicycle3.png,True,-1.3548765234242888,0.5836269855499268,0.2,-4.679925759627774,1.863980054855347,0.0909090909090909,-4.30049763484936,25.488481283187866,10.0,1.0135642135642136,3.0,40.460885618879395,6.0
subject-06,1,128,0.875076055526733,bicycle,bicycle,0,bicycle3.png,True,-0.0025608733787532505,0.5836269855499268,0.2,-4.679925759627774,1.863980054855347,0.0909090909090909,-4.30049763484936,25.488481283187866,10.0,1.0135642135642136,3.0,40.460885618879395,6.0
subject-01,1,79,0.786638021469116,bicycle,bicycle,0,bicycle3.png,True,-0.04006569900377082,0.5836269855499268,0.2,-4.679925759627774,1.863980054855347,0.0909090909090909,-4.30049763484936,25.488481283187866,10.0,1.0135642135642136,3.0,40.460885618879395,6.0
subject-05,1,124,1.28829789161682,bicycle,bicycle,0,bicycle3.png,True,1.1672922829463739,0.5836269855499268,0.2,-4.679925759627774,1.863980054855347,0.0909090909090909,-4.30049763484936,25.488481283187866,10.0,1.0135642135642136,3.0,40.460885618879395,6.0
subject-08,1,96,0.631126880645752,bicycle,bicycle,0,bicycle3.png,True,-1.3606695915437916,0.5836269855499268,0.2,-4.679925759627774,1.863980054855347,0.0909090909090909,-4.30049763484936,25.488481283187866,10.0,1.0135642135642136,3.0,40.460885618879395,6.0
subject-09,1,8,0.708577871322632,bicycle,bicycle,0,bicycle3.png,True,-0.6656888736399567,0.5836269855499268,0.2,-4.679925759627774,1.863980054855347,0.0909090909090909,-4.30049763484936,25.488481283187866,10.0,1.0135642135642136,3.0,40.460885618879395,6.0
subject-04,1,40,0.842657089233398,bicycle,bicycle,0,bicycle3.png,True,-0.6731042982880031,0.5836269855499268,0.2,-4.679925759627774,1.863980054855347,0.0909090909090909,-4.30049763484936,25.488481283187866,10.0,1.0135642135642136,3.0,40.460885618879395,6.0
subject-10,1,119,0.891533851623535,bicycle,bicycle,0,bicycle3.png,True,0.3593394410118916,0.5836269855499268,0.2,-4.679925759627774,1.863980054855347,0.0909090909090909,-4.30049763484936,25.488481283187866,10.0,1.0135642135642136,3.0,40.460885618879395,6.0
subject-07,1,56,0.9201979637146,bicycle,bicycle,0,bicycle3.png,True,0.4016430531034337,0.5836269855499268,0.2,-4.679925759627774,1.863980054855347,0.0909090909090909,-4.30049763484936,25.488481283187866,10.0,1.0135642135642136,3.0,40.460885618879395,6.0
subject-03,1,152,0.486218929290771,bicycle,bicycle,0,bicycle3.png,True,-1.3887889399377875,0.5836269855499268,0.2,-4.679925759627774,1.863980054855347,0.0909090909090909,-4.30049763484936,25.488481283187866,10.0,1.0135642135642136,3.0,40.460885618879395,6.0
subject-02,1,40,1.21290898323059,knife,keyboard,0,keyboard4.png,False,1.0382394991641961,0.5579659342765808,0.3333333333333333,-3.394988665960628,1.9301204681396484,0.0909090909090909,-4.369874355966757,25.999622762203217,10.0,1.389260739260739,5.0,42.027944071085855,5.0
subject-06,1,29,0.980794906616211,boat,keyboard,0,keyboard4.png,False,0.4377636276025633,0.5579659342765808,0.3333333333333333,-3.394988665960628,1.9301204681396484,0.0909090909090909,-4.369874355966757,25.999622762203217,10.0,1.389260739260739,5.0,42.027944071085855,5.0
subject-01,1,22,0.700416088104248,keyboard,keyboard,0,keyboard4.png,True,-0.5784739086171987,0.5579659342765808,0.3333333333333333,-3.394988665960628,1.9301204681396484,0.0909090909090909,-4.369874355966757,25.999622762203217,10.0,1.389260739260739,5.0,42.027944071085855,5.0
subject-05,1,141,1.27567410469055,knife,keyboard,0,keyboard4.png,False,1.1028631713835635,0.5579659342765808,0.3333333333333333,-3.394988665960628,1.9301204681396484,0.0909090909090909,-4.369874355966757,25.999622762203217,10.0,1.389260739260739,5.0,42.027944071085855,5.0
subject-08,1,108,0.563491821289062,boat,keyboard,0,keyboard4.png,False,-1.6435264457299417,0.5579659342765808,0.3333333333333333,-3.394988665960628,1.9301204681396484,0.0909090909090909,-4.369874355966757,25.999622762203217,10.0,1.389260739260739,5.0,42.027944071085855,5.0
subject-09,1,142,1.2850170135498,boat,keyboard,0,keyboard4.png,False,1.7665472803290583,0.5579659342765808,0.3333333333333333,-3.394988665960628,1.9301204681396484,0.0909090909090909,-4.369874355966757,25.999622762203217,10.0,1.389260739260739,5.0,42.027944071085855,5.0
subject-04,1,129,0.896899938583374,knife,keyboard,0,keyboard4.png,False,-0.3209465948743694,0.5579659342765808,0.3333333333333333,-3.394988665960628,1.9301204681396484,0.0909090909090909,-4.369874355966757,25.999622762203217,10.0,1.389260739260739,5.0,42.027944071085855,5.0
