subject_id,Session,trial,rt,object_response,category,condition,item_id,response_correct,rt_zscore,output_entropy,output_rank_correct,output_logprob_correct,midpoint_entropy,midpoint_rank_correct,midpoint_logprob_correct,auc_entropy,layer_biggest_change_entropy,auc_rank_correct,layer_biggest_change_rank_correct,auc_logprob_correct,layer_biggest_change_logprob_correct
subject-01,1,1,0.809584140777588,knife,knife,True,true_knife_35_n03041632_86251.png,True,-0.3913784928065919,8.818267815513536e-06,1.0,-4.768372718899988e-07,1.8992977142333984,0.2,-3.432835944349265,24.86087894117736,10.0,4.4505050505050505,7.0,32.60457317662377,6.0
subject-02,1,161,0.811511993408203,knife,knife,True,true_knife_35_n03041632_86251.png,True,-0.011902863765227084,8.818267815513536e-06,1.0,-4.768372718899988e-07,1.8992977142333984,0.2,-3.432835944349265,24.86087894117736,10.0,4.4505050505050505,7.0,32.60457317662377,6.0
subject-03,1,409,0.869257926940918,knife,knife,True,true_knife_35_n03041632_86251.png,True,0.2700896786641321,8.818267815513536e-06,1.0,-4.768372718899988e-07,1.8992977142333984,0.2,-3.432835944349265,24.86087894117736,10.0,4.4505050505050505,7.0,32.60457317662377,6.0
subject-04,1,467,0.794734001159668,knife,knife,True,true_knife_35_n03041632_86251.png,True,-0.06694585352664746,8.818267815513536e-06,1.0,-4.768372718899988e-07,1.8992977142333984,0.2,-3.432835944349265,24.86087894117736,10.0,4.4505050505050505,7.0,32.60457317662377,6.0
subject-01,1,2,0.997450113296509,car,car,False,false_car_35_n03100240_16866.png,True,0.6832788419822048,0.1380951702594757,1.0,-0.029596757411486378,1.8229299783706665,0.1428571428571428,-4.219738819088669,24.476681143045425,10.0,3.359163059163059,8.0,38.97655510604447,9.0
subject-02,1,633,0.659950971603394,car,car,False,false_car_35_n03100240_16866.png,True,-0.7986539357605872,0.1380951702594757,1.0,-0.029596757411486378,1.8229299783706665,0.1428571428571428,-4.219738819088669,24.476681143045425,10.0,3.359163059163059,8.0,38.97655510604447,9.0
subject-03,1,522,0.714503049850464,car,car,False,false_car_35_n03100240_16866.png,True,-0.4106279015543202,0.1380951702594757,1.0,-0.029596757411486378,1.8229299783706665,0.1428571428571428,-4.219738819088669,24.476681143045425,10.0,3.359163059163059,8.0,38.97655510604447,9.0
subject-04,1,1068,0.964937210083008,car,car,False,false_car_35_n03100240_16866.png,True,0.7373379433498674,0.1380951702594757,1.0,-0.029596757411486378,1.8229299783706665,0.1428571428571428,-4.219738819088669,24.476681143045425,10.0,3.359163059163059,8.0,38.97655510604447,9.0
subject-01,1,3,1.25921511650085,keyboard,keyboard,False,false_keyboard_35_n03085013_21127.png,True,2.180663796334308,1.5304641723632812,1.0,-0.8415867695720693,1.6714670658111572,0.1666666666666666,-4.371191222001622,26.33326530456543,10.0,2.4865440115440114,9.0,41.14392832731245,10.0
subject-02,1,958,0.907461881637573,keyboard,keyboard,False,false_keyboard_35_n03085013_21127.png,True,0.48617161820488974,1.5304641723632812,1.0,-0.8415867695720693,1.6714670658111572,0.1666666666666666,-4.371191222001622,26.33326530456543,10.0,2.4865440115440114,9.0,41.14392832731245,10.0
subject-03,1,283,0.947669982910156,keyboard,keyboard,False,false_keyboard_35_n03085013_21127.png,True,0.6149994224012236,1.5304641723632812,1.0,-0.8415867695720693,1.6714670658111572,0.1666666666666666,-4.371191222001622,26.33326530456543,10.0,2.4865440115440114,9.0,41.14392832731245,10.0
subject-04,1,906,1.03002095222473,keyboard,keyboard,False,false_keyboard_35_n03085013_21127.png,True,1.0448867820339416,1.5304641723632812,1.0,-0.8415867695720693,1.6714670658111572,0.1666666666666666,-4.371191222001622,26.33326530456543,10.0,2.4865440115440114,9.0,41.14392832731245,10.0
subject-01,1,4,0.825117111206055,truck,truck,True,true_truck_35_n03417042_10694.png,True,-0.3025246126802782,0.0014368484262377,1.0,-0.00011820299628851918,1.8884146213531496,0.1428571428571428,-4.151405573668172,25.55070199468173,10.0,3.6526307026307023,8.0,39.34265669038183,10.0
subject-02,1,1052,1.06858706474304,truck,truck,True,true_truck_35_n03417042_10694.png,True,1.3225701131750032,0.0014368484262377,1.0,-0.00011820299628851918,1.8884146213531496,0.1428571428571428,-4.151405573668172,25.55070199468173,10.0,3.6526307026307023,8.0,39.34265669038183,10.0
subject-03,1,204,0.707373857498169,truck,truck,True,true_truck_35_n03417042_10694.png,True,-0.44198695568047625,0.0014368484262377,1.0,-0.00011820299628851918,1.8884146213531496,0.1428571428571428,-4.151405573668172,25.55070199468173,10.0,3.6526307026307023,8.0,39.34265669038183,10.0
subject-04,1,926,1.13023996353149,truck,truck,True,true_truck_35_n03417042_10694.png,True,1.5184649680322784,0.0014368484262377,1.0,-0.00011820299628851918,1.8884146213531496,0.1428571428571428,-4.151405573668172,25.55070199468173,10.0,3.6526307026307023,8.0,39.34265669038183,10.0
subject-01,1,5,1.07885599136353,bird,bird,True,true_bird_35_n01614925_1962.png,True,1.1489481847943295,0.3140425384044647,1.0,-0.056168345046791086,1.9891031980514529,0.1666666666666666,-3.717528321281766,26.07185384631157,10.0,3.0734126984126977,9.0,33.3509433005771,10.0
subject-02,1,919,0.8088698387146,bird,bird,True,true_bird_35_n01614925_1962.png,True,-0.025618250563336834,0.3140425384044647,1.0,-0.056168345046791086,1.9891031980514529,0.1666666666666666,-3.717528321281766,26.07185384631157,10.0,3.0734126984126977,9.0,33.3509433005771,10.0
subject-03,1,816,1.20075488090515,bird,bird,True,true_bird_35_n01614925_1962.png,True,1.7282395515138533,0.3140425384044647,1.0,-0.056168345046791086,1.9891031980514529,0.1666666666666666,-3.717528321281766,26.07185384631157,10.0,3.0734126984126977,9.0,33.3509433005771,10.0
subject-04,1,366,0.919857978820801,bird,bird,True,true_bird_35_n01614925_1962.png,True,0.5243190730877187,0.3140425384044647,1.0,-0.056168345046791086,1.9891031980514529,0.1666666666666666,-3.717528321281766,26.07185384631157,10.0,3.0734126984126977,9.0,33.3509433005771,10.0
subject-01,1,6,1.35673904418945,clock,knife,False,false_knife_35_n03041632_99875.png,False,2.738533871488076,2.068380117416382,1.0,-1.305800777194014,1.6782995462417605,0.1111111111111111,-4.499397173930115,27.92880082130432,10.0,1.83023088023088,10.0,39.4311045124791,10.0
subject-02,1,272,0.898825883865356,bottle,knife,False,false_knife_35_n03041632_99875.png,False,0.4413422786812254,2.068380117416382,1.0,-1.305800777194014,1.6782995462417605,0.1111111111111111,-4.499397173930115,27.92880082130432,10.0,1.83023088023088,10.0,39.4311045124791,10.0
subject-03,1,814,1.45499300956726,bottle,knife,False,false_knife_35_n03041632_99875.png,False,2.8465523762591647,2.068380117416382,1.0,-1.305800777194014,1.6782995462417605,0.1111111111111111,-4.499397173930115,27.92880082130432,10.0,1.83023088023088,10.0,39.4311045124791,10.0
subject-04,1,819,1.2744472026825,chair,knife,False,false_knife_35_n03041632_99875.png,False,2.1999065611440347,2.068380117416382,1.0,-1.305800777194014,1.6782995462417605,0.1111111111111111,-4.499397173930115,27.92880082130432,10.0,1.83023088023088,10.0,39.4311045124791,10.0
subject-01,1,7,1.18241000175476,bicycle,bicycle,True,true_bicycle_35_n03792782_14935.png,True,1.7413123863663968,0.0030448455363512,1.0,-0.00026289103628012,1.9637293815612793,0.2,-3.124645382055638,25.669736864045262,10.0,3.841666666666667,9.0,27.585630625894087,9.0
subject-02,1,534,0.708375930786133,bicycle,bicycle,True,true_bicycle_35_n03792782_14935.png,True,-0.5472806730663221,0.0030448455363512,1.0,-0.00026289103628012,1.9637293815612793,0.2,-3.124645382055638,25.669736864045262,10.0,3.841666666666667,9.0,27.585630625894087,9.0
subject-03,1,129,0.888317108154297,bicycle,bicycle,True,true_bicycle_35_n03792782_14935.png,True,0.3539249668336488,0.0030448455363512,1.0,-0.00026289103628012,1.9637293815612793,0.2,-3.124645382055638,25.669736864045262,10.0,3.841666666666667,9.0,27.585630625894087,9.0
subject-04,1,588,0.447906017303467,bicycle,bicycle,True,true_bicycle_35_n03792782_14935.png,True,-1.7058581248254263,0.0030448455363512,1.0,-0.00026289103628012,1.9637293815612793,0.2,-3.124645382055638,25.669736864045262,10.0,3.841666666666667,9.0,27.585630625894087,9.0
subject-01,1,8,0.976280927658081,elephant,elephant,False,false_elephant_35_n02504013_5027.png,True,0.5621838916151232,0.0032557216472923,1.0,-0.00028805112629733327,1.9839582443237305,0.1428571428571428,-3.6983620567670967,26.442262527067214,10.0,5.143290043290043,6.0,31.699251111822058,10.0
subject-02,1,16,0.814748048782349,elephant,elephant,False,false_elephant_35_n02504013_5027.png,True,0.004895452875343956,0.0032557216472923,1.0,-0.00028805112629733327,1.9839582443237305,0.1428571428571428,-3.6983620567670967,26.442262527067214,10.0,5.143290043290043,6.0,31.699251111822058,10.0
subject-03,1,317,1.27742218971252,elephant,elephant,False,false_elephant_35_n02504013_5027.png,True,2.0654747063239305,0.0032557216472923,1.0,-0.00028805112629733327,1.9839582443237305,0.1428571428571428,-3.6983620567670967,26.442262527067214,10.0,5.143290043290043,6.0,31.699251111822058,10.0
subject-04,1,631,0.707864999771118,elephant,elephant,False,false_elephant_35_n02504013_5027.png,True,-0.4774394670702239,0.0032557216472923,1.0,-0.00028805112629733327,1.9839582443237305,0.1428571428571428,-3.6983620567670967,26.442262527067214,10.0,5.143290043290043,6.0,31.699251111822058,10.0
subject-01,1,9,1.33407497406006,dog,dog,False,false_dog_35_n02090721_129.png,True,2.608887672795741,2.186616897583008,0.25,-2.016318052017576,1.8965193033218384,0.0714285714285714,-4.9016612934353265,28.062551140785217,10.0,0.8511904761904762,8.0,40.817067673440455,6.0
subject-02,1,778,1.21155595779419,bear,dog,False,false_dog_35_n02090721_129.png,False,2.0647195690875075,2.186616897583008,0.25,-2.016318052017576,1.8965193033218384,0.0714285714285714,-4.9016612934353265,28.062551140785217,10.0,0.8511904761904762,8.0,40.817067673440455,6.0
subject-03,1,886,0.927783966064453,dog,dog,False,false_dog_35_n02090721_129.png,True,0.5275271467489473,2.186616897583008,0.25,-2.016318052017576,1.8965193033218384,0.0714285714285714,-4.9016612934353265,28.062551140785217,10.0,0.8511904761904762,8.0,40.817067673440455,6.0
subject-04,1,539,0.787509918212891,dog,dog,False,false_dog_35_n02090721_129.png,True,-0.10108277079241787,2.186616897583008,0.25,-2.016318052017576,1.8965193033218384,0.0714285714285714,-4.9016612934353265,28.062551140785217,10.0,0.8511904761904762,8.0,40.817067673440455,6.0
subject-01,1,10,1.02587699890137,airplane,airplane,True,true_airplane_35_n02690373_9241.png,True,0.8458903075438526,0.0003288735460955,1.0,-2.509387029896915e-05,1.8444716930389404,1.0,-1.1481283536160818,23.567176615149947,9.0,9.083333333333332,0.0,15.845278695926005,9.0
subject-02,1,925,0.880067825317383,airplane,airplane,True,true_airplane_35_n02690373_9241.png,True,0.34396946807708634,0.0003288735460955,1.0,-2.509387029896915e-05,1.8444716930389404,1.0,-1.1481283536160818,23.567176615149947,9.0,9.083333333333332,0.0,15.845278695926005,9.0
subject-03,1,4,0.766710996627808,airplane,airplane,True,true_airplane_35_n02690373_9241.png,True,-0.18098171613765693,0.0003288735460955,1.0,-2.509387029896915e-05,1.8444716930389404,1.0,-1.1481283536160818,23.567176615149947,9.0,9.083333333333332,0.0,15.845278695926005,9.0
subject-04,1,503,0.874455213546753,airplane,airplane,True,true_airplane_35_n02690373_9241.png,True,0.3097713646496734,0.0003288735460955,1.0,-2.509387029896915e-05,1.8444716930389404,1.0,-1.1481283536160818,23.567176615149947,9.0,9.083333333333332,0.0,15.845278695926005,9.0
subject-01,1,11,0.957607984542847,truck,truck,True,true_truck_35_n04467665_62080.png,True,0.4553682984993493,0.0171818137168884,1.0,-0.0021481324017703527,1.857823371887207,0.1,-4.240900787908743,24.02908343076706,9.0,3.2697552447552445,8.0,37.77689662176336,9.0
subject-02,1,497,0.799542903900146,car,truck,True,true_truck_35_n04467665_62080.png,False,-0.07403423427947266,0.0171818137168884,1.0,-0.0021481324017703527,1.857823371887207,0.1,-4.240900787908743,24.02908343076706,9.0,3.2697552447552445,8.0,37.77689662176336,9.0
subject-03,1,807,0.730598926544189,truck,truck,True,true_truck_35_n04467665_62080.png,True,-0.3398272493199943,0.0171818137168884,1.0,-0.0021481324017703527,1.857823371887207,0.1,-4.240900787908743,24.02908343076706,9.0,3.2697552447552445,8.0,37.77689662176336,9.0
subject-04,1,951,0.755440950393677,truck,truck,True,true_truck_35_n04467665_62080.png,True,-0.2526225176791244,0.0171818137168884,1.0,-0.0021481324017703527,1.857823371887207,0.1,-4.240900787908743,24.02908343076706,9.0,3.2697552447552445,8.0,37.77689662176336,9.0
subject-01,1,12,,na,keyboard,True,true_keyboard_35_n04505470_2669.png,False,,0.0005288083921186,1.0,-3.9697481354996745e-05,1.964933156967163,0.0909090909090909,-4.34587731474895,25.67122482851846,10.0,2.356360306360306,9.0,37.80837407902024,9.0
subject-02,1,443,0.786462068557739,keyboard,keyboard,True,true_keyboard_35_n04505470_2669.png,True,-0.14193666133942903,0.0005288083921186,1.0,-3.9697481354996745e-05,1.964933156967163,0.0909090909090909,-4.34587731474895,25.67122482851846,10.0,2.356360306360306,9.0,37.80837407902024,9.0
subject-03,1,100,0.919925928115845,keyboard,keyboard,True,true_keyboard_35_n04505470_2669.png,True,0.49296213220330093,0.0005288083921186,1.0,-3.9697481354996745e-05,1.964933156967163,0.0909090909090909,-4.34587731474895,25.67122482851846,10.0,2.356360306360306,9.0,37.80837407902024,9.0
subject-04,1,382,0.662966966629028,keyboard,keyboard,True,true_keyboard_35_n04505470_2669.png,True,-0.6896020978233971,0.0005288083921186,1.0,-3.9697481354996745e-05,1.964933156967163,0.0909090909090909,-4.34587731474895,25.67122482851846,10.0,2.356360306360306,9.0,37.80837407902024,9.0
subject-01,1,13,1.09343695640564,bear,oven,False,false_oven_35_n04111531_688.png,False,1.2323562699345185,0.4061999917030334,1.0,-0.08447567515174167,1.9878489971160889,0.0625,-6.652763931879301,26.889778435230255,10.0,1.6310897435897436,10.0,53.65280712984503,6.0
subject-02,1,579,0.722280025482178,oven,oven,False,false_oven_35_n04111531_688.png,True,-0.47510471860933484,0.4061999917030334,1.0,-0.08447567515174167,1.9878489971160889,0.0625,-6.652763931879301,26.889778435230255,10.0,1.6310897435897436,10.0,53.65280712984503,6.0
subject-03,1,361,,na,oven,False,false_oven_35_n04111531_688.png,False,,0.4061999917030334,1.0,-0.08447567515174167,1.9878489971160889,0.0625,-6.652763931879301,26.889778435230255,10.0,1.6310897435897436,10.0,53.65280712984503,6.0
subject-04,1,290,0.846472978591919,oven,oven,False,false_oven_35_n04111531_688.png,True,0.17754319858318462,0.4061999917030334,1.0,-0.08447567515174167,1.9878489971160889,0.0625,-6.652763931879301,26.889778435230255,10.0,1.6310897435897436,10.0,53.65280712984503,6.0
subject-01,1,14,0.905143022537231,car,car,True,true_car_35_n03100240_21982.png,True,0.15525085049757098,0.1194352209568023,1.0,-0.02550700796734669,1.924657940864563,0.125,-4.119870815617491,25.76322963833809,10.0,4.250274725274725,7.0,38.14491876930293,6.0
subject-02,1,720,0.745283842086792,car,car,True,true_car_35_n03100240_21982.png,True,-0.3556922393442307,0.1194352209568023,1.0,-0.02550700796734669,1.924657940864563,0.125,-4.119870815617491,25.76322963833809,10.0,4.250274725274725,7.0,38.14491876930293,6.0
subject-03,1,446,0.656458139419556,car,car,True,true_car_35_n03100240_21982.png,True,-0.6659490372457638,0.1194352209568023,1.0,-0.02550700796734669,1.924657940864563,0.125,-4.119870815617491,25.76322963833809,10.0,4.250274725274725,7.0,38.14491876930293,6.0
subject-04,1,514,0.572278022766113,car,car,True,true_car_35_n03100240_21982.png,True,-1.1181465921733162,0.1194352209568023,1.0,-0.02550700796734669,1.924657940864563,0.125,-4.119870815617491,25.76322963833809,10.0,4.250274725274725,7.0,38.14491876930293,6.0
subject-01,1,15,1.00899195671082,bicycle,bicycle,True,true_bicycle_35_n02835271_4191.png,True,0.7493021165319583,0.000419756717747,1.0,-3.09948956200177e-05,2.0726330280303955,0.2,-2.5219051762923983,24.97722067529685,9.0,4.616666666666667,7.0,24.522561387887652,9.0
subject-02,1,77,0.647292137145996,bicycle,bicycle,True,true_bicycle_35_n02835271_4191.png,True,-0.8643657623303238,0.000419756717747,1.0,-3.09948956200177e-05,2.0726330280303955,0.2,-2.5219051762923983,24.97722067529685,9.0,4.616666666666667,7.0,24.522561387887652,9.0
subject-03,1,89,0.577720880508423,bicycle,bicycle,True,true_bicycle_35_n02835271_4191.png,True,-1.0122892454945314,0.000419756717747,1.0,-3.09948956200177e-05,2.0726330280303955,0.2,-2.5219051762923983,24.97722067529685,9.0,4.616666666666667,7.0,24.522561387887652,9.0
subject-04,1,380,0.531194925308228,bicycle,bicycle,True,true_bicycle_35_n02835271_4191.png,True,-1.3122820013697316,0.000419756717747,1.0,-3.09948956200177e-05,2.0726330280303955,0.2,-2.5219051762923983,24.97722067529685,9.0,4.616666666666667,7.0,24.522561387887652,9.0
subject-01,1,16,0.904927968978882,car,car,True,true_car_35_n02814533_25278.png,True,0.15402067091393742,0.0481399297714233,1.0,-0.007850266214928228,1.9262253046035769,0.0833333333333333,-4.553225349461357,25.818440675735474,10.0,3.527294927294927,8.0,40.59045383345602,6.0
subject-02,1,1046,0.845810890197754,car,car,True,true_car_35_n02814533_25278.png,True,0.16614221336674329,0.0481399297714233,1.0,-0.007850266214928228,1.9262253046035769,0.0833333333333333,-4.553225349461357,25.818440675735474,10.0,3.527294927294927,8.0,40.59045383345602,6.0
subject-03,1,725,0.554455041885376,car,car,True,true_car_35_n02814533_25278.png,True,-1.1146282842827988,0.0481399297714233,1.0,-0.007850266214928228,1.9262253046035769,0.0833333333333333,-4.553225349461357,25.818440675735474,10.0,3.527294927294927,8.0,40.59045383345602,6.0
subject-04,1,289,0.882655143737793,car,car,True,true_car_35_n02814533_25278.png,True,0.34851958232365626,0.0481399297714233,1.0,-0.007850266214928228,1.9262253046035769,0.0833333333333333,-4.553225349461357,25.818440675735474,10.0,3.527294927294927,8.0,40.59045383345602,6.0
subject-01,1,17,0.862505912780762,knife,knife,False,false_knife_35_n03041632_23087.png,True,-0.08864793606618267,0.461069643497467,1.0,-0.087036064454508,1.8093695640563965,0.1111111111111111,-4.199687901955634,26.677477657794952,10.0,1.6254079254079254,10.0,38.71282298296528,10.0
subject-02,1,1100,0.871980905532837,dog,knife,False,false_knife_35_n03041632_23087.png,False,0.3019903844455046,0.461069643497467,1.0,-0.087036064454508,1.8093695640563965,0.1111111111111111,-4.199687901955634,26.677477657794952,10.0,1.6254079254079254,10.0,38.71282298296528,10.0
subject-03,1,682,0.815958023071289,knife,knife,False,false_knife_35_n03041632_23087.png,True,0.03564032062029411,0.461069643497467,1.0,-0.087036064454508,1.8093695640563965,0.1111111111111111,-4.199687901955634,26.677477657794952,10.0,1.6254079254079254,10.0,38.71282298296528,10.0
subject-04,1,725,0.639856815338135,knife,knife,False,false_knife_35_n03041632_23087.png,True,-0.7988075607768118,0.461069643497467,1.0,-0.087036064454508,1.8093695640563965,0.1111111111111111,-4.199687901955634,26.677477657794952,10.0,1.6254079254079254,10.0,38.71282298296528,10.0
subject-01,1,18,0.832413911819458,clock,clock,True,true_clock_35_n03196217_11252.png,True,-0.2607844284705212,0.0007597899530082,1.0,-6.574608441358837e-05,1.824510097503662,1.0,-1.0219177257303964,24.899365136632696,10.0,8.833333333333334,4.0,16.806373829294085,10.0
subject-02,1,74,0.765646934509277,clock,clock,True,true_clock_35_n03196217_11252.png,True,-0.2499877211128661,0.0007597899530082,1.0,-6.574608441358837e-05,1.824510097503662,1.0,-1.0219177257303964,24.899365136632696,10.0,8.833333333333334,4.0,16.806373829294085,10.0
subject-03,1,960,0.60991907119751,clock,clock,True,true_clock_35_n03196217_11252.png,True,-0.870659625379382,0.0007597899530082,1.0,-6.574608441358837e-05,1.824510097503662,1.0,-1.0219177257303964,24.899365136632696,10.0,8.833333333333334,4.0,16.806373829294085,10.0
subject-04,1,1025,0.453037023544312,clock,clock,True,true_clock_35_n03196217_11252.png,True,-1.681611900519264,0.0007597899530082,1.0,-6.574608441358837e-05,1.824510097503662,1.0,-1.0219177257303964,24.899365136632696,10.0,8.833333333333334,4.0,16.806373829294085,10.0
subject-01,1,19,0.736093997955322,boat,boat,False,false_boat_35_n04273569_2040.png,True,-0.8117671345584674,0.0287458281964063,1.0,-0.003687137541191446,1.985154151916504,0.25,-2.0354787707593696,25.585155425593257,10.0,3.226190476190476,10.0,24.30189501922318,10.0
subject-02,1,472,0.592947959899902,boat,boat,False,false_boat_35_n04273569_2040.png,True,-1.1464656003753169,0.0287458281964063,1.0,-0.003687137541191446,1.985154151916504,0.25,-2.0354787707593696,25.585155425593257,10.0,3.226190476190476,10.0,24.30189501922318,10.0
subject-03,1,727,0.558317184448242,boat,boat,False,false_boat_35_n04273569_2040.png,True,-1.0976399451151992,0.0287458281964063,1.0,-0.003687137541191446,1.985154151916504,0.25,-2.0354787707593696,25.585155425593257,10.0,3.226190476190476,10.0,24.30189501922318,10.0
subject-04,1,125,0.663673162460327,boat,boat,False,false_boat_35_n04273569_2040.png,True,-0.6862650170002537,0.0287458281964063,1.0,-0.003687137541191446,1.985154151916504,0.25,-2.0354787707593696,25.585155425593257,10.0,3.226190476190476,10.0,24.30189501922318,10.0
subject-01,1,20,0.896195888519287,knife,knife,True,true_knife_35_n03041632_84869.png,True,0.10407019724354176,2.3358285034191795e-05,1.0,-1.490117229608893e-06,1.8712608814239504,0.1428571428571428,-3.8295908386932394,25.817931645333374,10.0,4.578210678210678,7.0,32.805461739937854,10.0
subject-02,1,200,0.688256025314331,knife,knife,True,true_knife_35_n03041632_84869.png,True,-0.6517228113541708,2.3358285034191795e-05,1.0,-1.490117229608893e-06,1.8712608814239504,0.1428571428571428,-3.8295908386932394,25.817931645333374,10.0,4.578210678210678,7.0,32.805461739937854,10.0
subject-03,1,843,0.727568864822388,knife,knife,True,true_knife_35_n03041632_84869.png,True,-0.3531555289965781,2.3358285034191795e-05,1.0,-1.490117229608893e-06,1.8712608814239504,0.1428571428571428,-3.8295908386932394,25.817931645333374,10.0,4.578210678210678,7.0,32.805461739937854,10.0
subject-04,1,213,0.792980194091797,knife,knife,True,true_knife_35_n03041632_84869.png,True,-0.07523335066879276,2.3358285034191795e-05,1.0,-1.490117229608893e-06,1.8712608814239504,0.1428571428571428,-3.8295908386932394,25.817931645333374,10.0,4.578210678210678,7.0,32.805461739937854,10.0
subject-01,1,21,0.767853975296021,clock,clock,True,true_clock_35_n04548280_503.png,True,-0.63008924928592,6.710501475026831e-05,1.0,-4.2915436324883266e-06,1.6987066268920898,1.0,-0.7014598862546789,24.17641900988383,10.0,9.333333333333334,4.0,15.668500724424142,9.0
subject-02,1,493,0.614187955856323,clock,clock,True,true_clock_35_n04548280_503.png,True,-1.036209088582909,6.710501475026831e-05,1.0,-4.2915436324883266e-06,1.6987066268920898,1.0,-0.7014598862546789,24.17641900988383,10.0,9.333333333333334,4.0,15.668500724424142,9.0
subject-03,1,205,0.52123498916626,clock,clock,True,true_clock_35_n04548280_503.png,True,-1.2607527510966525,6.710501475026831e-05,1.0,-4.2915436324883266e-06,1.6987066268920898,1.0,-0.7014598862546789,24.17641900988383,10.0,9.333333333333334,4.0,15.668500724424142,9.0
subject-04,1,996,0.796455144882202,clock,clock,True,true_clock_35_n04548280_503.png,True,-0.05881270482230449,6.710501475026831e-05,1.0,-4.2915436324883266e-06,1.6987066268920898,1.0,-0.7014598862546789,24.17641900988383,10.0,9.333333333333334,4.0,15.668500724424142,9.0
subject-01,1,22,0.895647048950195,truck,truck,False,false_truck_35_n03417042_10654.png,True,0.1009306480178955,0.0206416547298431,1.0,-0.0024552062443895977,1.879542350769043,0.0769230769230769,-4.626702324910793,25.869416803121567,10.0,2.302197802197802,10.0,40.11667874073817,10.0
subject-02,1,359,0.90239405632019,truck,truck,False,false_truck_35_n03417042_10654.png,True,0.45986461028387415,0.0206416547298431,1.0,-0.0024552062443895977,1.879542350769043,0.0769230769230769,-4.626702324910793,25.869416803121567,10.0,2.302197802197802,10.0,40.11667874073817,10.0
subject-03,1,932,0.776935815811157,truck,truck,False,false_truck_35_n03417042_10654.png,True,-0.13600598223175653,0.0206416547298431,1.0,-0.0024552062443895977,1.879542350769043,0.0769230769230769,-4.626702324910793,25.869416803121567,10.0,2.302197802197802,10.0,40.11667874073817,10.0
subject-04,1,1053,0.652137994766235,truck,truck,False,false_truck_35_n03417042_10654.png,True,-0.7407736747940692,0.0206416547298431,1.0,-0.0024552062443895977,1.879542350769043,0.0769230769230769,-4.626702324910793,25.869416803121567,10.0,2.302197802197802,10.0,40.11667874073817,10.0
subject-01,1,23,0.861499071121216,boat,boat,True,true_boat_35_n03344393_2919.png,True,-0.09440741320775532,0.0017120101256296,1.0,-0.00015146687290202966,1.9957597255706787,0.25,-1.9772638119846224,26.00900976441335,10.0,4.4,9.0,22.763873665962596,10.0
subject-02,1,231,0.576433181762695,boat,boat,True,true_boat_35_n03344393_2919.png,True,-1.2321935748141968,0.0017120101256296,1.0,-0.00015146687290202966,1.9957597255706787,0.25,-1.9772638119846224,26.00900976441335,10.0,4.4,9.0,22.763873665962596,10.0
subject-03,1,699,0.734939098358154,truck,boat,True,true_boat_35_n03344393_2919.png,False,-0.3207362112184442,0.0017120101256296,1.0,-0.00015146687290202966,1.9957597255706787,0.25,-1.9772638119846224,26.00900976441335,10.0,4.4,9.0,22.763873665962596,10.0
subject-04,1,1002,0.93140721321106,boat,boat,True,true_boat_35_n03344393_2919.png,True,0.5788942021065733,0.0017120101256296,1.0,-0.00015146687290202966,1.9957597255706787,0.25,-1.9772638119846224,26.00900976441335,10.0,4.4,9.0,22.763873665962596,10.0
subject-01,1,24,0.859068870544434,chair,chair,False,false_chair_35_n04099969_7718.png,True,-0.10830898803703269,0.0028998954221606,1.0,-0.0002603869861278262,1.691930055618286,0.0714285714285714,-5.067297006766765,25.587159643881023,10.0,2.0071428571428567,9.0,44.984155667621344,10.0
subject-02,1,52,0.666053056716919,chair,chair,False,false_chair_35_n04099969_7718.png,True,-0.7669781001974335,0.0028998954221606,1.0,-0.0002603869861278262,1.691930055618286,0.0714285714285714,-5.067297006766765,25.587159643881023,10.0,2.0071428571428567,9.0,44.984155667621344,10.0
subject-03,1,49,0.778352975845337,chair,chair,False,false_chair_35_n04099969_7718.png,True,-0.1297723450929059,0.0028998954221606,1.0,-0.0002603869861278262,1.691930055618286,0.0714285714285714,-5.067297006766765,25.587159643881023,10.0,2.0071428571428567,9.0,44.984155667621344,10.0
subject-04,1,121,0.656651973724365,chair,chair,False,false_chair_35_n04099969_7718.png,True,-0.7194431713421591,0.0028998954221606,1.0,-0.0002603869861278262,1.691930055618286,0.0714285714285714,-5.067297006766765,25.587159643881023,10.0,2.0071428571428567,9.0,44.984155667621344,10.0
subject-01,1,25,0.817170858383179,oven,oven,True,true_oven_35_n04111531_3477.png,True,-0.3479798846792017,0.448816180229187,1.0,-0.14564528993553738,1.7377798557281494,0.0625,-6.661696357237652,25.891748666763306,10.0,1.9277777777777776,9.0,56.504419498162,10.0
subject-02,1,984,0.635692834854126,oven,oven,True,true_oven_35_n04111531_3477.png,True,-0.9245775727539812,0.448816180229187,1.0,-0.14564528993553738,1.7377798557281494,0.0625,-6.661696357237652,25.891748666763306,10.0,1.9277777777777776,9.0,56.504419498162,10.0
subject-03,1,652,0.573528051376343,oven,oven,True,true_oven_35_n04111531_3477.png,True,-1.030732169909706,0.448816180229187,1.0,-0.14564528993553738,1.7377798557281494,0.0625,-6.661696357237652,25.891748666763306,10.0,1.9277777777777776,9.0,56.504419498162,10.0
subject-04,1,387,0.879878997802734,oven,oven,True,true_oven_35_n04111531_3477.png,True,0.33540109174138905,0.448816180229187,1.0,-0.14564528993553738,1.7377798557281494,0.0625,-6.661696357237652,25.891748666763306,10.0,1.9277777777777776,9.0,56.504419498162,10.0
subject-01,1,26,1.21084594726562,dog,dog,False,false_dog_35_n02113712_913.png,True,1.90397567767543,0.020804263651371,1.0,-0.0024400893135851486,1.9152566194534304,0.0833333333333333,-4.591868788878846,25.92859873920679,10.0,3.2055555555555557,8.0,35.21495122741625,10.0
subject-02,1,244,0.708451986312866,dog,dog,False,false_dog_35_n02113712_913.png,True,-0.5468858699271258,0.020804263651371,1.0,-0.0024400893135851486,1.9152566194534304,0.0833333333333333,-4.591868788878846,25.92859873920679,10.0,3.2055555555555557,8.0,35.21495122741625,10.0
subject-03,1,427,1.00182604789734,dog,dog,False,false_dog_35_n02113712_913.png,True,0.8532147614285137,0.020804263651371,1.0,-0.0024400893135851486,1.9152566194534304,0.0833333333333333,-4.591868788878846,25.92859873920679,10.0,3.2055555555555557,8.0,35.21495122741625,10.0
subject-04,1,852,0.740482091903687,dog,dog,False,false_dog_35_n02113712_913.png,True,-0.32330959566886147,0.020804263651371,1.0,-0.0024400893135851486,1.9152566194534304,0.0833333333333333,-4.591868788878846,25.92859873920679,10.0,3.2055555555555557,8.0,35.21495122741625,10.0
subject-01,1,27,1.50014901161194,oven,chair,False,false_chair_35_n02791124_13701.png,False,3.5588877189996544,2.031921148300171,0.25,-2.2467219003353907,1.7589735984802246,0.0666666666666666,-5.418500690232549,27.569865465164185,10.0,0.49047619047618995,9.0,49.36166113520843,7.0
subject-02,1,252,0.82266902923584,oven,chair,False,false_chair_35_n02791124_13701.png,False,0.04601314783958174,2.031921148300171,0.25,-2.2467219003353907,1.7589735984802246,0.0666666666666666,-5.418500690232549,27.569865465164185,10.0,0.49047619047618995,9.0,49.36166113520843,7.0
subject-03,1,390,0.642922878265381,oven,chair,False,false_chair_35_n02791124_13701.png,False,-0.7254863545421322,2.031921148300171,0.25,-2.2467219003353907,1.7589735984802246,0.0666666666666666,-5.418500690232549,27.569865465164185,10.0,0.49047619047618995,9.0,49.36166113520843,7.0
subject-04,1,967,0.731982946395874,chair,chair,False,false_chair_35_n02791124_13701.png,True,-0.363471735163591,2.031921148300171,0.25,-2.2467219003353907,1.7589735984802246,0.0666666666666666,-5.418500690232549,27.569865465164185,10.0,0.49047619047618995,9.0,49.36166113520843,7.0
subject-01,1,28,0.970507144927979,airplane,airplane,True,true_airplane_35_n02690373_8538.png,True,0.5291558883147588,0.0001002258359221,1.0,-6.854557641596476e-06,1.980600357055664,0.5,-1.3934241143330035,25.27200493279088,10.0,9.083333333333332,0.0,17.611250067705956,9.0
subject-02,1,428,0.667057991027832,airplane,airplane,True,true_airplane_35_n02690373_8538.png,True,-0.7617615007249515,0.0001002258359221,1.0,-6.854557641596476e-06,1.980600357055664,0.5,-1.3934241143330035,25.27200493279088,10.0,9.083333333333332,0.0,17.611250067705956,9.0
subject-03,1,1097,0.676883935928345,airplane,airplane,True,true_airplane_35_n02690373_8538.png,True,-0.5761024421987442,0.0001002258359221,1.0,-6.854557641596476e-06,1.980600357055664,0.5,-1.3934241143330035,25.27200493279088,10.0,9.083333333333332,0.0,17.611250067705956,9.0
subject-04,1,42,0.902244091033936,airplane,airplane,True,true_airplane_35_n02690373_8538.png,True,0.44108583302961074,0.0001002258359221,1.0,-6.854557641596476e-06,1.980600357055664,0.5,-1.3934241143330035,25.27200493279088,10.0,9.083333333333332,0.0,17.611250067705956,9.0
subject-01,1,29,1.03416514396667,chair,knife,True,true_knife_35_n03041632_98864.png,False,0.8933013195903317,1.7204313278198242,0.25,-2.532030250907878,1.9080383777618408,0.1428571428571428,-4.030364092981999,27.692796230316162,10.0,1.164033189033189,7.0,41.46923888024957,6.0
subject-02,1,87,1.47241520881653,chair,knife,True,true_knife_35_n03041632_98864.png,False,3.418836168050823,1.7204313278198242,0.25,-2.532030250907878,1.9080383777618408,0.1428571428571428,-4.030364092981999,27.692796230316162,10.0,1.164033189033189,7.0,41.46923888024957,6.0
subject-03,1,57,1.23688793182373,chair,knife,True,true_knife_35_n03041632_98864.png,False,1.8871773727292025,1.7204313278198242,0.25,-2.532030250907878,1.9080383777618408,0.1428571428571428,-4.030364092981999,27.692796230316162,10.0,1.164033189033189,7.0,41.46923888024957,6.0
subject-04,1,203,0.858855962753296,chair,knife,True,true_knife_35_n03041632_98864.png,False,0.23605815597426322,1.7204313278198242,0.25,-2.532030250907878,1.9080383777618408,0.1428571428571428,-4.030364092981999,27.692796230316162,10.0,1.164033189033189,7.0,41.46923888024957,6.0
subject-01,1,30,1.028235912323,clock,clock,False,false_clock_35_n04548280_5466.png,True,0.8593840955710116,0.0004674947122111,1.0,-3.46308982570259e-05,1.612291932106018,1.0,-0.6766125005254123,24.617186144576408,10.0,9.5,2.0,16.510184449528417,10.0
subject-02,1,973,1.0375509262085,clock,clock,False,false_clock_35_n04548280_5466.png,True,1.161461966951942,0.0004674947122111,1.0,-3.46308982570259e-05,1.612291932106018,1.0,-0.6766125005254123,24.617186144576408,10.0,9.5,2.0,16.510184449528417,10.0
subject-03,1,1046,0.60844087600708,clock,clock,False,false_clock_35_n04548280_5466.png,True,-0.8771617367960836,0.0004674947122111,1.0,-3.46308982570259e-05,1.612291932106018,1.0,-0.6766125005254123,24.617186144576408,10.0,9.5,2.0,16.510184449528417,10.0
subject-04,1,507,0.631539106369019,clock,clock,False,false_clock_35_n04548280_5466.png,True,-0.8381123341316288,0.0004674947122111,1.0,-3.46308982570259e-05,1.612291932106018,1.0,-0.6766125005254123,24.617186144576408,10.0,9.5,2.0,16.510184449528417,10.0
subject-01,1,31,0.818020105361938,keyboard,keyboard,True,true_keyboard_35_n04505470_4033.png,True,-0.3431219027757538,0.0001835307048168,1.0,-1.2993896981348888e-05,1.8074954748153689,0.1111111111111111,-4.148049469038881,23.915867157833418,9.0,3.663492063492063,8.0,34.19669403164231,9.0
subject-02,1,4,0.587040901184082,keyboard,keyboard,True,true_keyboard_35_n04505470_4033.png,True,-1.177129056728865,0.0001835307048168,1.0,-1.2993896981348888e-05,1.8074954748153689,0.1111111111111111,-4.148049469038881,23.915867157833418,9.0,3.663492063492063,8.0,34.19669403164231,9.0
subject-03,1,534,0.636051893234253,keyboard,keyboard,True,true_keyboard_35_n04505470_4033.png,True,-0.7557096366256609,0.0001835307048168,1.0,-1.2993896981348888e-05,1.8074954748153689,0.1111111111111111,-4.148049469038881,23.915867157833418,9.0,3.663492063492063,8.0,34.19669403164231,9.0
subject-04,1,788,0.653668165206909,keyboard,keyboard,True,true_keyboard_35_n04505470_4033.png,True,-0.7335429574669491,0.0001835307048168,1.0,-1.2993896981348888e-05,1.8074954748153689,0.1111111111111111,-4.148049469038881,23.915867157833418,9.0,3.663492063492063,8.0,34.19669403164231,9.0
subject-01,1,32,1.3261079788208,oven,boat,False,false_boat_35_n03344393_7503.png,False,2.5633137471119087,0.0009136518929153,1.0,-7.736982188582638e-05,1.8216813802719116,0.25,-2.2045979215163514,25.551263245055452,10.0,4.583333333333334,9.0,23.04908114762162,10.0
subject-02,1,629,0.690510034561157,boat,boat,False,false_boat_35_n03344393_7503.png,True,-0.6400222819561069,0.0009136518929153,1.0,-7.736982188582638e-05,1.8216813802719116,0.25,-2.2045979215163514,25.551263245055452,10.0,4.583333333333334,9.0,23.04908114762162,10.0
subject-03,1,440,1.2956428527832,boat,boat,False,false_boat_35_n03344393_7503.png,True,2.145621619355947,0.0009136518929153,1.0,-7.736982188582638e-05,1.8216813802719116,0.25,-2.2045979215163514,25.551263245055452,10.0,4.583333333333334,9.0,23.04908114762162,10.0
subject-04,1,748,1.22737383842468,boat,boat,False,false_boat_35_n03344393_7503.png,True,1.977464549759378,0.0009136518929153,1.0,-7.736982188582638e-05,1.8216813802719116,0.25,-2.2045979215163514,25.551263245055452,10.0,4.583333333333334,9.0,23.04908114762162,10.0
subject-01,1,33,1.11171197891235,bottle,bottle,False,false_bottle_35_n02823428_3402.png,True,1.336895621669906,0.0087999943643808,1.0,-0.0008738281411673675,1.6985735893249512,0.5,-1.1089746547459414,24.758223259821534,10.0,8.083333333333332,2.0,17.591758953351846,10.0
subject-02,1,1119,0.774087905883789,bottle,bottle,False,false_bottle_35_n02823428_3402.png,True,-0.20617076079880797,0.0087999943643808,1.0,-0.0008738281411673675,1.6985735893249512,0.5,-1.1089746547459414,24.758223259821534,10.0,8.083333333333332,2.0,17.591758953351846,10.0
subject-03,1,852,0.572049140930176,bottle,bottle,False,false_bottle_35_n02823428_3402.png,True,-1.0372374275093497,0.0087999943643808,1.0,-0.0008738281411673675,1.6985735893249512,0.5,-1.1089746547459414,24.758223259821534,10.0,8.083333333333332,2.0,17.591758953351846,10.0
subject-04,1,392,0.779235124588013,bottle,bottle,False,false_bottle_35_n02823428_3402.png,True,-0.14018475057932045,0.0087999943643808,1.0,-0.0008738281411673675,1.6985735893249512,0.5,-1.1089746547459414,24.758223259821534,10.0,8.083333333333332,2.0,17.591758953351846,10.0
subject-01,1,34,0.909416913986206,truck,boat,True,true_boat_35_n03662601_15766.png,False,0.17969896492803059,0.3181470930576324,1.0,-0.07505781506363536,1.897171974182129,0.25,-1.784673709096526,25.821676641702652,10.0,3.0670995670995667,10.0,23.552274922983873,10.0
subject-02,1,1058,0.677474975585938,airplane,boat,True,true_boat_35_n03662601_15766.png,False,-0.707687084556104,0.3181470930576324,1.0,-0.07505781506363536,1.897171974182129,0.25,-1.784673709096526,25.821676641702652,10.0,3.0670995670995667,10.0,23.552274922983873,10.0
subject-03,1,453,1.47110295295715,truck,boat,True,true_boat_35_n03662601_15766.png,False,2.9174149034247048,0.3181470930576324,1.0,-0.07505781506363536,1.897171974182129,0.25,-1.784673709096526,25.821676641702652,10.0,3.0670995670995667,10.0,23.552274922983873,10.0
subject-04,1,734,0.908051013946533,airplane,boat,True,true_boat_35_n03662601_15766.png,False,0.4685260560304374,0.3181470930576324,1.0,-0.07505781506363536,1.897171974182129,0.25,-1.784673709096526,25.821676641702652,10.0,3.0670995670995667,10.0,23.552274922983873,10.0
subject-01,1,35,0.899144887924194,dog,dog,True,true_dog_35_n02097047_1351.png,True,0.12093947803068338,0.0176975764334201,1.0,-0.0020899543264304185,2.0819363594055176,0.0909090909090909,-4.389707115015785,26.59687590971589,10.0,3.7921717171717173,8.0,32.86924802354195,10.0
subject-02,1,934,0.860260009765625,dog,dog,True,true_dog_35_n02097047_1351.png,True,0.24114738405008668,0.0176975764334201,1.0,-0.0020899543264304185,2.0819363594055176,0.0909090909090909,-4.389707115015785,26.59687590971589,10.0,3.7921717171717173,8.0,32.86924802354195,10.0
subject-03,1,118,1.11234307289124,dog,dog,True,true_dog_35_n02097047_1351.png,True,1.3393440727704593,0.0176975764334201,1.0,-0.0020899543264304185,2.0819363594055176,0.0909090909090909,-4.389707115015785,26.59687590971589,10.0,3.7921717171717173,8.0,32.86924802354195,10.0
subject-04,1,781,1.03907513618469,dog,dog,True,true_dog_35_n02097047_1351.png,True,1.0876717183403715,0.0176975764334201,1.0,-0.0020899543264304185,2.0819363594055176,0.0909090909090909,-4.389707115015785,26.59687590971589,10.0,3.7921717171717173,8.0,32.86924802354195,10.0
subject-01,1,36,0.802856922149658,keyboard,keyboard,True,true_keyboard_35_n03085013_23562.png,True,-0.4298604741058115,0.0196391269564628,1.0,-0.0021796120939518502,1.8887159824371336,0.125,-4.01566953766049,25.906314365565777,10.0,3.266208791208791,8.0,37.655937362800906,10.0
subject-02,1,1033,1.01834583282471,keyboard,keyboard,True,true_keyboard_35_n03085013_23562.png,True,1.061768604981031,0.0196391269564628,1.0,-0.0021796120939518502,1.8887159824371336,0.125,-4.01566953766049,25.906314365565777,10.0,3.266208791208791,8.0,37.655937362800906,10.0
subject-03,1,104,0.722982168197632,keyboard,keyboard,True,true_keyboard_35_n03085013_23562.png,True,-0.37333095148601053,0.0196391269564628,1.0,-0.0021796120939518502,1.8887159824371336,0.125,-4.01566953766049,25.906314365565777,10.0,3.266208791208791,8.0,37.655937362800906,10.0
subject-04,1,790,1.06333708763123,keyboard,keyboard,True,true_keyboard_35_n03085013_23562.png,True,1.202319935330486,0.0196391269564628,1.0,-0.0021796120939518502,1.8887159824371336,0.125,-4.01566953766049,25.906314365565777,10.0,3.266208791208791,8.0,37.655937362800906,10.0
subject-01,1,37,0.776731967926025,clock,clock,False,false_clock_35_n04548280_7872.png,True,-0.5793041083148813,0.3184449672698974,0.5,-3.816811640783083,1.8085346221923828,1.0,-0.9492853200984803,26.348761796951294,10.0,7.1,4.0,24.07729236478405,4.0
subject-02,1,22,0.593616008758545,clock,clock,False,false_clock_35_n04548280_7872.png,True,-1.1429977684128247,0.3184449672698974,0.5,-3.816811640783083,1.8085346221923828,1.0,-0.9492853200984803,26.348761796951294,10.0,7.1,4.0,24.07729236478405,4.0
subject-03,1,773,1.04941987991333,clock,clock,False,false_clock_35_n04548280_7872.png,True,1.0625649206762364,0.3184449672698974,0.5,-3.816811640783083,1.8085346221923828,1.0,-0.9492853200984803,26.348761796951294,10.0,7.1,4.0,24.07729236478405,4.0
subject-04,1,940,0.791722059249878,clock,clock,False,false_clock_35_n04548280_7872.png,True,-0.08117858210151484,0.3184449672698974,0.5,-3.816811640783083,1.8085346221923828,1.0,-0.9492853200984803,26.348761796951294,10.0,7.1,4.0,24.07729236478405,4.0
subject-01,1,38,0.976433038711548,dog,dog,False,false_dog_35_n02106166_16884.png,True,0.5630540186376962,0.2104339450597763,1.0,-0.039921957273752015,2.142181634902954,0.0769230769230769,-4.346224102130327,26.641621813178062,10.0,2.767832167832168,9.0,36.39845563381606,10.0
subject-02,1,874,0.682852029800415,dog,dog,False,false_dog_35_n02106166_16884.png,True,-0.6797748739029906,0.2104339450597763,1.0,-0.039921957273752015,2.142181634902954,0.0769230769230769,-4.346224102130327,26.641621813178062,10.0,2.767832167832168,9.0,36.39845563381606,10.0
subject-03,1,1113,0.856134176254272,dog,dog,False,false_dog_35_n02106166_16884.png,True,0.21236246528796024,0.2104339450597763,1.0,-0.039921957273752015,2.142181634902954,0.0769230769230769,-4.346224102130327,26.641621813178062,10.0,2.767832167832168,9.0,36.39845563381606,10.0
subject-04,1,993,1.33689498901367,bird,dog,False,false_dog_35_n02106166_16884.png,False,2.4949993682343443,0.2104339450597763,1.0,-0.039921957273752015,2.142181634902954,0.0769230769230769,-4.346224102130327,26.641621813178062,10.0,2.767832167832168,9.0,36.39845563381606,10.0
subject-01,1,39,0.870317935943604,oven,oven,True,true_oven_35_n04111531_3353.png,True,-0.04396050343043752,0.000600824248977,1.0,-4.690995569299961e-05,2.0447168350219727,0.0625,-6.3018079855866205,26.3436968420865,10.0,3.278409090909091,8.0,51.69074044363411,6.0
subject-02,1,1103,0.769008874893188,oven,oven,True,true_oven_35_n04111531_3353.png,True,-0.23253593720741764,0.000600824248977,1.0,-4.690995569299961e-05,2.0447168350219727,0.0625,-6.3018079855866205,26.3436968420865,10.0,3.278409090909091,8.0,51.69074044363411,6.0
subject-03,1,279,0.500408172607422,oven,oven,True,true_oven_35_n04111531_3353.png,True,-1.3523633060473652,0.000600824248977,1.0,-4.690995569299961e-05,2.0447168350219727,0.0625,-6.3018079855866205,26.3436968420865,10.0,3.278409090909091,8.0,51.69074044363411,6.0
subject-04,1,268,0.88240909576416,oven,oven,True,true_oven_35_n04111531_3353.png,True,0.3473568992009403,0.000600824248977,1.0,-4.690995569299961e-05,2.0447168350219727,0.0625,-6.3018079855866205,26.3436968420865,10.0,3.278409090909091,8.0,51.69074044363411,6.0
subject-01,1,40,1.07212591171265,knife,knife,False,false_knife_35_n03041632_46185.png,True,1.1104498374696024,0.0704768151044845,1.0,-0.009795022150601063,1.6861178874969482,0.125,-3.9021548761519154,24.741093084216118,10.0,3.901262626262626,8.0,35.10261622031959,10.0
subject-02,1,644,0.999545097351074,knife,knife,False,false_knife_35_n03041632_46185.png,True,0.9641742590730589,0.0704768151044845,1.0,-0.009795022150601063,1.6861178874969482,0.125,-3.9021548761519154,24.741093084216118,10.0,3.901262626262626,8.0,35.10261622031959,10.0
subject-03,1,1088,0.968413114547729,knife,knife,False,false_knife_35_n03041632_46185.png,True,0.7062418739475376,0.0704768151044845,1.0,-0.009795022150601063,1.6861178874969482,0.125,-3.9021548761519154,24.741093084216118,10.0,3.901262626262626,8.0,35.10261622031959,10.0
subject-04,1,927,1.04799604415894,knife,knife,False,false_knife_35_n03041632_46185.png,True,1.1298268679553674,0.0704768151044845,1.0,-0.009795022150601063,1.6861178874969482,0.125,-3.9021548761519154,24.741093084216118,10.0,3.901262626262626,8.0,35.10261622031959,10.0
subject-01,1,41,1.05015897750854,knife,knife,True,true_knife_35_n03041632_14766.png,True,0.9847914936580741,0.0001234884257428,1.0,-8.642710840549381e-06,1.9764995574951172,0.1666666666666666,-3.673944259473119,26.035593020438682,10.0,3.803185703185703,8.0,35.00785161982936,10.0
subject-02,1,986,0.679334878921509,knife,knife,True,true_knife_35_n03041632_14766.png,True,-0.6980323532429784,0.0001234884257428,1.0,-8.642710840549381e-06,1.9764995574951172,0.1666666666666666,-3.673944259473119,26.035593020438682,10.0,3.803185703185703,8.0,35.00785161982936,10.0
subject-03,1,153,0.812175035476685,knife,knife,True,true_knife_35_n03041632_14766.png,True,0.01900015903178374,0.0001234884257428,1.0,-8.642710840549381e-06,1.9764995574951172,0.1666666666666666,-3.673944259473119,26.035593020438682,10.0,3.803185703185703,8.0,35.00785161982936,10.0
subject-04,1,764,0.758589029312134,knife,knife,True,true_knife_35_n03041632_14766.png,True,-0.23774648284159128,0.0001234884257428,1.0,-8.642710840549381e-06,1.9764995574951172,0.1666666666666666,-3.673944259473119,26.035593020438682,10.0,3.803185703185703,8.0,35.00785161982936,10.0
subject-01,1,42,1.17180490493774,knife,chair,True,true_chair_35_n02791124_2150.png,False,1.6806476213333987,0.0016552770975977,1.0,-0.000149440010054115,1.8077455759048464,0.0666666666666666,-5.274497188168883,26.112577732885256,10.0,1.6006715506715503,10.0,44.6872661951481,10.0
subject-02,1,921,1.29644799232483,knife,chair,True,true_chair_35_n02791124_2150.png,False,2.505392892449392,0.0016552770975977,1.0,-0.000149440010054115,1.8077455759048464,0.0666666666666666,-5.274497188168883,26.112577732885256,10.0,1.6006715506715503,10.0,44.6872661951481,10.0
subject-03,1,95,1.42299389839172,knife,chair,True,true_chair_35_n02791124_2150.png,False,2.7057984437299623,0.0016552770975977,1.0,-0.000149440010054115,1.8077455759048464,0.0666666666666666,-5.274497188168883,26.112577732885256,10.0,1.6006715506715503,10.0,44.6872661951481,10.0
subject-04,1,328,0.826982021331787,chair,chair,True,true_chair_35_n02791124_2150.png,True,0.0854399931906387,0.0016552770975977,1.0,-0.000149440010054115,1.8077455759048464,0.0666666666666666,-5.274497188168883,26.112577732885256,10.0,1.6006715506715503,10.0,44.6872661951481,10.0
subject-01,1,43,1.06363916397095,elephant,elephant,False,false_elephant_35_n02504458_4631.png,True,1.061902750486079,0.0044289724901318,1.0,-0.0004180947632458951,1.9398269653320312,0.1428571428571428,-3.9340694224808,26.29228745866567,10.0,5.163492063492063,6.0,31.315249840871193,10.0
subject-02,1,1098,0.806000947952271,elephant,elephant,False,false_elephant_35_n02504458_4631.png,True,-0.040510621014671365,0.0044289724901318,1.0,-0.0004180947632458951,1.9398269653320312,0.1428571428571428,-3.9340694224808,26.29228745866567,10.0,5.163492063492063,6.0,31.315249840871193,10.0
subject-03,1,381,0.785029172897339,elephant,elephant,False,false_elephant_35_n02504458_4631.png,True,-0.10040587349767455,0.0044289724901318,1.0,-0.0004180947632458951,1.9398269653320312,0.1428571428571428,-3.9340694224808,26.29228745866567,10.0,5.163492063492063,6.0,31.315249840871193,10.0
subject-04,1,183,0.662413120269775,elephant,elephant,False,false_elephant_35_n02504458_4631.png,True,-0.6922192614804402,0.0044289724901318,1.0,-0.0004180947632458951,1.9398269653320312,0.1428571428571428,-3.9340694224808,26.29228745866567,10.0,5.163492063492063,6.0,31.315249840871193,10.0
subject-01,1,44,1.00745391845703,chair,chair,False,false_chair_35_n03376595_3223.png,True,0.7405040139886417,0.8220447897911072,1.0,-0.6222788880396386,1.49213445186615,0.0714285714285714,-5.6470944690071585,24.777617633342743,10.0,1.487301587301587,10.0,48.399974637808654,10.0
subject-02,1,1085,0.636348009109497,chair,chair,False,false_chair_35_n03376595_3223.png,True,-0.9211765726708548,0.8220447897911072,1.0,-0.6222788880396386,1.49213445186615,0.0714285714285714,-5.6470944690071585,24.777617633342743,10.0,1.487301587301587,10.0,48.399974637808654,10.0
subject-03,1,160,0.966787815093994,chair,chair,False,false_chair_35_n03376595_3223.png,True,0.6990926975721126,0.8220447897911072,1.0,-0.6222788880396386,1.49213445186615,0.0714285714285714,-5.6470944690071585,24.777617633342743,10.0,1.487301587301587,10.0,48.399974637808654,10.0
subject-04,1,617,0.888893127441406,chair,chair,False,false_chair_35_n03376595_3223.png,True,0.37799675405110267,0.8220447897911072,1.0,-0.6222788880396386,1.49213445186615,0.0714285714285714,-5.6470944690071585,24.777617633342743,10.0,1.487301587301587,10.0,48.399974637808654,10.0
subject-01,1,45,0.965162992477417,car,car,False,false_car_35_n03100240_5399.png,True,0.49858551651074556,0.0074120834469795,1.0,-0.00084048057297316,1.94375479221344,0.1111111111111111,-4.185863536752525,25.46961522847414,10.0,3.675396825396825,8.0,38.870846027451044,6.0
subject-02,1,675,1.00016188621521,car,car,False,false_car_35_n03100240_5399.png,True,0.9673760011454944,0.0074120834469795,1.0,-0.00084048057297316,1.94375479221344,0.1111111111111111,-4.185863536752525,25.46961522847414,10.0,3.675396825396825,8.0,38.870846027451044,6.0
subject-03,1,5,0.82060980796814,car,car,False,false_car_35_n03100240_5399.png,True,0.05610204575759192,0.0074120834469795,1.0,-0.00084048057297316,1.94375479221344,0.1111111111111111,-4.185863536752525,25.46961522847414,10.0,3.675396825396825,8.0,38.870846027451044,6.0
subject-04,1,114,0.885819911956787,car,car,False,false_car_35_n03100240_5399.png,True,0.3634744813264893,0.0074120834469795,1.0,-0.00084048057297316,1.94375479221344,0.1111111111111111,-4.185863536752525,25.46961522847414,10.0,3.675396825396825,8.0,38.870846027451044,6.0
subject-01,1,46,0.975010871887207,bottle,bottle,True,true_bottle_35_n04557648_2512.png,True,0.5549187401272818,0.5790119171142578,1.0,-0.1219504649665302,1.9483013153076172,0.5,-1.5323487449732895,27.363381385803223,10.0,5.868686868686868,10.0,22.905210340651692,10.0
subject-02,1,11,0.849725008010864,bottle,bottle,True,true_bottle_35_n04557648_2512.png,True,0.18646034232041556,0.5790119171142578,1.0,-0.1219504649665302,1.9483013153076172,0.5,-1.5323487449732895,27.363381385803223,10.0,5.868686868686868,10.0,22.905210340651692,10.0
subject-03,1,302,0.858141899108887,bottle,bottle,True,true_bottle_35_n04557648_2512.png,True,0.22119380081054932,0.5790119171142578,1.0,-0.1219504649665302,1.9483013153076172,0.5,-1.5323487449732895,27.363381385803223,10.0,5.868686868686868,10.0,22.905210340651692,10.0
subject-04,1,204,1.18487191200256,bottle,bottle,True,true_bottle_35_n04557648_2512.png,True,1.7766245598814825,0.5790119171142578,1.0,-0.1219504649665302,1.9483013153076172,0.5,-1.5323487449732895,27.363381385803223,10.0,5.868686868686868,10.0,22.905210340651692,10.0
subject-01,1,47,1.45480513572693,bicycle,bicycle,True,true_bicycle_35_n03792782_8098.png,True,3.2995053084746666,0.174535185098648,1.0,-0.02739387303694331,1.9063478708267212,0.2,-3.293350426483322,26.410301715135574,10.0,3.2916666666666665,9.0,28.761736629298177,10.0
subject-02,1,142,1.01030683517456,bear,bicycle,True,true_bicycle_35_n03792782_8098.png,False,1.0200382844559497,0.174535185098648,1.0,-0.02739387303694331,1.9063478708267212,0.2,-3.293350426483322,26.410301715135574,10.0,3.2916666666666665,9.0,28.761736629298177,10.0
subject-03,1,222,0.847924947738647,bird,bicycle,True,true_bicycle_35_n03792782_8098.png,False,0.17625267491702226,0.174535185098648,1.0,-0.02739387303694331,1.9063478708267212,0.2,-3.293350426483322,26.410301715135574,10.0,3.2916666666666665,9.0,28.761736629298177,10.0
subject-04,1,537,0.699855089187622,bicycle,bicycle,True,true_bicycle_35_n03792782_8098.png,True,-0.5152897598907149,0.174535185098648,1.0,-0.02739387303694331,1.9063478708267212,0.2,-3.293350426483322,26.410301715135574,10.0,3.2916666666666665,9.0,28.761736629298177,10.0
subject-01,1,48,1.50009512901306,bear,bear,True,true_bear_35_n02134418_11557.png,True,3.558579492185998,0.0081466510891914,1.0,-0.000930921282378599,2.022063732147217,0.1428571428571428,-3.2153410272913,26.065098650753498,10.0,4.269047619047619,8.0,26.980668127591823,10.0
subject-02,1,217,0.745203971862793,bear,bear,True,true_bear_35_n02134418_11557.png,True,-0.35610684452175895,0.0081466510891914,1.0,-0.000930921282378599,2.022063732147217,0.1428571428571428,-3.2153410272913,26.065098650753498,10.0,4.269047619047619,8.0,26.980668127591823,10.0
subject-03,1,563,0.6286301612854,bear,bear,True,true_bear_35_n02134418_11557.png,True,-0.7883554795757368,0.0081466510891914,1.0,-0.000930921282378599,2.022063732147217,0.1428571428571428,-3.2153410272913,26.065098650753498,10.0,4.269047619047619,8.0,26.980668127591823,10.0
subject-04,1,11,0.790278911590576,bear,bear,True,true_bear_35_n02134418_11557.png,True,-0.08799807913814076,0.0081466510891914,1.0,-0.000930921282378599,2.022063732147217,0.1428571428571428,-3.2153410272913,26.065098650753498,10.0,4.269047619047619,8.0,26.980668127591823,10.0
subject-01,1,49,1.09844303131104,knife,knife,True,true_knife_35_n03041632_45569.png,True,1.260992723058292,0.2348837852478027,1.0,-0.048355415980395805,2.075824737548828,0.1428571428571428,-3.4995885880820063,26.111849069595337,10.0,3.66002886002886,8.0,34.50319179021692,10.0
subject-02,1,377,0.770988941192627,knife,knife,True,true_knife_35_n03041632_45569.png,True,-0.2222574416869023,0.2348837852478027,1.0,-0.048355415980395805,2.075824737548828,0.1428571428571428,-3.4995885880820063,26.111849069595337,10.0,3.66002886002886,8.0,34.50319179021692,10.0
subject-03,1,875,0.713876962661743,knife,knife,True,true_knife_35_n03041632_45569.png,True,-0.413381860357588,0.2348837852478027,1.0,-0.048355415980395805,2.075824737548828,0.1428571428571428,-3.4995885880820063,26.111849069595337,10.0,3.66002886002886,8.0,34.50319179021692,10.0
subject-04,1,913,0.84260106086731,knife,knife,True,true_knife_35_n03041632_45569.png,True,0.15924671223347922,0.2348837852478027,1.0,-0.048355415980395805,2.075824737548828,0.1428571428571428,-3.4995885880820063,26.111849069595337,10.0,3.66002886002886,8.0,34.50319179021692,10.0
subject-01,1,50,1.31452512741089,bicycle,bicycle,False,false_bicycle_35_n03792782_4740.png,True,2.497055892863318,0.5588648319244385,1.0,-0.10809748834360554,1.7479228973388672,0.2,-3.2148252649129923,26.140011072158813,10.0,3.526190476190476,9.0,28.60360109547248,10.0
subject-02,1,612,0.723924875259399,bicycle,bicycle,False,false_bicycle_35_n03792782_4740.png,True,-0.4665663272070482,0.5588648319244385,1.0,-0.10809748834360554,1.7479228973388672,0.2,-3.2148252649129923,26.140011072158813,10.0,3.526190476190476,9.0,28.60360109547248,10.0
subject-03,1,33,0.797457933425903,bicycle,bicycle,False,false_bicycle_35_n03792782_4740.png,True,-0.045735701215003484,0.5588648319244385,1.0,-0.10809748834360554,1.7479228973388672,0.2,-3.2148252649129923,26.140011072158813,10.0,3.526190476190476,9.0,28.60360109547248,10.0
subject-04,1,974,0.936621904373169,bicycle,bicycle,False,false_bicycle_35_n03792782_4740.png,True,0.6035358738701673,0.5588648319244385,1.0,-0.10809748834360554,1.7479228973388672,0.2,-3.2148252649129923,26.140011072158813,10.0,3.526190476190476,9.0,28.60360109547248,10.0
subject-01,1,51,1.03859400749207,boat,boat,False,false_boat_35_n03662601_25404.png,True,0.9186359270689186,0.1685536950826645,1.0,-0.031084054422301607,1.9238438606262207,0.25,-2.061378329435463,25.429362162947655,10.0,4.116666666666667,9.0,23.457622131884943,10.0
subject-02,1,40,0.598186016082764,boat,boat,False,false_boat_35_n03662601_25404.png,True,-1.119274926493836,0.1685536950826645,1.0,-0.031084054422301607,1.9238438606262207,0.25,-2.061378329435463,25.429362162947655,10.0,4.116666666666667,9.0,23.457622131884943,10.0
subject-03,1,476,0.806730985641479,boat,boat,False,false_boat_35_n03662601_25404.png,True,-0.004946488079337672,0.1685536950826645,1.0,-0.031084054422301607,1.9238438606262207,0.25,-2.061378329435463,25.429362162947655,10.0,4.116666666666667,9.0,23.457622131884943,10.0
subject-04,1,160,0.519098043441772,boat,boat,False,false_boat_35_n03662601_25404.png,True,-1.3694450016413775,0.1685536950826645,1.0,-0.031084054422301607,1.9238438606262207,0.25,-2.061378329435463,25.429362162947655,10.0,4.116666666666667,9.0,23.457622131884943,10.0
subject-01,1,52,,na,bird,False,false_bird_35_n01796340_4853.png,False,,0.0830073729157447,1.0,-0.011130295097381813,1.980438470840454,0.1428571428571428,-3.5470039582003725,26.2731409445405,10.0,2.452380952380952,10.0,32.798658720887744,10.0
subject-02,1,393,1.0280339717865,dog,bird,False,false_bird_35_n01796340_4853.png,False,1.112059594201496,0.0830073729157447,1.0,-0.011130295097381813,1.980438470840454,0.1428571428571428,-3.5470039582003725,26.2731409445405,10.0,2.452380952380952,10.0,32.798658720887744,10.0
subject-03,1,1043,0.808815002441406,bird,bird,False,false_bird_35_n01796340_4853.png,True,0.004220440290562497,0.0830073729157447,1.0,-0.011130295097381813,1.980438470840454,0.1428571428571428,-3.5470039582003725,26.2731409445405,10.0,2.452380952380952,10.0,32.798658720887744,10.0
subject-04,1,342,0.984425067901611,bird,bird,False,false_bird_35_n01796340_4853.png,True,0.8294265025402828,0.0830073729157447,1.0,-0.011130295097381813,1.980438470840454,0.1428571428571428,-3.5470039582003725,26.2731409445405,10.0,2.452380952380952,10.0,32.798658720887744,10.0
subject-01,1,53,0.675863027572632,clock,clock,True,true_clock_35_n03196217_5888.png,True,-1.1563087949524784,0.0003216636832803,1.0,-2.3722930007084423e-05,1.7885150909423828,1.0,-1.2160695821211938,24.87505082017742,10.0,8.583333333333332,4.0,19.223209759302947,10.0
subject-02,1,291,1.4934458732605,clock,clock,True,true_clock_35_n03196217_5888.png,True,3.528006042989889,0.0003216636832803,1.0,-2.3722930007084423e-05,1.7885150909423828,1.0,-1.2160695821211938,24.87505082017742,10.0,8.583333333333332,4.0,19.223209759302947,10.0
subject-03,1,398,0.791686058044434,clock,clock,True,true_clock_35_n03196217_5888.png,True,-0.07112434884191798,0.0003216636832803,1.0,-2.3722930007084423e-05,1.7885150909423828,1.0,-1.2160695821211938,24.87505082017742,10.0,8.583333333333332,4.0,19.223209759302947,10.0
subject-04,1,452,0.701462984085083,clock,clock,True,true_clock_35_n03196217_5888.png,True,-0.5076917608794811,0.0003216636832803,1.0,-2.3722930007084423e-05,1.7885150909423828,1.0,-1.2160695821211938,24.87505082017742,10.0,8.583333333333332,4.0,19.223209759302947,10.0
subject-01,1,54,1.0139901638031,bicycle,bicycle,True,true_bicycle_35_n02835271_12871.png,True,0.7778935630855428,0.0005494568031281,1.0,-4.202215748525385e-05,1.814091205596924,0.2,-3.1644016325779414,24.8751379463356,10.0,3.692857142857143,9.0,27.8031037232268,9.0
subject-02,1,1024,0.586169004440308,bicycle,bicycle,True,true_bicycle_35_n02835271_12871.png,True,-1.1816550601145968,0.0005494568031281,1.0,-4.202215748525385e-05,1.814091205596924,0.2,-3.1644016325779414,24.8751379463356,10.0,3.692857142857143,9.0,27.8031037232268,9.0
subject-03,1,856,0.707229137420654,bicycle,bicycle,True,true_bicycle_35_n02835271_12871.png,True,-0.4426235333627256,0.0005494568031281,1.0,-4.202215748525385e-05,1.814091205596924,0.2,-3.1644016325779414,24.8751379463356,10.0,3.692857142857143,9.0,27.8031037232268,9.0
subject-04,1,671,0.577840089797974,bicycle,bicycle,True,true_bicycle_35_n02835271_12871.png,True,-1.0918634191405343,0.0005494568031281,1.0,-4.202215748525385e-05,1.814091205596924,0.2,-3.1644016325779414,24.8751379463356,10.0,3.692857142857143,9.0,27.8031037232268,9.0
subject-01,1,55,0.845332860946655,keyboard,keyboard,False,false_keyboard_35_n03085013_28584.png,True,-0.1868836403120517,0.0010237440001219,1.0,-8.780149619270792e-05,1.6053082942962646,0.125,-4.323778122230266,24.81664798106067,10.0,2.4856893106893105,9.0,38.28455557466434,6.0
subject-02,1,117,0.732603073120117,keyboard,keyboard,False,false_keyboard_35_n03085013_28584.png,True,-0.42151792763436147,0.0010237440001219,1.0,-8.780149619270792e-05,1.6053082942962646,0.125,-4.323778122230266,24.81664798106067,10.0,2.4856893106893105,9.0,38.28455557466434,6.0
subject-03,1,344,0.751589059829712,keyboard,keyboard,False,false_keyboard_35_n03085013_28584.png,True,-0.24749831593049926,0.0010237440001219,1.0,-8.780149619270792e-05,1.6053082942962646,0.125,-4.323778122230266,24.81664798106067,10.0,2.4856893106893105,9.0,38.28455557466434,6.0
subject-04,1,445,0.995232105255127,keyboard,keyboard,False,false_keyboard_35_n03085013_28584.png,True,0.880494429465133,0.0010237440001219,1.0,-8.780149619270792e-05,1.6053082942962646,0.125,-4.323778122230266,24.81664798106067,10.0,2.4856893106893105,9.0,38.28455557466434,6.0
subject-01,1,56,1.1991331577301,dog,cat,True,true_cat_35_n02123159_6184.png,False,1.8369745331019172,0.2332102060317993,1.0,-0.044028916388670986,2.006243944168091,0.125,-3.760194807705594,26.69112980365753,10.0,3.437301587301587,9.0,32.03173583098377,10.0
subject-02,1,123,0.799468040466309,cat,cat,True,true_cat_35_n02123159_6184.png,True,-0.07442284928168853,0.2332102060317993,1.0,-0.044028916388670986,2.006243944168091,0.125,-3.760194807705594,26.69112980365753,10.0,3.437301587301587,9.0,32.03173583098377,10.0
subject-03,1,809,1.07802796363831,cat,cat,True,true_cat_35_n02123159_6184.png,True,1.1884027998700064,0.2332102060317993,1.0,-0.044028916388670986,2.006243944168091,0.125,-3.760194807705594,26.69112980365753,10.0,3.437301587301587,9.0,32.03173583098377,10.0
subject-04,1,775,1.04019498825073,dog,cat,True,true_cat_35_n02123159_6184.png,False,1.0929635038320327,0.2332102060317993,1.0,-0.044028916388670986,2.006243944168091,0.125,-3.760194807705594,26.69112980365753,10.0,3.437301587301587,9.0,32.03173583098377,10.0
subject-01,1,57,0.940927028656006,bicycle,bicycle,True,true_bicycle_35_n02835271_7592.png,True,0.35994755063998574,0.0001819406315917,1.0,-1.2695869929373772e-05,1.9408406019210815,0.2,-3.0735862779174887,24.9644186769292,10.0,3.4761904761904763,9.0,27.71901118885707,9.0
subject-02,1,706,0.855953931808472,bicycle,bicycle,True,true_bicycle_35_n02835271_7592.png,True,0.21879459565803713,0.0001819406315917,1.0,-1.2695869929373772e-05,1.9408406019210815,0.2,-3.0735862779174887,24.9644186769292,10.0,3.4761904761904763,9.0,27.71901118885707,9.0
subject-03,1,112,0.745662927627563,bicycle,bicycle,True,true_bicycle_35_n02835271_7592.png,True,-0.2735654903455817,0.0001819406315917,1.0,-1.2695869929373772e-05,1.9408406019210815,0.2,-3.0735862779174887,24.9644186769292,10.0,3.4761904761904763,9.0,27.71901118885707,9.0
subject-04,1,667,0.884735107421875,bicycle,bicycle,True,true_bicycle_35_n02835271_7592.png,True,0.3583483105819597,0.0001819406315917,1.0,-1.2695869929373772e-05,1.9408406019210815,0.2,-3.0735862779174887,24.9644186769292,10.0,3.4761904761904763,9.0,27.71901118885707,9.0
subject-01,1,58,0.884871959686279,elephant,elephant,False,false_elephant_35_n02504458_3205.png,True,0.039293468302952037,0.1559268683195114,1.0,-0.03508880790439524,1.9852291345596311,0.1428571428571428,-3.9280780497725747,26.4749868363142,10.0,5.139682539682539,6.0,31.861236245655938,10.0
subject-02,1,700,0.704973936080933,elephant,elephant,False,false_elephant_35_n02504458_3205.png,True,-0.5649403783742325,0.1559268683195114,1.0,-0.03508880790439524,1.9852291345596311,0.1428571428571428,-3.9280780497725747,26.4749868363142,10.0,5.139682539682539,6.0,31.861236245655938,10.0
subject-03,1,312,0.90214991569519,elephant,elephant,False,false_elephant_35_n02504458_3205.png,True,0.41477109623453656,0.1559268683195114,1.0,-0.03508880790439524,1.9852291345596311,0.1428571428571428,-3.9280780497725747,26.4749868363142,10.0,5.139682539682539,6.0,31.861236245655938,10.0
subject-04,1,953,0.754987955093384,elephant,elephant,False,false_elephant_35_n02504458_3205.png,True,-0.2547631164515655,0.1559268683195114,1.0,-0.03508880790439524,1.9852291345596311,0.1428571428571428,-3.9280780497725747,26.4749868363142,10.0,5.139682539682539,6.0,31.861236245655938,10.0
subject-01,1,59,0.842571973800659,cat,cat,False,false_cat_35_n02124075_7880.png,True,-0.2026768549223771,0.128351479768753,1.0,-0.019346025269276135,1.815184950828552,0.1,-4.185818836423522,26.16619434952736,10.0,4.302777777777777,7.0,32.731414744480524,10.0
subject-02,1,32,1.45574998855591,dog,cat,False,false_cat_35_n02124075_7880.png,False,3.332327250725315,0.128351479768753,1.0,-0.019346025269276135,1.815184950828552,0.1,-4.185818836423522,26.16619434952736,10.0,4.302777777777777,7.0,32.731414744480524,10.0
subject-03,1,926,0.740226030349731,cat,cat,False,false_cat_35_n02124075_7880.png,True,-0.29748067562726355,0.128351479768753,1.0,-0.019346025269276135,1.815184950828552,0.1,-4.185818836423522,26.16619434952736,10.0,4.302777777777777,7.0,32.731414744480524,10.0
subject-04,1,693,0.529959917068481,cat,cat,False,false_cat_35_n02124075_7880.png,True,-1.3181179496019702,0.128351479768753,1.0,-0.019346025269276135,1.815184950828552,0.1,-4.185818836423522,26.16619434952736,10.0,4.302777777777777,7.0,32.731414744480524,10.0
subject-01,1,60,1.01644396781921,truck,truck,False,false_truck_35_n04467665_2240.png,True,0.7919301576252028,0.0011496556689962,1.0,-9.757756403286297e-05,1.8268351554870603,0.125,-4.4413160254451824,24.81928014883306,10.0,2.1836080586080584,10.0,41.194126196766504,10.0
subject-02,1,727,0.671194076538086,truck,truck,False,false_truck_35_n04467665_2240.png,True,-0.7402911406659672,0.0011496556689962,1.0,-9.757756403286297e-05,1.8268351554870603,0.125,-4.4413160254451824,24.81928014883306,10.0,2.1836080586080584,10.0,41.194126196766504,10.0
subject-03,1,465,0.672791957855225,truck,truck,False,false_truck_35_n04467665_2240.png,True,-0.5941017548188758,0.0011496556689962,1.0,-9.757756403286297e-05,1.8268351554870603,0.125,-4.4413160254451824,24.81928014883306,10.0,2.1836080586080584,10.0,41.194126196766504,10.0
subject-04,1,947,0.792140007019043,truck,truck,False,false_truck_35_n04467665_2240.png,True,-0.07920359807620518,0.0011496556689962,1.0,-9.757756403286297e-05,1.8268351554870603,0.125,-4.4413160254451824,24.81928014883306,10.0,2.1836080586080584,10.0,41.194126196766504,10.0
subject-01,1,61,1.412113904953,bottle,bottle,True,true_bottle_35_n04560804_13316.png,True,3.0552969312617875,0.0009236884652636,1.0,-7.307796462404277e-05,1.7493700981140137,0.5,-1.4849728809384724,25.238254840427544,10.0,7.416666666666666,9.0,19.493890279768905,10.0
subject-02,1,685,1.01813292503357,oven,bottle,True,true_bottle_35_n04560804_13316.png,False,1.0606634037167428,0.0009236884652636,1.0,-7.307796462404277e-05,1.7493700981140137,0.5,-1.4849728809384724,25.238254840427544,10.0,7.416666666666666,9.0,19.493890279768905,10.0
subject-03,1,542,1.08878207206726,bottle,bottle,True,true_bottle_35_n04560804_13316.png,True,1.2357067091541245,0.0009236884652636,1.0,-7.307796462404277e-05,1.7493700981140137,0.5,-1.4849728809384724,25.238254840427544,10.0,7.416666666666666,9.0,19.493890279768905,10.0
subject-04,1,686,1.32712316513062,bottle,bottle,True,true_bottle_35_n04560804_13316.png,True,2.4488232728200203,0.0009236884652636,1.0,-7.307796462404277e-05,1.7493700981140137,0.5,-1.4849728809384724,25.238254840427544,10.0,7.416666666666666,9.0,19.493890279768905,10.0
subject-01,1,62,0.81191086769104,airplane,airplane,False,false_airplane_35_n02690373_3821.png,True,-0.3780688225663365,0.0006678929203189,1.0,-5.4897384671871775e-05,1.860385179519653,0.3333333333333333,-1.4521975036239856,24.29220064781839,10.0,9.083333333333332,0.0,15.845331490194798,9.0
subject-02,1,698,0.641381025314331,airplane,airplane,False,false_airplane_35_n02690373_3821.png,True,-0.8950502583495984,0.0006678929203189,1.0,-5.4897384671871775e-05,1.860385179519653,0.3333333333333333,-1.4521975036239856,24.29220064781839,10.0,9.083333333333332,0.0,15.845331490194798,9.0
subject-03,1,28,1.18028521537781,airplane,airplane,False,false_airplane_35_n02690373_3821.png,True,1.6381999905796445,0.0006678929203189,1.0,-5.4897384671871775e-05,1.860385179519653,0.3333333333333333,-1.4521975036239856,24.29220064781839,10.0,9.083333333333332,0.0,15.845331490194798,9.0
subject-04,1,28,0.708881855010986,airplane,airplane,False,false_airplane_35_n02690373_3821.png,True,-0.472634386141561,0.0006678929203189,1.0,-5.4897384671871775e-05,1.860385179519653,0.3333333333333333,-1.4521975036239856,24.29220064781839,10.0,9.083333333333332,0.0,15.845331490194798,9.0
subject-01,1,63,0.815953969955444,oven,knife,True,true_knife_35_n03041632_17285.png,False,-0.3549409008597842,0.0067296838387846,1.0,-0.0006915337244431138,1.9209508895874023,0.125,-3.9282894969199056,26.18234475608915,10.0,2.120310245310245,10.0,36.18326241823775,10.0
subject-02,1,944,1.35613322257996,knife,knife,True,true_knife_35_n03041632_17285.png,True,2.8152180594107796,0.0067296838387846,1.0,-0.0006915337244431138,1.9209508895874023,0.125,-3.9282894969199056,26.18234475608915,10.0,2.120310245310245,10.0,36.18326241823775,10.0
subject-03,1,77,1.18696188926697,knife,knife,True,true_knife_35_n03041632_17285.png,True,1.6675685596301706,0.0067296838387846,1.0,-0.0006915337244431138,1.9209508895874023,0.125,-3.9282894969199056,26.18234475608915,10.0,2.120310245310245,10.0,36.18326241823775,10.0
subject-04,1,26,0.661344051361084,knife,knife,True,true_knife_35_n03041632_17285.png,True,-0.6972710745833992,0.0067296838387846,1.0,-0.0006915337244431138,1.9209508895874023,0.125,-3.9282894969199056,26.18234475608915,10.0,2.120310245310245,10.0,36.18326241823775,10.0
subject-01,1,64,0.821630001068115,bottle,bottle,False,false_bottle_35_n02823428_10942.png,True,-0.3224720700974333,0.0413205400109291,1.0,-0.005485772086926854,1.7680140733718872,0.5,-1.4199299141487232,25.113192059099674,10.0,6.7,10.0,21.10267627200534,10.0
subject-02,1,923,0.864192962646484,bottle,bottle,False,false_bottle_35_n02823428_10942.png,True,0.26156328556801184,0.0413205400109291,1.0,-0.005485772086926854,1.7680140733718872,0.5,-1.4199299141487232,25.113192059099674,10.0,6.7,10.0,21.10267627200534,10.0
subject-03,1,658,1.19061803817749,bottle,bottle,False,false_bottle_35_n02823428_10942.png,True,1.683650798110014,0.0413205400109291,1.0,-0.005485772086926854,1.7680140733718872,0.5,-1.4199299141487232,25.113192059099674,10.0,6.7,10.0,21.10267627200534,10.0
subject-04,1,93,0.647828817367554,bottle,bottle,False,false_bottle_35_n02823428_10942.png,True,-0.7611364022746456,0.0413205400109291,1.0,-0.005485772086926854,1.7680140733718872,0.5,-1.4199299141487232,25.113192059099674,10.0,6.7,10.0,21.10267627200534,10.0
subject-01,1,65,0.673408985137939,bicycle,bicycle,True,true_bicycle_35_n02835271_3642.png,True,-1.170346753327618,0.0762017965316772,1.0,-0.012542434596978059,2.0076375007629395,0.2,-3.012520191277102,26.140351176261902,10.0,3.0083333333333333,10.0,29.108274222906896,10.0
subject-02,1,1091,0.691670894622803,bicycle,bicycle,True,true_bicycle_35_n02835271_3642.png,True,-0.633996274166896,0.0762017965316772,1.0,-0.012542434596978059,2.0076375007629395,0.2,-3.012520191277102,26.140351176261902,10.0,3.0083333333333333,10.0,29.108274222906896,10.0
subject-03,1,227,1.14491105079651,dog,bicycle,True,true_bicycle_35_n02835271_3642.png,False,1.4826002694674154,0.0762017965316772,1.0,-0.012542434596978059,2.0076375007629395,0.2,-3.012520191277102,26.140351176261902,10.0,3.0083333333333333,10.0,29.108274222906896,10.0
subject-04,1,555,0.972681045532227,bicycle,bicycle,True,true_bicycle_35_n02835271_3642.png,True,0.7739309160492833,0.0762017965316772,1.0,-0.012542434596978059,2.0076375007629395,0.2,-3.012520191277102,26.140351176261902,10.0,3.0083333333333333,10.0,29.108274222906896,10.0
subject-01,1,66,1.01931095123291,knife,knife,True,true_knife_35_n03041632_16172.png,True,0.8083302790146154,8.30892167869024e-05,1.0,-5.424037384624726e-06,2.000816345214844,0.2,-3.1794059217040456,25.938774705275137,10.0,4.467929292929293,7.0,33.20366649678861,10.0
subject-02,1,600,0.756120920181274,knife,knife,True,true_knife_35_n03041632_16172.png,True,-0.29943712370432946,8.30892167869024e-05,1.0,-5.424037384624726e-06,2.000816345214844,0.2,-3.1794059217040456,25.938774705275137,10.0,4.467929292929293,7.0,33.20366649678861,10.0
subject-03,1,135,0.871783018112183,knife,knife,True,true_knife_35_n03041632_16172.png,True,0.2811967531825642,8.30892167869024e-05,1.0,-5.424037384624726e-06,2.000816345214844,0.2,-3.1794059217040456,25.938774705275137,10.0,4.467929292929293,7.0,33.20366649678861,10.0
subject-04,1,747,0.565308094024658,knife,knife,True,true_knife_35_n03041632_16172.png,True,-1.151082520864655,8.30892167869024e-05,1.0,-5.424037384624726e-06,2.000816345214844,0.2,-3.1794059217040456,25.938774705275137,10.0,4.467929292929293,7.0,33.20366649678861,10.0
subject-01,1,67,1.34522700309753,bicycle,bottle,False,false_bottle_35_n04560804_2448.png,False,2.6726810763706634,1.3222346305847168,0.3333333333333333,-2.434001328739876,1.9421782493591309,0.3333333333333333,-1.6513029023945558,27.60067319869995,10.0,5.63392857142857,6.0,25.315292283081906,10.0
subject-02,1,577,1.1207959651947,bicycle,bottle,False,false_bottle_35_n04560804_2448.png,False,1.593585760264941,1.3222346305847168,0.3333333333333333,-2.434001328739876,1.9421782493591309,0.3333333333333333,-1.6513029023945558,27.60067319869995,10.0,5.63392857142857,6.0,25.315292283081906,10.0
subject-03,1,553,1.50012993812561,bicycle,bottle,False,false_bottle_35_n04560804_2448.png,False,3.045095397095749,1.3222346305847168,0.3333333333333333,-2.434001328739876,1.9421782493591309,0.3333333333333333,-1.6513029023945558,27.60067319869995,10.0,5.63392857142857,6.0,25.315292283081906,10.0
subject-04,1,156,1.11805415153503,bicycle,bottle,False,false_bottle_35_n04560804_2448.png,False,1.4608817344226785,1.3222346305847168,0.3333333333333333,-2.434001328739876,1.9421782493591309,0.3333333333333333,-1.6513029023945558,27.60067319869995,10.0,5.63392857142857,6.0,25.315292283081906,10.0
subject-01,1,68,1.08890199661255,oven,oven,False,false_oven_35_n04111531_4452.png,True,1.2064147556769231,2.031832695007324,0.3333333333333333,-1.9354183244460912,1.7823859453201294,0.0625,-6.684434721264805,28.704111456871033,10.0,0.3214285714285713,10.0,57.28016453957387,6.0
subject-02,1,28,1.01067495346069,oven,oven,False,false_oven_35_n04111531_4452.png,True,1.0219491811547512,2.031832695007324,0.3333333333333333,-1.9354183244460912,1.7823859453201294,0.0625,-6.684434721264805,28.704111456871033,10.0,0.3214285714285713,10.0,57.28016453957387,6.0
subject-03,1,941,1.50014305114746,oven,oven,False,false_oven_35_n04111531_4452.png,True,3.045153077116379,2.031832695007324,0.3333333333333333,-1.9354183244460912,1.7823859453201294,0.0625,-6.684434721264805,28.704111456871033,10.0,0.3214285714285713,10.0,57.28016453957387,6.0
subject-04,1,1113,0.59436297416687,oven,oven,False,false_oven_35_n04111531_4452.png,True,-1.0137856422312121,2.031832695007324,0.3333333333333333,-1.9354183244460912,1.7823859453201294,0.0625,-6.684434721264805,28.704111456871033,10.0,0.3214285714285713,10.0,57.28016453957387,6.0
subject-01,1,69,0.952723026275635,keyboard,keyboard,False,false_keyboard_35_n04505470_912.png,True,0.4274246737885579,9.191906428895892e-05,1.0,-6.02008724311432e-06,1.5261614322662354,0.1666666666666666,-4.594278594886718,23.452314981579548,9.0,2.8428571428571425,9.0,37.341817726510435,9.0
subject-02,1,899,0.796817064285278,keyboard,keyboard,False,false_keyboard_35_n04505470_912.png,True,-0.08818402829344263,9.191906428895892e-05,1.0,-6.02008724311432e-06,1.5261614322662354,0.1666666666666666,-4.594278594886718,23.452314981579548,9.0,2.8428571428571425,9.0,37.341817726510435,9.0
subject-03,1,788,0.978643178939819,keyboard,keyboard,False,false_keyboard_35_n04505470_912.png,True,0.7512406798616937,9.191906428895892e-05,1.0,-6.02008724311432e-06,1.5261614322662354,0.1666666666666666,-4.594278594886718,23.452314981579548,9.0,2.8428571428571425,9.0,37.341817726510435,9.0
subject-04,1,33,0.858036041259766,keyboard,keyboard,False,false_keyboard_35_n04505470_912.png,True,0.23218367219614577,9.191906428895892e-05,1.0,-6.02008724311432e-06,1.5261614322662354,0.1666666666666666,-4.594278594886718,23.452314981579548,9.0,2.8428571428571425,9.0,37.341817726510435,9.0
subject-01,1,70,0.824538946151733,cat,cat,False,false_cat_35_n02123045_7167.png,True,-0.30583191366733264,0.3559406697750091,1.0,-0.10425416367365165,1.897503137588501,0.1111111111111111,-4.1625315748133,26.27918228507042,10.0,3.5583333333333336,8.0,32.589628129932834,9.0
subject-02,1,169,0.634549856185913,cat,cat,False,false_cat_35_n02123045_7167.png,True,-0.9305107584885199,0.3559406697750091,1.0,-0.10425416367365165,1.897503137588501,0.1111111111111111,-4.1625315748133,26.27918228507042,10.0,3.5583333333333336,8.0,32.589628129932834,9.0
subject-03,1,1119,0.490599155426025,cat,cat,False,false_cat_35_n02123045_7167.png,True,-1.3955100589354112,0.3559406697750091,1.0,-0.10425416367365165,1.897503137588501,0.1111111111111111,-4.1625315748133,26.27918228507042,10.0,3.5583333333333336,8.0,32.589628129932834,9.0
subject-04,1,29,0.83112096786499,cat,cat,False,false_cat_35_n02123045_7167.png,True,0.10499830618515309,0.3559406697750091,1.0,-0.10425416367365165,1.897503137588501,0.1111111111111111,-4.1625315748133,26.27918228507042,10.0,3.5583333333333336,8.0,32.589628129932834,9.0
subject-01,1,71,1.01247906684875,bicycle,bicycle,False,false_bicycle_35_n03792782_8333.png,True,0.7692495739490557,0.000673682661727,1.0,-5.096326988833735e-05,2.030656576156616,0.2,-2.73822614353227,26.577340037794784,10.0,3.825,9.0,27.280490312458802,10.0
subject-02,1,101,0.789541959762573,bicycle,bicycle,False,false_bicycle_35_n03792782_8333.png,True,-0.12594899064298265,0.000673682661727,1.0,-5.096326988833735e-05,2.030656576156616,0.2,-2.73822614353227,26.577340037794784,10.0,3.825,9.0,27.280490312458802,10.0
subject-03,1,799,0.598580121994019,bicycle,bicycle,False,false_bicycle_35_n03792782_8333.png,True,-0.9205360635837095,0.000673682661727,1.0,-5.096326988833735e-05,2.030656576156616,0.2,-2.73822614353227,26.577340037794784,10.0,3.825,9.0,27.280490312458802,10.0
subject-04,1,783,0.752647876739502,bicycle,bicycle,False,false_bicycle_35_n03792782_8333.png,True,-0.2658209990576244,0.000673682661727,1.0,-5.096326988833735e-05,2.030656576156616,0.2,-2.73822614353227,26.577340037794784,10.0,3.825,9.0,27.280490312458802,10.0
subject-01,1,72,1.20222306251526,dog,dog,False,false_dog_35_n02107683_2904.png,True,1.8546498406450995,0.7707472443580627,1.0,-0.24028028611108382,2.074143886566162,0.0909090909090909,-4.525694263585083,27.11770659685135,10.0,2.4350288600288597,10.0,36.3659680580891,10.0
subject-02,1,682,0.858600854873657,dog,dog,False,false_dog_35_n02107683_2904.png,True,0.23253473500405902,0.7707472443580627,1.0,-0.24028028611108382,2.074143886566162,0.0909090909090909,-4.525694263585083,27.11770659685135,10.0,2.4350288600288597,10.0,36.3659680580891,10.0
subject-03,1,888,0.779325008392334,dog,dog,False,false_dog_35_n02107683_2904.png,True,-0.12549668247260218,0.7707472443580627,1.0,-0.24028028611108382,2.074143886566162,0.0909090909090909,-4.525694263585083,27.11770659685135,10.0,2.4350288600288597,10.0,36.3659680580891,10.0
subject-04,1,269,0.758209943771362,dog,dog,False,false_dog_35_n02107683_2904.png,True,-0.2395378260248473,0.7707472443580627,1.0,-0.24028028611108382,2.074143886566162,0.0909090909090909,-4.525694263585083,27.11770659685135,10.0,2.4350288600288597,10.0,36.3659680580891,10.0
subject-01,1,73,1.06596088409424,bottle,bottle,True,true_bottle_35_n04591713_3409.png,True,1.0751837801817,0.0321160927414894,1.0,-0.003558582264533776,1.8458647727966309,0.3333333333333333,-1.7550402130895275,26.09928075224161,10.0,7.416666666666666,0.0,20.38437426762089,10.0
subject-02,1,862,0.852900981903076,bottle,bottle,True,true_bottle_35_n04591713_3409.png,True,0.2029467768572914,0.0321160927414894,1.0,-0.003558582264533776,1.8458647727966309,0.3333333333333333,-1.7550402130895275,26.09928075224161,10.0,7.416666666666666,0.0,20.38437426762089,10.0
subject-03,1,143,0.73583197593689,bottle,bottle,True,true_bottle_35_n04591713_3409.png,True,-0.3168087261772249,0.0321160927414894,1.0,-0.003558582264533776,1.8458647727966309,0.3333333333333333,-1.7550402130895275,26.09928075224161,10.0,7.416666666666666,0.0,20.38437426762089,10.0
subject-04,1,569,0.547846078872681,bottle,bottle,True,true_bottle_35_n04591713_3409.png,True,-1.2335980970185272,0.0321160927414894,1.0,-0.003558582264533776,1.8458647727966309,0.3333333333333333,-1.7550402130895275,26.09928075224161,10.0,7.416666666666666,0.0,20.38437426762089,10.0
subject-01,1,74,1.20390701293945,chair,bottle,False,false_bottle_35_n04560804_564.png,False,1.8642826104890071,0.9653050899505616,1.0,-0.6968449669759668,1.7112866640090942,0.5,-1.680837043421343,27.005717158317566,10.0,5.276923076923077,10.0,24.005819203968322,10.0
subject-02,1,413,0.953997135162354,bottle,bottle,False,false_bottle_35_n04560804_564.png,True,0.7277354461615813,0.9653050899505616,1.0,-0.6968449669759668,1.7112866640090942,0.5,-1.680837043421343,27.005717158317566,10.0,5.276923076923077,10.0,24.005819203968322,10.0
subject-03,1,299,0.976702928543091,oven,bottle,False,false_bottle_35_n04560804_564.png,False,0.7427061342634534,0.9653050899505616,1.0,-0.6968449669759668,1.7112866640090942,0.5,-1.680837043421343,27.005717158317566,10.0,5.276923076923077,10.0,24.005819203968322,10.0
subject-04,1,1007,1.14036202430725,bottle,bottle,False,false_bottle_35_n04560804_564.png,True,1.566296084287025,0.9653050899505616,1.0,-0.6968449669759668,1.7112866640090942,0.5,-1.680837043421343,27.005717158317566,10.0,5.276923076923077,10.0,24.005819203968322,10.0
subject-01,1,75,0.829721927642822,truck,truck,False,false_truck_35_n03796401_6503.png,True,-0.276183494633319,0.0080478591844439,1.0,-0.0009120091911771304,1.9144301414489744,0.0833333333333333,-4.361715105627115,25.748820821754634,10.0,2.4216783216783213,10.0,39.722140950067036,10.0
subject-02,1,233,0.897852182388306,truck,truck,False,false_truck_35_n03796401_6503.png,True,0.436287808397572,0.0080478591844439,1.0,-0.0009120091911771304,1.9144301414489744,0.0833333333333333,-4.361715105627115,25.748820821754634,10.0,2.4216783216783213,10.0,39.722140950067036,10.0
subject-03,1,906,0.903916120529175,truck,truck,False,false_truck_35_n03796401_6503.png,True,0.42254007064984817,0.0080478591844439,1.0,-0.0009120091911771304,1.9144301414489744,0.0833333333333333,-4.361715105627115,25.748820821754634,10.0,2.4216783216783213,10.0,39.722140950067036,10.0
subject-04,1,4,0.689475059509277,truck,truck,False,false_truck_35_n03796401_6503.png,True,-0.5643398908148055,0.0080478591844439,1.0,-0.0009120091911771304,1.9144301414489744,0.0833333333333333,-4.361715105627115,25.748820821754634,10.0,2.4216783216783213,10.0,39.722140950067036,10.0
subject-01,1,76,0.789545059204102,oven,oven,True,true_oven_35_n04111531_13590.png,True,-0.5060088631000139,0.0186836924403905,1.0,-0.0025938385591468376,1.8406072854995728,0.0625,-6.535430508286552,26.04280628822744,10.0,2.1072802197802196,9.0,53.7089359481562,6.0
subject-02,1,929,1.20899105072021,oven,oven,True,true_oven_35_n04111531_13590.png,True,2.0514051735655436,0.0186836924403905,1.0,-0.0025938385591468376,1.8406072854995728,0.0625,-6.535430508286552,26.04280628822744,10.0,2.1072802197802196,9.0,53.7089359481562,6.0
subject-03,1,433,0.684877872467041,oven,oven,True,true_oven_35_n04111531_13590.png,True,-0.5409396528938201,0.0186836924403905,1.0,-0.0025938385591468376,1.8406072854995728,0.0625,-6.535430508286552,26.04280628822744,10.0,2.1072802197802196,9.0,53.7089359481562,6.0
subject-04,1,10,1.16828608512878,oven,oven,True,true_oven_35_n04111531_13590.png,True,1.6982493524058788,0.0186836924403905,1.0,-0.0025938385591468376,1.8406072854995728,0.0625,-6.535430508286552,26.04280628822744,10.0,2.1072802197802196,9.0,53.7089359481562,6.0
subject-01,1,77,0.865151166915894,bird,bird,False,false_bird_35_n02018795_7504.png,True,-0.07351618165326665,0.0534624680876731,1.0,-0.006564239810399056,1.9244027137756348,0.125,-3.743067536899852,26.28989764302969,10.0,2.0996031746031742,10.0,33.404014226140575,10.0
subject-02,1,901,0.764330148696899,bird,bird,False,false_bird_35_n02018795_7504.png,True,-0.25682313721880207,0.0534624680876731,1.0,-0.006564239810399056,1.9244027137756348,0.125,-3.743067536899852,26.28989764302969,10.0,2.0996031746031742,10.0,33.404014226140575,10.0
subject-03,1,238,1.02529406547546,bird,bird,False,false_bird_35_n02018795_7504.png,True,0.9564431212621403,0.0534624680876731,1.0,-0.006564239810399056,1.9244027137756348,0.125,-3.743067536899852,26.28989764302969,10.0,2.0996031746031742,10.0,33.404014226140575,10.0
subject-04,1,238,0.728056907653809,bird,bird,False,false_bird_35_n02018795_7504.png,True,-0.38202396673505645,0.0534624680876731,1.0,-0.006564239810399056,1.9244027137756348,0.125,-3.743067536899852,26.28989764302969,10.0,2.0996031746031742,10.0,33.404014226140575,10.0
subject-01,1,78,1.03911900520325,car,car,False,false_car_35_n03100240_6626.png,True,0.9216390927486957,0.8051256537437439,0.5,-0.848880552553248,1.78113055229187,0.0833333333333333,-4.597374028849669,25.910968959331512,10.0,2.836446886446886,8.0,42.958956433909975,6.0
subject-02,1,348,0.808448076248169,car,car,False,false_car_35_n03100240_6626.png,True,-0.02780761342616726,0.8051256537437439,0.5,-0.848880552553248,1.78113055229187,0.0833333333333333,-4.597374028849669,25.910968959331512,10.0,2.836446886446886,8.0,42.958956433909975,6.0
subject-03,1,1013,0.975038051605225,car,car,False,false_car_35_n03100240_6626.png,True,0.735382869098484,0.8051256537437439,0.5,-0.848880552553248,1.78113055229187,0.0833333333333333,-4.597374028849669,25.910968959331512,10.0,2.836446886446886,8.0,42.958956433909975,6.0
subject-04,1,422,0.849148035049438,car,car,False,false_car_35_n03100240_6626.png,True,0.19018399764991392,0.8051256537437439,0.5,-0.848880552553248,1.78113055229187,0.0833333333333333,-4.597374028849669,25.910968959331512,10.0,2.836446886446886,8.0,42.958956433909975,6.0
subject-01,1,79,1.07889604568481,bear,bear,False,false_bear_35_n02134418_4364.png,True,1.1491773091513182,0.0003340441617183,1.0,-2.479583964085338e-05,2.209059238433838,0.1666666666666666,-2.791273131419494,26.601602335635107,10.0,3.9833333333333334,9.0,26.916887562087435,10.0
subject-02,1,663,0.83991003036499,bear,bear,False,false_bear_35_n02134418_4364.png,True,0.13551093532547756,0.0003340441617183,1.0,-2.479583964085338e-05,2.209059238433838,0.1666666666666666,-2.791273131419494,26.601602335635107,10.0,3.9833333333333334,9.0,26.916887562087435,10.0
subject-03,1,633,0.609509944915771,bear,bear,False,false_bear_35_n02134418_4364.png,True,-0.8724592420231039,0.0003340441617183,1.0,-2.479583964085338e-05,2.209059238433838,0.1666666666666666,-2.791273131419494,26.601602335635107,10.0,3.9833333333333334,9.0,26.916887562087435,10.0
subject-04,1,188,0.615570068359375,bear,bear,False,false_bear_35_n02134418_4364.png,True,-0.9135729473839128,0.0003340441617183,1.0,-2.479583964085338e-05,2.209059238433838,0.1666666666666666,-2.791273131419494,26.601602335635107,10.0,3.9833333333333334,9.0,26.916887562087435,10.0
subject-01,1,80,1.21478986740112,bird,knife,False,false_knife_35_n03041632_8051.png,False,1.9265362438312275,1.3579941987991333,0.5,-2.030181394651258,1.9688118696212769,0.1428571428571428,-4.005333739716089,27.311241149902344,10.0,1.1206460206460205,10.0,39.14516169159545,6.0
subject-02,1,885,0.989338874816895,bird,knife,False,false_knife_35_n03041632_8051.png,False,0.9111939055219339,1.3579941987991333,0.5,-2.030181394651258,1.9688118696212769,0.1428571428571428,-4.005333739716089,27.311241149902344,10.0,1.1206460206460205,10.0,39.14516169159545,6.0
subject-03,1,393,0.754472970962524,knife,knife,False,false_knife_35_n03041632_8051.png,True,-0.23481290630204948,1.3579941987991333,0.5,-2.030181394651258,1.9688118696212769,0.1428571428571428,-4.005333739716089,27.311241149902344,10.0,1.1206460206460205,10.0,39.14516169159545,6.0
subject-04,1,1115,0.818140029907227,knife,knife,False,false_knife_35_n03041632_8051.png,True,0.04365775841445586,1.3579941987991333,0.5,-2.030181394651258,1.9688118696212769,0.1428571428571428,-4.005333739716089,27.311241149902344,10.0,1.1206460206460205,10.0,39.14516169159545,6.0
subject-01,1,81,0.717191934585571,airplane,airplane,True,true_airplane_35_n02690373_1434.png,True,-0.9198933735499366,0.0004224059230182,1.0,-3.308112502483554e-05,1.89273202419281,0.3333333333333333,-1.5513370900386148,25.099456834519515,10.0,7.416666666666666,0.0,18.758709181202544,10.0
subject-02,1,551,0.631219863891602,airplane,airplane,True,true_airplane_35_n02690373_1434.png,True,-0.9477967003229548,0.0004224059230182,1.0,-3.308112502483554e-05,1.89273202419281,0.3333333333333333,-1.5513370900386148,25.099456834519515,10.0,7.416666666666666,0.0,18.758709181202544,10.0
subject-03,1,452,0.78516697883606,airplane,airplane,True,true_airplane_35_n02690373_1434.png,True,-0.09979970891721297,0.0004224059230182,1.0,-3.308112502483554e-05,1.89273202419281,0.3333333333333333,-1.5513370900386148,25.099456834519515,10.0,7.416666666666666,0.0,18.758709181202544,10.0
subject-04,1,824,0.623861074447632,airplane,airplane,True,true_airplane_35_n02690373_1434.png,True,-0.874394356693575,0.0004224059230182,1.0,-3.308112502483554e-05,1.89273202419281,0.3333333333333333,-1.5513370900386148,25.099456834519515,10.0,7.416666666666666,0.0,18.758709181202544,10.0
subject-01,1,82,0.764518976211548,clock,clock,True,true_clock_35_n04548280_5408.png,True,-0.6491665796805015,0.0052313720807433,1.0,-0.0005718316125777952,1.73323392868042,1.0,-1.0496489624541696,25.164274445734918,10.0,8.833333333333334,4.0,18.97349030152064,10.0
subject-02,1,544,0.928734064102173,clock,clock,True,true_clock_35_n04548280_5408.png,True,0.5965952096957059,0.0052313720807433,1.0,-0.0005718316125777952,1.73323392868042,1.0,-1.0496489624541696,25.164274445734918,10.0,8.833333333333334,4.0,18.97349030152064,10.0
subject-03,1,301,0.610702037811279,clock,clock,True,true_clock_35_n04548280_5408.png,True,-0.8672156037838291,0.0052313720807433,1.0,-0.0005718316125777952,1.73323392868042,1.0,-1.0496489624541696,25.164274445734918,10.0,8.833333333333334,4.0,18.97349030152064,10.0
subject-04,1,329,0.53695011138916,clock,clock,True,true_clock_35_n04548280_5408.png,True,-1.285086257281336,0.0052313720807433,1.0,-0.0005718316125777952,1.73323392868042,1.0,-1.0496489624541696,25.164274445734918,10.0,8.833333333333334,4.0,18.97349030152064,10.0
subject-01,1,83,0.716691970825195,cat,cat,False,false_cat_35_n02123597_3916.png,True,-0.9227533365065732,0.8946373462677002,1.0,-0.30883199003084044,2.0290026664733887,0.125,-3.8779723824716883,27.286699533462524,10.0,4.617857142857143,7.0,31.77570622435441,10.0
subject-02,1,970,0.778272867202759,cat,cat,False,false_cat_35_n02123597_3916.png,True,-0.18444668712372314,0.8946373462677002,1.0,-0.30883199003084044,2.0290026664733887,0.125,-3.8779723824716883,27.286699533462524,10.0,4.617857142857143,7.0,31.77570622435441,10.0
subject-03,1,1025,0.640688896179199,cat,cat,False,false_cat_35_n02123597_3916.png,True,-0.7353129326025335,0.8946373462677002,1.0,-0.30883199003084044,2.0290026664733887,0.125,-3.8779723824716883,27.286699533462524,10.0,4.617857142857143,7.0,31.77570622435441,10.0
subject-04,1,1082,0.900256872177124,cat,cat,False,false_cat_35_n02123597_3916.png,True,0.4316953642041892,0.8946373462677002,1.0,-0.30883199003084044,2.0290026664733887,0.125,-3.8779723824716883,27.286699533462524,10.0,4.617857142857143,7.0,31.77570622435441,10.0
subject-01,1,84,1.30849099159241,clock,clock,False,false_clock_35_n04548280_4542.png,True,2.462538581242192,0.0144329033792018,1.0,-0.001547699182074418,1.4870636463165283,1.0,-0.6355244020481803,24.247401352971792,10.0,10.0,2.0,16.45510435077363,10.0
subject-02,1,433,1.32027697563171,oven,clock,False,false_clock_35_n04548280_4542.png,False,2.6290888001306674,0.0144329033792018,1.0,-0.001547699182074418,1.4870636463165283,1.0,-0.6355244020481803,24.247401352971792,10.0,10.0,2.0,16.45510435077363,10.0
subject-03,1,341,0.872112035751343,chair,clock,False,false_clock_35_n04548280_4542.png,False,0.2826439973366034,0.0144329033792018,1.0,-0.001547699182074418,1.4870636463165283,1.0,-0.6355244020481803,24.247401352971792,10.0,10.0,2.0,16.45510435077363,10.0
subject-04,1,211,0.939136981964111,bottle,clock,False,false_clock_35_n04548280_4542.png,False,0.6154207035809456,0.0144329033792018,1.0,-0.001547699182074418,1.4870636463165283,1.0,-0.6355244020481803,24.247401352971792,10.0,10.0,2.0,16.45510435077363,10.0
subject-01,1,85,1.21600699424744,chair,car,True,true_car_35_n04285008_14161.png,False,1.9334986238473029,1.6929949522018433,1.0,-0.9347743918201351,1.945622205734253,0.0909090909090909,-4.486466311798557,27.66581380367279,10.0,2.7625874125874126,10.0,41.8888683272236,10.0
subject-02,1,957,0.873588085174561,boat,car,True,true_car_35_n04285008_14161.png,False,0.3103332307192906,1.6929949522018433,1.0,-0.9347743918201351,1.945622205734253,0.0909090909090909,-4.486466311798557,27.66581380367279,10.0,2.7625874125874126,10.0,41.8888683272236,10.0
subject-03,1,573,0.8626549243927,boat,car,True,true_car_35_n04285008_14161.png,False,0.24104516645679122,1.6929949522018433,1.0,-0.9347743918201351,1.945622205734253,0.0909090909090909,-4.486466311798557,27.66581380367279,10.0,2.7625874125874126,10.0,41.8888683272236,10.0
subject-04,1,359,1.06121611595154,chair,car,True,true_car_35_n04285008_14161.png,False,1.1922974265517186,1.6929949522018433,1.0,-0.9347743918201351,1.945622205734253,0.0909090909090909,-4.486466311798557,27.66581380367279,10.0,2.7625874125874126,10.0,41.8888683272236,10.0
subject-01,1,86,0.77180290222168,airplane,airplane,False,false_airplane_35_n02690373_7279.png,True,-0.6075000425855045,0.000219026900595,1.0,-1.5795355611562184e-05,1.9767112731933592,1.0,-1.3817628890428613,24.182984749175375,10.0,10.083333333333332,0.0,16.0228301949406,9.0
subject-02,1,379,1.0666720867157,airplane,airplane,False,false_airplane_35_n02690373_7279.png,True,1.3126294899335105,0.000219026900595,1.0,-1.5795355611562184e-05,1.9767112731933592,1.0,-1.3817628890428613,24.182984749175375,10.0,10.083333333333332,0.0,16.0228301949406,9.0
subject-03,1,274,1.19951701164246,airplane,airplane,False,false_airplane_35_n02690373_7279.png,True,1.7227945575662145,0.000219026900595,1.0,-1.5795355611562184e-05,1.9767112731933592,1.0,-1.3817628890428613,24.182984749175375,10.0,10.083333333333332,0.0,16.0228301949406,9.0
subject-04,1,1032,0.767779111862183,airplane,airplane,False,false_airplane_35_n02690373_7279.png,True,-0.1943193669034242,0.000219026900595,1.0,-1.5795355611562184e-05,1.9767112731933592,1.0,-1.3817628890428613,24.182984749175375,10.0,10.083333333333332,0.0,16.0228301949406,9.0
subject-01,1,87,1.11171197891235,bear,bear,True,true_bear_35_n02132136_11640.png,True,1.336895621669906,0.0008358078775927,1.0,-6.956103976579952e-05,2.1349921226501465,0.1666666666666666,-2.980272984078318,26.18283525283914,10.0,3.6166666666666663,9.0,27.716985339871357,10.0
subject-02,1,422,0.790654182434082,bear,bear,True,true_bear_35_n02132136_11640.png,True,-0.12017545884247659,0.0008358078775927,1.0,-6.956103976579952e-05,2.1349921226501465,0.1666666666666666,-2.980272984078318,26.18283525283914,10.0,3.6166666666666663,9.0,27.716985339871357,10.0
subject-03,1,126,0.819309949874878,bear,bear,True,true_bear_35_n02132136_11640.png,True,0.05038438262148633,0.0008358078775927,1.0,-6.956103976579952e-05,2.1349921226501465,0.1666666666666666,-2.980272984078318,26.18283525283914,10.0,3.6166666666666663,9.0,27.716985339871357,10.0
subject-04,1,979,1.07775092124939,bear,bear,True,true_bear_35_n02132136_11640.png,True,1.270431535007679,0.0008358078775927,1.0,-6.956103976579952e-05,2.1349921226501465,0.1666666666666666,-2.980272984078318,26.18283525283914,10.0,3.6166666666666663,9.0,27.716985339871357,10.0
subject-01,1,88,0.763561964035034,airplane,airplane,True,true_airplane_35_n02690373_8350.png,True,-0.6546410152112327,0.0012290859594941,1.0,-0.00010550578679223079,1.859917998313904,0.5,-1.4609151105161893,24.359247603453696,9.0,7.25,0.0,18.252078020762827,9.0
subject-02,1,745,0.701654195785522,airplane,airplane,True,true_airplane_35_n02690373_8350.png,True,-0.5821731022306631,0.0012290859594941,1.0,-0.00010550578679223079,1.859917998313904,0.5,-1.4609151105161893,24.359247603453696,9.0,7.25,0.0,18.252078020762827,9.0
subject-03,1,769,0.604312181472778,airplane,airplane,True,true_airplane_35_n02690373_8350.png,True,-0.8953225534739868,0.0012290859594941,1.0,-0.00010550578679223079,1.859917998313904,0.5,-1.4609151105161893,24.359247603453696,9.0,7.25,0.0,18.252078020762827,9.0
subject-04,1,221,0.97747015953064,airplane,airplane,True,true_airplane_35_n02690373_8350.png,True,0.7965615515977172,0.0012290859594941,1.0,-0.00010550578679223079,1.859917998313904,0.5,-1.4609151105161893,24.359247603453696,9.0,7.25,0.0,18.252078020762827,9.0
subject-01,1,89,0.961244821548462,boat,boat,True,true_boat_35_n04273569_30568.png,True,0.4761722445844865,0.001407174160704,1.0,-0.0001272640143167202,1.9622654914855957,0.25,-1.8967896906294752,25.312327651074156,10.0,4.833333333333334,9.0,21.21665508485663,10.0
subject-02,1,1094,0.740776062011719,boat,boat,True,true_boat_35_n04273569_30568.png,True,-0.379092060512964,0.001407174160704,1.0,-0.0001272640143167202,1.9622654914855957,0.25,-1.8967896906294752,25.312327651074156,10.0,4.833333333333334,9.0,21.21665508485663,10.0
subject-03,1,631,0.47573709487915,boat,boat,True,true_boat_35_n04273569_30568.png,True,-1.4608835455920908,0.001407174160704,1.0,-0.0001272640143167202,1.9622654914855957,0.25,-1.8967896906294752,25.312327651074156,10.0,4.833333333333334,9.0,21.21665508485663,10.0
subject-04,1,1107,0.371353149414062,boat,boat,True,true_boat_35_n04273569_30568.png,True,-2.0676035445349235,0.001407174160704,1.0,-0.0001272640143167202,1.9622654914855957,0.25,-1.8967896906294752,25.312327651074156,10.0,4.833333333333334,9.0,21.21665508485663,10.0
subject-01,1,90,1.04914903640747,dog,dog,True,true_dog_35_n02100583_19533.png,True,0.9790142866555647,0.016824347898364,1.0,-0.0017349263941860596,1.9891133308410645,0.0909090909090909,-4.338050216781491,25.989091021940112,10.0,2.9686868686868686,9.0,33.768244095684985,10.0
subject-02,1,453,0.910415887832642,dog,dog,True,true_dog_35_n02100583_19533.png,True,0.5015058216364593,0.016824347898364,1.0,-0.0017349263941860596,1.9891133308410645,0.0909090909090909,-4.338050216781491,25.989091021940112,10.0,2.9686868686868686,9.0,33.768244095684985,10.0
subject-03,1,667,0.906870126724243,dog,dog,True,true_dog_35_n02100583_19533.png,True,0.43553380620676824,0.016824347898364,1.0,-0.0017349263941860596,1.9891133308410645,0.0909090909090909,-4.338050216781491,25.989091021940112,10.0,2.9686868686868686,9.0,33.768244095684985,10.0
subject-04,1,215,0.80878210067749,dog,dog,True,true_dog_35_n02100583_19533.png,True,-0.0005625057004499343,0.016824347898364,1.0,-0.0017349263941860596,1.9891133308410645,0.0909090909090909,-4.338050216781491,25.989091021940112,10.0,2.9686868686868686,9.0,33.768244095684985,10.0
subject-01,1,91,0.850750923156738,knife,knife,True,true_knife_35_n03041632_965.png,True,-0.15589047951588272,8.650740710436366e-06,1.0,-4.768372718899988e-07,1.4868110418319702,0.1666666666666666,-4.418252798464785,23.101561613997546,10.0,3.8464646464646464,8.0,35.77191132136056,6.0
subject-02,1,572,0.797499895095825,knife,knife,True,true_knife_35_n03041632_965.png,True,-0.08463946343242468,8.650740710436366e-06,1.0,-4.768372718899988e-07,1.4868110418319702,0.1666666666666666,-4.418252798464785,23.101561613997546,10.0,3.8464646464646464,8.0,35.77191132136056,6.0
subject-03,1,790,0.590354919433594,knife,knife,True,true_knife_35_n03041632_965.png,True,-0.9567161187070548,8.650740710436366e-06,1.0,-4.768372718899988e-07,1.4868110418319702,0.1666666666666666,-4.418252798464785,23.101561613997546,10.0,3.8464646464646464,8.0,35.77191132136056,6.0
subject-04,1,190,0.775116920471191,knife,knife,True,true_knife_35_n03041632_965.png,True,-0.15964504668267987,8.650740710436366e-06,1.0,-4.768372718899988e-07,1.4868110418319702,0.1666666666666666,-4.418252798464785,23.101561613997546,10.0,3.8464646464646464,8.0,35.77191132136056,6.0
