subject_id,Session,trial,rt,object_response,category,condition,item_id,response_correct,rt_zscore,output_entropy,output_rank_correct,output_logprob_correct,midpoint_entropy,midpoint_rank_correct,midpoint_logprob_correct,auc_entropy,layer_biggest_change_entropy,auc_rank_correct,layer_biggest_change_rank_correct,auc_logprob_correct,layer_biggest_change_logprob_correct
subject-04,1,1,1.03202104568481,boat,chair,0.45,0.45_chair_10_n04429376_694.png,False,-0.12754140506929082,2.2611584663391113,0.5,-1.7541906318891685,2.5727081298828125,0.0833333333333333,-3.2767304752579625,30.70803427696228,10.0,1.7976190476190474,10.0,32.42154161548788,6.0
subject-03,1,323,0.862236976623535,clock,chair,0.45,0.45_chair_10_n04429376_694.png,False,-0.502406633079731,2.2611584663391113,0.5,-1.7541906318891685,2.5727081298828125,0.0833333333333333,-3.2767304752579625,30.70803427696228,10.0,1.7976190476190474,10.0,32.42154161548788,6.0
subject-02,1,770,0.98894190788269,elephant,chair,0.45,0.45_chair_10_n04429376_694.png,False,0.3455862489438006,2.2611584663391113,0.5,-1.7541906318891685,2.5727081298828125,0.0833333333333333,-3.2767304752579625,30.70803427696228,10.0,1.7976190476190474,10.0,32.42154161548788,6.0
subject-01,1,243,0.827551126480103,bird,chair,0.45,0.45_chair_10_n04429376_694.png,False,-0.05794645445824784,2.2611584663391113,0.5,-1.7541906318891685,2.5727081298828125,0.0833333333333333,-3.2767304752579625,30.70803427696228,10.0,1.7976190476190474,10.0,32.42154161548788,6.0
subject-04,1,2,0.95622992515564,truck,truck,1.5,1.5_truck_10_n04467665_38886.png,True,-0.44587809636837006,2.5216598510742188,1.0,-1.5100921907917837,2.5085926055908203,0.1666666666666666,-2.7612950712116864,30.79068398475647,10.0,2.4428571428571426,10.0,30.99083146256986,10.0
subject-03,1,636,0.86385703086853,truck,truck,1.5,1.5_truck_10_n04467665_38886.png,True,-0.49510850213421165,2.5216598510742188,1.0,-1.5100921907917837,2.5085926055908203,0.1666666666666666,-2.7612950712116864,30.79068398475647,10.0,2.4428571428571426,10.0,30.99083146256986,10.0
subject-02,1,548,0.819823980331421,truck,truck,1.5,1.5_truck_10_n04467665_38886.png,True,-0.42019707402990175,2.5216598510742188,1.0,-1.5100921907917837,2.5085926055908203,0.1666666666666666,-2.7612950712116864,30.79068398475647,10.0,2.4428571428571426,10.0,30.99083146256986,10.0
subject-01,1,257,0.983031034469604,truck,truck,1.5,1.5_truck_10_n04467665_38886.png,True,0.6114592204555905,2.5216598510742188,1.0,-1.5100921907917837,2.5085926055908203,0.1666666666666666,-2.7612950712116864,30.79068398475647,10.0,2.4428571428571426,10.0,30.99083146256986,10.0
subject-04,1,3,0.958188056945801,clock,bird,0.45,0.45_bird_10_n01797886_3046.png,False,-0.437653581532658,1.1084473133087158,1.0,-0.2647446590750567,2.591730833053589,0.0666666666666666,-3.4480510324702993,29.539191246032715,10.0,3.4508658008658006,8.0,33.75428678701462,10.0
subject-03,1,608,1.16512203216553,truck,bird,0.45,0.45_bird_10_n01797886_3046.png,False,0.8620506396415193,1.1084473133087158,1.0,-0.2647446590750567,2.591730833053589,0.0666666666666666,-3.4480510324702993,29.539191246032715,10.0,3.4508658008658006,8.0,33.75428678701462,10.0
subject-02,1,325,0.656240940093994,bear,bird,0.45,0.45_bird_10_n01797886_3046.png,False,-1.1609178595136387,1.1084473133087158,1.0,-0.2647446590750567,2.591730833053589,0.0666666666666666,-3.4480510324702993,29.539191246032715,10.0,3.4508658008658006,8.0,33.75428678701462,10.0
subject-01,1,1052,0.626415014266968,bicycle,bird,0.45,0.45_bird_10_n01797886_3046.png,False,-0.9239210790037612,1.1084473133087158,1.0,-0.2647446590750567,2.591730833053589,0.0666666666666666,-3.4480510324702993,29.539191246032715,10.0,3.4508658008658006,8.0,33.75428678701462,10.0
subject-04,1,4,0.917410850524902,dog,dog,1.0,1_dog_10_n02105505_7816.png,True,-0.6089253727638293,1.0091419219970703,1.0,-0.21465574870271023,2.5258097648620605,0.125,-3.1881961566551396,28.025150895118713,9.0,2.471897546897547,9.0,31.384018960839583,9.0
subject-03,1,16,1.00289916992188,dog,dog,1.0,1_dog_10_n02105505_7816.png,True,0.1312580166977438,1.0091419219970703,1.0,-0.21465574870271023,2.5258097648620605,0.125,-3.1881961566551396,28.025150895118713,9.0,2.471897546897547,9.0,31.384018960839583,9.0
subject-02,1,205,1.15205812454224,dog,dog,1.0,1_dog_10_n02105505_7816.png,True,1.0841932093831723,1.0091419219970703,1.0,-0.21465574870271023,2.5258097648620605,0.125,-3.1881961566551396,28.025150895118713,9.0,2.471897546897547,9.0,31.384018960839583,9.0
subject-01,1,1212,,na,dog,1.0,1_dog_10_n02105505_7816.png,False,,1.0091419219970703,1.0,-0.21465574870271023,2.5258097648620605,0.125,-3.1881961566551396,28.025150895118713,9.0,2.471897546897547,9.0,31.384018960839583,9.0
subject-04,1,5,0.845407962799072,bicycle,bicycle,0.7,0.7_bicycle_10_n02835271_4656.png,True,-0.9113507872792149,0.1410117000341415,1.0,-0.018895221034799098,2.5507359504699707,0.5,-2.190072282038533,27.91016434133053,10.0,5.0095238095238095,8.0,23.80468404166862,9.0
subject-03,1,740,0.981725931167603,bicycle,bicycle,0.7,0.7_bicycle_10_n02835271_4656.png,True,0.035875365501434595,0.1410117000341415,1.0,-0.018895221034799098,2.5507359504699707,0.5,-2.190072282038533,27.91016434133053,10.0,5.0095238095238095,8.0,23.80468404166862,9.0
subject-02,1,63,1.32492804527283,bicycle,bicycle,0.7,0.7_bicycle_10_n02835271_4656.png,True,1.866965942327997,0.1410117000341415,1.0,-0.018895221034799098,2.5507359504699707,0.5,-2.190072282038533,27.91016434133053,10.0,5.0095238095238095,8.0,23.80468404166862,9.0
subject-01,1,435,1.05505299568176,boat,bicycle,0.7,0.7_bicycle_10_n02835271_4656.png,False,0.9215437206155541,0.1410117000341415,1.0,-0.018895221034799098,2.5507359504699707,0.5,-2.190072282038533,27.91016434133053,10.0,5.0095238095238095,8.0,23.80468404166862,9.0
subject-04,1,6,0.875,car,car,1.0,1_car_10_n04285008_5788.png,True,-0.7870587706739575,0.4377424120903015,1.0,-0.07870386575482032,2.5080394744873047,0.1,-3.120757679660077,27.84432953596115,10.0,2.2543761793761794,9.0,35.905763526306366,9.0
subject-03,1,122,0.982913970947266,car,car,1.0,1_car_10_n04285008_5788.png,True,0.041227328194815296,0.4377424120903015,1.0,-0.07870386575482032,2.5080394744873047,0.1,-3.120757679660077,27.84432953596115,10.0,2.2543761793761794,9.0,35.905763526306366,9.0
subject-02,1,749,0.879189014434814,car,car,1.0,1_car_10_n04285008_5788.png,True,-0.15138611032907356,0.4377424120903015,1.0,-0.07870386575482032,2.5080394744873047,0.1,-3.120757679660077,27.84432953596115,10.0,2.2543761793761794,9.0,35.905763526306366,9.0
subject-01,1,1224,0.569567918777466,car,car,1.0,1_car_10_n04285008_5788.png,True,-1.1686714703251344,0.4377424120903015,1.0,-0.07870386575482032,2.5080394744873047,0.1,-3.120757679660077,27.84432953596115,10.0,2.2543761793761794,9.0,35.905763526306366,9.0
subject-04,1,7,1.25690698623657,cat,bear,0.45,0.45_bear_10_n02134418_7067.png,False,0.8170210414956178,2.373647689819336,0.1666666666666666,-2.9981026367415544,2.55263614654541,0.5,-2.162228299592065,30.802293062210083,9.0,3.5555555555555554,4.0,28.79841336701659,4.0
subject-03,1,76,0.725682020187378,bear,bear,0.45,0.45_bear_10_n02134418_7067.png,True,-1.117568721886104,2.373647689819336,0.1666666666666666,-2.9981026367415544,2.55263614654541,0.5,-2.162228299592065,30.802293062210083,9.0,3.5555555555555554,4.0,28.79841336701659,4.0
subject-02,1,299,0.53410005569458,bear,bear,0.45,0.45_bear_10_n02134418_7067.png,True,-1.7139843124949468,2.373647689819336,0.1666666666666666,-2.9981026367415544,2.55263614654541,0.5,-2.162228299592065,30.802293062210083,9.0,3.5555555555555554,4.0,28.79841336701659,4.0
subject-01,1,1177,0.635467052459717,cat,bear,0.45,0.45_bear_10_n02134418_7067.png,False,-0.8849482894381012,2.373647689819336,0.1666666666666666,-2.9981026367415544,2.55263614654541,0.5,-2.162228299592065,30.802293062210083,9.0,3.5555555555555554,4.0,28.79841336701659,4.0
subject-04,1,8,1.30092215538025,car,dog,0.55,0.55_dog_10_n02109525_13146.png,False,1.0018928736355803,2.270937919616699,0.1428571428571428,-3.4064377676776956,2.563502550125122,0.1111111111111111,-3.077831987896237,30.545398712158203,9.0,0.49134199134199125,10.0,37.816671915350916,6.0
subject-03,1,873,1.49195694923401,car,dog,0.55,0.55_dog_10_n02109525_13146.png,False,2.334398883351757,2.270937919616699,0.1428571428571428,-3.4064377676776956,2.563502550125122,0.1111111111111111,-3.077831987896237,30.545398712158203,9.0,0.49134199134199125,10.0,37.816671915350916,6.0
subject-02,1,364,1.15280389785767,truck,dog,0.55,0.55_dog_10_n02109525_13146.png,False,1.087570147452035,2.270937919616699,0.1428571428571428,-3.4064377676776956,2.563502550125122,0.1111111111111111,-3.077831987896237,30.545398712158203,9.0,0.49134199134199125,10.0,37.816671915350916,6.0
subject-01,1,1097,0.689648866653442,clock,dog,0.55,0.55_dog_10_n02109525_13146.png,False,-0.6516730427042542,2.270937919616699,0.1428571428571428,-3.4064377676776956,2.563502550125122,0.1111111111111111,-3.077831987896237,30.545398712158203,9.0,0.49134199134199125,10.0,37.816671915350916,6.0
subject-04,1,9,0.89652681350708,bear,bear,3.0,3_bear_10_n02134418_47.png,True,-0.696642181788473,2.434126853942871,1.0,-1.6123843939211364,2.534420967102051,0.5,-2.0893706189346295,30.783865213394165,10.0,6.999999999999999,8.0,24.0714915608713,10.0
subject-03,1,460,0.738322973251343,cat,bear,3.0,3_bear_10_n02134418_47.png,False,-1.060622893669553,2.434126853942871,1.0,-1.6123843939211364,2.534420967102051,0.5,-2.0893706189346295,30.783865213394165,10.0,6.999999999999999,8.0,24.0714915608713,10.0
subject-02,1,422,1.10340118408203,dog,bear,3.0,3_bear_10_n02134418_47.png,False,0.8638695920655608,2.434126853942871,1.0,-1.6123843939211364,2.534420967102051,0.5,-2.0893706189346295,30.783865213394165,10.0,6.999999999999999,8.0,24.0714915608713,10.0
subject-01,1,329,0.782505035400391,elephant,bear,3.0,3_bear_10_n02134418_47.png,False,-0.2518886132321072,2.434126853942871,1.0,-1.6123843939211364,2.534420967102051,0.5,-2.0893706189346295,30.783865213394165,10.0,6.999999999999999,8.0,24.0714915608713,10.0
subject-04,1,10,0.854450941085815,car,oven,0.55,0.55_oven_10_n04111531_2371.png,False,-0.8733686098527284,2.416719913482666,1.0,-1.5671958803875365,2.526487350463867,0.0625,-5.673259634020079,30.692795753479004,10.0,1.224679487179487,10.0,43.452532466353716,6.0
subject-03,1,310,1.3865978717804,airplane,oven,0.55,0.55_oven_10_n04111531_2371.png,False,1.8597701195735863,2.416719913482666,1.0,-1.5671958803875365,2.526487350463867,0.0625,-5.673259634020079,30.692795753479004,10.0,1.224679487179487,10.0,43.452532466353716,6.0
subject-02,1,581,0.923257112503052,bear,oven,0.55,0.55_oven_10_n04111531_2371.png,False,0.04815875794395918,2.416719913482666,1.0,-1.5671958803875365,2.526487350463867,0.0625,-5.673259634020079,30.692795753479004,10.0,1.224679487179487,10.0,43.452532466353716,6.0
subject-01,1,634,1.22110199928284,bird,oven,0.55,0.55_oven_10_n04111531_2371.png,False,1.6364537482948676,2.416719913482666,1.0,-1.5671958803875365,2.526487350463867,0.0625,-5.673259634020079,30.692795753479004,10.0,1.224679487179487,10.0,43.452532466353716,6.0
subject-04,1,11,0.950107097625732,bird,bird,1.5,1.5_bird_10_n01843065_6365.png,True,-0.4715951017861177,0.7074640989303589,1.0,-0.13310028853304273,2.6172661781311035,0.0714285714285714,-3.4369920185234446,27.706348299980164,9.0,3.1414835164835164,8.0,33.192498220515766,9.0
subject-03,1,3,0.76135778427124,bird,bird,1.5,1.5_bird_10_n01843065_6365.png,True,-0.9568541046627268,0.7074640989303589,1.0,-0.13310028853304273,2.6172661781311035,0.0714285714285714,-3.4369920185234446,27.706348299980164,9.0,3.1414835164835164,8.0,33.192498220515766,9.0
subject-02,1,677,0.84082818031311,bird,bird,1.5,1.5_bird_10_n01843065_6365.png,True,-0.32508790203803334,0.7074640989303589,1.0,-0.13310028853304273,2.6172661781311035,0.0714285714285714,-3.4369920185234446,27.706348299980164,9.0,3.1414835164835164,8.0,33.192498220515766,9.0
subject-01,1,415,0.686517953872681,bird,bird,1.5,1.5_bird_10_n01843065_6365.png,True,-0.6651529245115115,0.7074640989303589,1.0,-0.13310028853304273,2.6172661781311035,0.0714285714285714,-3.4369920185234446,27.706348299980164,9.0,3.1414835164835164,8.0,33.192498220515766,9.0
subject-04,1,12,1.22811484336853,car,boat,0.4,0.4_boat_10_n03344393_4509.png,False,0.696088728686037,2.0567994117736816,0.3333333333333333,-2.375329784360207,2.5237960815429688,0.3333333333333333,-2.349078197493931,30.183493614196777,10.0,1.9678571428571425,3.0,31.734743763662802,10.0
subject-03,1,709,1.40775609016418,car,boat,0.4,0.4_boat_10_n03344393_4509.png,False,1.9550851059796102,2.0567994117736816,0.3333333333333333,-2.375329784360207,2.5237960815429688,0.3333333333333333,-2.349078197493931,30.183493614196777,10.0,1.9678571428571425,3.0,31.734743763662802,10.0
subject-02,1,855,1.14644598960876,bear,boat,0.4,0.4_boat_10_n03344393_4509.png,False,1.0587808867479251,2.0567994117736816,0.3333333333333333,-2.375329784360207,2.5237960815429688,0.3333333333333333,-2.349078197493931,30.183493614196777,10.0,1.9678571428571425,3.0,31.734743763662802,10.0
subject-01,1,806,0.52849292755127,boat,boat,0.4,0.4_boat_10_n03344393_4509.png,True,-1.3455163924723,2.0567994117736816,0.3333333333333333,-2.375329784360207,2.5237960815429688,0.3333333333333333,-2.349078197493931,30.183493614196777,10.0,1.9678571428571425,3.0,31.734743763662802,10.0
subject-04,1,13,0.935755014419556,bear,bear,1.0,1_bear_10_n02132136_10559.png,True,-0.531876499517198,0.2167605757713318,1.0,-0.03256734740717811,2.508542537689209,0.25,-2.183866199138503,27.936709105968475,10.0,6.283333333333333,8.0,22.572226124068003,9.0
subject-03,1,615,0.915692090988159,bear,bear,1.0,1_bear_10_n02132136_10559.png,True,-0.2615983851176768,0.2167605757713318,1.0,-0.03256734740717811,2.508542537689209,0.25,-2.183866199138503,27.936709105968475,10.0,6.283333333333333,8.0,22.572226124068003,9.0
subject-02,1,617,0.648437976837158,bear,bear,1.0,1_bear_10_n02132136_10559.png,True,-1.19625047751802,0.2167605757713318,1.0,-0.03256734740717811,2.508542537689209,0.25,-2.183866199138503,27.936709105968475,10.0,6.283333333333333,8.0,22.572226124068003,9.0
subject-01,1,1026,0.837363004684448,bear,bear,1.0,1_bear_10_n02132136_10559.png,True,-0.0157022375913618,0.2167605757713318,1.0,-0.03256734740717811,2.508542537689209,0.25,-2.183866199138503,27.936709105968475,10.0,6.283333333333333,8.0,22.572226124068003,9.0
subject-04,1,14,0.839622974395752,keyboard,keyboard,inf,inf_keyboard_10_n04505470_4138.png,True,-0.9356488060267764,0.0240173749625682,1.0,-0.002494583038215919,2.5992496013641357,0.1666666666666666,-2.439706028000129,22.781846242258325,9.0,5.906818181818181,5.0,21.118267357123976,5.0
subject-03,1,527,1.06654906272888,keyboard,keyboard,inf,inf_keyboard_10_n04505470_4138.png,True,0.4179923984685132,0.0240173749625682,1.0,-0.002494583038215919,2.5992496013641357,0.1666666666666666,-2.439706028000129,22.781846242258325,9.0,5.906818181818181,5.0,21.118267357123976,5.0
subject-02,1,412,0.781460046768188,keyboard,keyboard,inf,inf_keyboard_10_n04505470_4138.png,True,-0.5939129003280254,0.0240173749625682,1.0,-0.002494583038215919,2.5992496013641357,0.1666666666666666,-2.439706028000129,22.781846242258325,9.0,5.906818181818181,5.0,21.118267357123976,5.0
subject-01,1,834,0.823627948760986,keyboard,keyboard,inf,inf_keyboard_10_n04505470_4138.png,True,-0.07483736636340395,0.0240173749625682,1.0,-0.002494583038215919,2.5992496013641357,0.1666666666666666,-2.439706028000129,22.781846242258325,9.0,5.906818181818181,5.0,21.118267357123976,5.0
subject-04,1,15,0.999476909637451,boat,truck,1.0,1_truck_10_n04467665_56754.png,False,-0.2642327815546944,1.8732211589813232,1.0,-0.6982650346594302,2.5160715579986572,0.2,-2.5514534307895924,30.13931131362915,10.0,2.6440476190476185,10.0,29.080980814395584,10.0
subject-03,1,341,1.10072588920593,boat,truck,1.0,1_truck_10_n04467665_56754.png,False,0.5719544992453119,1.8732211589813232,1.0,-0.6982650346594302,2.5160715579986572,0.2,-2.5514534307895924,30.13931131362915,10.0,2.6440476190476185,10.0,29.080980814395584,10.0
subject-02,1,1161,1.00044798851013,boat,truck,1.0,1_truck_10_n04467665_56754.png,False,0.39768696224406996,1.8732211589813232,1.0,-0.6982650346594302,2.5160715579986572,0.2,-2.5514534307895924,30.13931131362915,10.0,2.6440476190476185,10.0,29.080980814395584,10.0
subject-01,1,1139,1.25453400611877,car,truck,1.0,1_truck_10_n04467665_56754.png,False,1.7803924435842997,1.8732211589813232,1.0,-0.6982650346594302,2.5160715579986572,0.2,-2.5514534307895924,30.13931131362915,10.0,2.6440476190476185,10.0,29.080980814395584,10.0
subject-04,1,16,0.98955512046814,bear,bear,1.0,1_bear_10_n02132136_11125.png,True,-0.3059061268472987,0.4780462384223938,1.0,-0.08520676879406881,2.549403667449951,0.5,-2.204836541789668,28.217779219150543,10.0,6.449999999999999,8.0,23.044199672205046,9.0
subject-03,1,865,0.857490062713623,bear,bear,1.0,1_bear_10_n02132136_11125.png,True,-0.5237908548788915,0.4780462384223938,1.0,-0.08520676879406881,2.549403667449951,0.5,-2.204836541789668,28.217779219150543,10.0,6.449999999999999,8.0,23.044199672205046,9.0
subject-02,1,570,1.10948896408081,bear,bear,1.0,1_bear_10_n02132136_11125.png,True,0.8914356843450765,0.4780462384223938,1.0,-0.08520676879406881,2.549403667449951,0.5,-2.204836541789668,28.217779219150543,10.0,6.449999999999999,8.0,23.044199672205046,9.0
subject-01,1,713,1.00895094871521,dog,bear,1.0,1_bear_10_n02132136_11125.png,False,0.7230552325297698,0.4780462384223938,1.0,-0.08520676879406881,2.549403667449951,0.5,-2.204836541789668,28.217779219150543,10.0,6.449999999999999,8.0,23.044199672205046,9.0
subject-04,1,17,1.3389949798584,truck,keyboard,0.55,0.55_keyboard_10_n03085013_21301.png,False,1.1618057616911173,2.183561325073242,0.0769230769230769,-4.057121323958293,2.509897232055664,0.0769230769230769,-3.3421506240086467,30.40965223312378,10.0,0.8793151293151291,6.0,37.86613452444367,6.0
subject-03,1,271,0.618037939071655,cat,keyboard,0.55,0.55_keyboard_10_n03085013_21301.png,False,-1.6024911261325563,2.183561325073242,0.0769230769230769,-4.057121323958293,2.509897232055664,0.0769230769230769,-3.3421506240086467,30.40965223312378,10.0,0.8793151293151291,6.0,37.86613452444367,6.0
subject-02,1,450,0.920172929763794,truck,keyboard,0.55,0.55_keyboard_10_n03085013_21301.png,False,0.03419326214511102,2.183561325073242,0.0769230769230769,-4.057121323958293,2.509897232055664,0.0769230769230769,-3.3421506240086467,30.40965223312378,10.0,0.8793151293151291,6.0,37.86613452444367,6.0
subject-01,1,1166,0.867388963699341,truck,keyboard,0.55,0.55_keyboard_10_n03085013_21301.png,False,0.11357200510150726,2.183561325073242,0.0769230769230769,-4.057121323958293,2.509897232055664,0.0769230769230769,-3.3421506240086467,30.40965223312378,10.0,0.8793151293151291,6.0,37.86613452444367,6.0
subject-04,1,18,1.2872838973999,truck,bear,0.45,0.45_bear_10_n02134418_2157.png,False,0.9446096735689321,1.6243751049041748,0.5,-2.203213669511891,2.5613012313842773,0.25,-2.4011202582348496,29.934942483901978,10.0,3.761904761904762,9.0,28.24244378586416,9.0
subject-03,1,638,1.06155395507812,clock,bear,0.45,0.45_bear_10_n02134418_2157.png,False,0.39549009656421774,1.6243751049041748,0.5,-2.203213669511891,2.5613012313842773,0.25,-2.4011202582348496,29.934942483901978,10.0,3.761904761904762,9.0,28.24244378586416,9.0
subject-02,1,435,0.876877784729004,bottle,bear,0.45,0.45_bear_10_n02134418_2157.png,False,-0.16185159550795358,1.6243751049041748,0.5,-2.203213669511891,2.5613012313842773,0.25,-2.4011202582348496,29.934942483901978,10.0,3.761904761904762,9.0,28.24244378586416,9.0
subject-01,1,502,0.620563983917236,car,bear,0.45,0.45_bear_10_n02134418_2157.png,False,-0.9491121983634935,1.6243751049041748,0.5,-2.203213669511891,2.5613012313842773,0.25,-2.4011202582348496,29.934942483901978,10.0,3.761904761904762,9.0,28.24244378586416,9.0
subject-04,1,19,0.924682140350342,elephant,elephant,inf,inf_elephant_10_n02504458_12303.png,True,-0.5783846137890843,0.0238008666783571,1.0,-0.0024621971552794344,2.397315740585327,0.5,-2.024193804014027,23.35777385113761,9.0,8.333333333333332,1.0,18.543836046777948,0.0
subject-03,1,29,0.818405866622925,elephant,elephant,inf,inf_elephant_10_n02504458_12303.png,True,-0.6998600092615261,0.0238008666783571,1.0,-0.0024621971552794344,2.397315740585327,0.5,-2.024193804014027,23.35777385113761,9.0,8.333333333333332,1.0,18.543836046777948,0.0
subject-02,1,1249,0.829241991043091,elephant,elephant,inf,inf_elephant_10_n02504458_12303.png,True,-0.37755135548892566,0.0238008666783571,1.0,-0.0024621971552794344,2.397315740585327,0.5,-2.024193804014027,23.35777385113761,9.0,8.333333333333332,1.0,18.543836046777948,0.0
subject-01,1,18,0.828555107116699,elephant,elephant,inf,inf_elephant_10_n02504458_12303.png,True,-0.05362390021743647,0.0238008666783571,1.0,-0.0024621971552794344,2.397315740585327,0.5,-2.024193804014027,23.35777385113761,9.0,8.333333333333332,1.0,18.543836046777948,0.0
subject-04,1,20,0.848499059677124,bird,bird,3.0,3_bird_10_n02037110_11362.png,True,-0.8983676100181628,0.5390557050704956,1.0,-0.09466428005358558,2.571789264678955,0.0666666666666666,-3.562248649613387,28.31807553768158,10.0,3.8781135531135527,7.0,33.34357012998044,9.0
subject-03,1,14,0.899348020553589,bird,bird,3.0,3_bird_10_n02037110_11362.png,True,-0.3352262692350078,0.5390557050704956,1.0,-0.09466428005358558,2.571789264678955,0.0666666666666666,-3.562248649613387,28.31807553768158,10.0,3.8781135531135527,7.0,33.34357012998044,9.0
subject-02,1,463,1.07577180862427,bird,bird,3.0,3_bird_10_n02037110_11362.png,True,0.7387609459504573,0.5390557050704956,1.0,-0.09466428005358558,2.571789264678955,0.0666666666666666,-3.562248649613387,28.31807553768158,10.0,3.8781135531135527,7.0,33.34357012998044,9.0
subject-01,1,748,1.1623809337616,bird,bird,3.0,3_bird_10_n02037110_11362.png,True,1.3836351365192565,0.5390557050704956,1.0,-0.09466428005358558,2.571789264678955,0.0666666666666666,-3.562248649613387,28.31807553768158,10.0,3.8781135531135527,7.0,33.34357012998044,9.0
subject-04,1,21,0.964359998703003,knife,knife,3.0,3_knife_10_n03041632_41493.png,True,-0.41173028729765404,0.0234645809978246,1.0,-0.0026231211185163313,2.6083035469055176,0.1111111111111111,-3.008580492978356,26.791410943493247,9.0,3.99563492063492,9.0,25.354115232593816,9.0
subject-03,1,1055,1.15745496749878,knife,knife,3.0,3_knife_10_n03041632_41493.png,True,0.8275115233874961,0.0234645809978246,1.0,-0.0026231211185163313,2.6083035469055176,0.1111111111111111,-3.008580492978356,26.791410943493247,9.0,3.99563492063492,9.0,25.354115232593816,9.0
subject-02,1,537,1.13962197303772,knife,knife,3.0,3_knife_10_n03041632_41493.png,True,1.0278810397508382,0.0234645809978246,1.0,-0.0026231211185163313,2.6083035469055176,0.1111111111111111,-3.008580492978356,26.791410943493247,9.0,3.99563492063492,9.0,25.354115232593816,9.0
subject-01,1,546,1.02837204933167,knife,knife,3.0,3_knife_10_n03041632_41493.png,True,0.8066711487844206,0.0234645809978246,1.0,-0.0026231211185163313,2.6083035469055176,0.1111111111111111,-3.008580492978356,26.791410943493247,9.0,3.99563492063492,9.0,25.354115232593816,9.0
subject-04,1,22,1.18805813789368,keyboard,keyboard,1.0,1_keyboard_10_n04505470_1724.png,True,0.5278431743760473,0.0654906332492828,1.0,-0.007977271558275016,2.47745132446289,0.125,-2.9037228647897115,26.19492396712303,9.0,5.0197552447552445,6.0,27.740455380783857,9.0
subject-03,1,93,0.960341930389404,chair,keyboard,1.0,1_keyboard_10_n04505470_1724.png,False,-0.0604567408465627,0.0654906332492828,1.0,-0.007977271558275016,2.47745132446289,0.125,-2.9037228647897115,26.19492396712303,9.0,5.0197552447552445,6.0,27.740455380783857,9.0
subject-02,1,1166,0.79985523223877,keyboard,keyboard,1.0,1_keyboard_10_n04505470_1724.png,True,-0.5106176136582585,0.0654906332492828,1.0,-0.007977271558275016,2.47745132446289,0.125,-2.9037228647897115,26.19492396712303,9.0,5.0197552447552445,6.0,27.740455380783857,9.0
subject-01,1,132,1.03682088851929,keyboard,keyboard,1.0,1_keyboard_10_n04505470_1724.png,True,0.8430469157356669,0.0654906332492828,1.0,-0.007977271558275016,2.47745132446289,0.125,-2.9037228647897115,26.19492396712303,9.0,5.0197552447552445,6.0,27.740455380783857,9.0
subject-04,1,23,0.841925859451294,airplane,airplane,1.5,1.5_airplane_10_n02690373_787.png,True,-0.9259762638621413,0.018513236194849,1.0,-0.001859007615595757,2.5482916831970215,1.0,-1.5985635117074688,25.033646758645773,9.0,7.877777777777777,3.0,20.39555069958773,9.0
subject-03,1,665,1.27392101287842,airplane,airplane,1.5,1.5_airplane_10_n02690373_787.png,True,1.3521757144251412,0.018513236194849,1.0,-0.001859007615595757,2.5482916831970215,1.0,-1.5985635117074688,25.033646758645773,9.0,7.877777777777777,3.0,20.39555069958773,9.0
subject-02,1,402,0.831317901611328,airplane,airplane,1.5,1.5_airplane_10_n02690373_787.png,True,-0.36815141950248914,0.018513236194849,1.0,-0.001859007615595757,2.5482916831970215,1.0,-1.5985635117074688,25.033646758645773,9.0,7.877777777777777,3.0,20.39555069958773,9.0
subject-01,1,1002,0.704065799713135,airplane,airplane,1.5,1.5_airplane_10_n02690373_787.png,True,-0.5896021492376653,0.018513236194849,1.0,-0.001859007615595757,2.5482916831970215,1.0,-1.5985635117074688,25.033646758645773,9.0,7.877777777777777,3.0,20.39555069958773,9.0
subject-04,1,24,1.06973218917847,bicycle,elephant,1.0,1_elephant_10_n02504458_3535.png,False,0.030852356113539814,2.5397279262542725,0.0666666666666666,-4.062927192791804,2.4553754329681396,0.2,-2.644828376238601,30.6691951751709,5.0,2.6310897435897433,1.0,35.165728770290016,0.0
subject-03,1,1116,0.638066053390503,boat,elephant,1.0,1_elephant_10_n02504458_3535.png,False,-1.5122671096575808,2.5397279262542725,0.0666666666666666,-4.062927192791804,2.4553754329681396,0.2,-2.644828376238601,30.6691951751709,5.0,2.6310897435897433,1.0,35.165728770290016,0.0
subject-02,1,452,1.17213916778564,oven,elephant,1.0,1_elephant_10_n02504458_3535.png,False,1.1751222329726296,2.5397279262542725,0.0666666666666666,-4.062927192791804,2.4553754329681396,0.2,-2.644828376238601,30.6691951751709,5.0,2.6310897435897433,1.0,35.165728770290016,0.0
subject-01,1,94,0.843881130218506,clock,elephant,1.0,1_elephant_10_n02504458_3535.png,False,0.012361004011494174,2.5397279262542725,0.0666666666666666,-4.062927192791804,2.4553754329681396,0.2,-2.644828376238601,30.6691951751709,5.0,2.6310897435897433,1.0,35.165728770290016,0.0
subject-04,1,25,0.755546092987061,chair,knife,0.55,0.55_knife_10_n03041632_20217.png,False,-1.2887872219192646,2.0009090900421143,0.3333333333333333,-1.9369250180815298,2.559999465942383,0.1,-3.2782563327401553,30.4238018989563,10.0,3.1178571428571424,9.0,29.158080564337755,9.0
subject-03,1,711,0.791339159011841,boat,knife,0.55,0.55_knife_10_n03041632_20217.png,False,-0.8217919612440254,2.0009090900421143,0.3333333333333333,-1.9369250180815298,2.559999465942383,0.1,-3.2782563327401553,30.4238018989563,10.0,3.1178571428571424,9.0,29.158080564337755,9.0
subject-02,1,236,1.20676898956299,oven,knife,0.55,0.55_knife_10_n03041632_20217.png,False,1.3319296180832754,2.0009090900421143,0.3333333333333333,-1.9369250180815298,2.559999465942383,0.1,-3.2782563327401553,30.4238018989563,10.0,3.1178571428571424,9.0,29.158080564337755,9.0
subject-01,1,1179,0.713428974151611,airplane,knife,0.55,0.55_knife_10_n03041632_20217.png,False,-0.5492897887187276,2.0009090900421143,0.3333333333333333,-1.9369250180815298,2.559999465942383,0.1,-3.2782563327401553,30.4238018989563,10.0,3.1178571428571424,9.0,29.158080564337755,9.0
subject-04,1,26,0.987184047698975,car,oven,0.45,0.45_oven_10_n04111531_4955.png,False,-0.3158650699912361,1.850369930267334,0.0666666666666666,-4.924036786842432,2.552180767059326,0.0625,-5.879204995123529,30.27514958381653,10.0,0.2019230769230767,8.0,49.11819801496546,6.0
subject-03,1,606,0.783571004867554,bird,oven,0.45,0.45_oven_10_n04111531_4955.png,False,-0.8567864722766853,1.850369930267334,0.0666666666666666,-4.924036786842432,2.552180767059326,0.0625,-5.879204995123529,30.27514958381653,10.0,0.2019230769230767,8.0,49.11819801496546,6.0
subject-02,1,36,1.01380109786987,car,oven,0.45,0.45_oven_10_n04111531_4955.png,False,0.4581512111004363,1.850369930267334,0.0666666666666666,-4.924036786842432,2.552180767059326,0.0625,-5.879204995123529,30.27514958381653,10.0,0.2019230769230767,8.0,49.11819801496546,6.0
subject-01,1,245,0.565154075622559,truck,oven,0.45,0.45_oven_10_n04111531_4955.png,False,-1.1876749010209762,1.850369930267334,0.0666666666666666,-4.924036786842432,2.552180767059326,0.0625,-5.879204995123529,30.27514958381653,10.0,0.2019230769230767,8.0,49.11819801496546,6.0
subject-04,1,27,1.06919503211975,truck,boat,1.0,1_boat_10_n04612504_11379.png,False,0.028596197349994423,0.1378082931041717,1.0,-0.018190381054017723,2.4819693565368652,0.3333333333333333,-2.195116632276493,25.974766105413437,9.0,5.410714285714286,7.0,23.874668140777477,9.0
subject-03,1,469,1.47432994842529,car,boat,1.0,1_boat_10_n04612504_11379.png,False,2.2549915669139,0.1378082931041717,1.0,-0.018190381054017723,2.4819693565368652,0.3333333333333333,-2.195116632276493,25.974766105413437,9.0,5.410714285714286,7.0,23.874668140777477,9.0
subject-02,1,1010,0.70584511756897,boat,boat,1.0,1_boat_10_n04612504_11379.png,True,-0.9363050558317306,0.1378082931041717,1.0,-0.018190381054017723,2.4819693565368652,0.3333333333333333,-2.195116632276493,25.974766105413437,9.0,5.410714285714286,7.0,23.874668140777477,9.0
subject-01,1,658,0.795114994049072,boat,boat,1.0,1_boat_10_n04612504_11379.png,True,-0.19759749620606706,0.1378082931041717,1.0,-0.018190381054017723,2.4819693565368652,0.3333333333333333,-2.195116632276493,25.974766105413437,9.0,5.410714285714286,7.0,23.874668140777477,9.0
subject-04,1,28,1.20900106430054,car,cat,0.45,0.45_cat_10_n02125311_43276.png,False,0.615807329700997,1.677743434906006,0.1,-4.038300802540943,2.5684845447540283,0.0714285714285714,-3.477171701877969,30.03747248649597,10.0,0.7655844155844151,7.0,39.57166301304841,7.0
subject-03,1,810,0.795785903930664,oven,cat,0.45,0.45_cat_10_n02125311_43276.png,False,-0.8017599612050438,1.677743434906006,0.1,-4.038300802540943,2.5684845447540283,0.0714285714285714,-3.477171701877969,30.03747248649597,10.0,0.7655844155844151,7.0,39.57166301304841,7.0
subject-02,1,342,0.858827829360962,knife,cat,0.45,0.45_cat_10_n02125311_43276.png,False,-0.2435836448619518,1.677743434906006,0.1,-4.038300802540943,2.5684845447540283,0.0714285714285714,-3.477171701877969,30.03747248649597,10.0,0.7655844155844151,7.0,39.57166301304841,7.0
subject-01,1,8,1.05839705467224,clock,cat,0.45,0.45_cat_10_n02125311_43276.png,False,0.9359412855126542,1.677743434906006,0.1,-4.038300802540943,2.5684845447540283,0.0714285714285714,-3.477171701877969,30.03747248649597,10.0,0.7655844155844151,7.0,39.57166301304841,7.0
subject-04,1,29,1.28318381309509,airplane,airplane,0.45,0.45_airplane_10_n02690373_3047.png,True,0.9273885629358192,2.308391571044922,1.0,-1.3490600323760162,2.526172161102295,1.0,-1.4572706439886287,30.718945264816284,10.0,7.294444444444444,3.0,26.2401610234868,10.0
subject-03,1,827,0.92873215675354,keyboard,airplane,0.45,0.45_airplane_10_n02690373_3047.png,False,-0.2028546067609045,2.308391571044922,1.0,-1.3490600323760162,2.526172161102295,1.0,-1.4572706439886287,30.718945264816284,10.0,7.294444444444444,3.0,26.2401610234868,10.0
subject-02,1,954,0.567513942718506,cat,airplane,0.45,0.45_airplane_10_n02690373_3047.png,False,-1.5626828046705155,2.308391571044922,1.0,-1.3490600323760162,2.526172161102295,1.0,-1.4572706439886287,30.718945264816284,10.0,7.294444444444444,3.0,26.2401610234868,10.0
subject-01,1,483,0.562107086181641,chair,airplane,0.45,0.45_airplane_10_n02690373_3047.png,False,-1.2007934579427544,2.308391571044922,1.0,-1.3490600323760162,2.526172161102295,1.0,-1.4572706439886287,30.718945264816284,10.0,7.294444444444444,3.0,26.2401610234868,10.0
subject-04,1,30,1.12454605102539,truck,boat,0.55,0.55_boat_10_n03344393_4349.png,False,0.2610806901959948,0.1461097300052642,1.0,-0.020332731746904274,2.5010504722595215,0.5,-2.1159316257016916,26.311138153076172,9.0,5.676190476190476,7.0,24.230562490779086,9.0
subject-03,1,668,0.895426034927368,car,boat,0.55,0.55_boat_10_n03344393_4349.png,False,-0.35289429779333126,0.1461097300052642,1.0,-0.020332731746904274,2.5010504722595215,0.5,-2.1159316257016916,26.311138153076172,9.0,5.676190476190476,7.0,24.230562490779086,9.0
subject-02,1,314,1.11366820335388,boat,boat,0.55,0.55_boat_10_n03344393_4349.png,True,0.9103597084528311,0.1461097300052642,1.0,-0.020332731746904274,2.5010504722595215,0.5,-2.1159316257016916,26.311138153076172,9.0,5.676190476190476,7.0,24.230562490779086,9.0
subject-01,1,977,,na,boat,0.55,0.55_boat_10_n03344393_4349.png,False,,0.1461097300052642,1.0,-0.020332731746904274,2.5010504722595215,0.5,-2.1159316257016916,26.311138153076172,9.0,5.676190476190476,7.0,24.230562490779086,9.0
subject-04,1,31,0.970358848571777,knife,knife,3.0,3_knife_10_n03041632_24998.png,True,-0.38653401093318934,1.616766333580017,1.0,-0.4711915637170669,2.600446939468384,0.1666666666666666,-2.8180406766472244,30.184404015541077,10.0,4.926190476190476,8.0,26.17829406418559,9.0
subject-03,1,103,1.12018489837646,knife,knife,3.0,3_knife_10_n03041632_24998.png,True,0.6596147720018127,1.616766333580017,1.0,-0.4711915637170669,2.600446939468384,0.1666666666666666,-2.8180406766472244,30.184404015541077,10.0,4.926190476190476,8.0,26.17829406418559,9.0
subject-02,1,476,0.945388078689575,knife,knife,3.0,3_knife_10_n03041632_24998.png,True,0.14837004288769462,1.616766333580017,1.0,-0.4711915637170669,2.600446939468384,0.1666666666666666,-2.8180406766472244,30.184404015541077,10.0,4.926190476190476,8.0,26.17829406418559,9.0
subject-01,1,1189,0.781025886535645,knife,knife,3.0,3_knife_10_n03041632_24998.png,True,-0.25825696433873496,1.616766333580017,1.0,-0.4711915637170669,2.600446939468384,0.1666666666666666,-2.8180406766472244,30.184404015541077,10.0,4.926190476190476,8.0,26.17829406418559,9.0
subject-04,1,32,1.0861349105835,bicycle,elephant,0.45,0.45_elephant_10_n02504458_4137.png,False,0.09974681266624694,2.089545249938965,0.0625,-4.714555628118196,2.5566329956054688,0.2,-2.596982029547797,30.35281801223755,10.0,2.741804029304029,1.0,34.851538613327506,0.0
subject-03,1,687,1.5000638961792,car,elephant,0.45,0.45_elephant_10_n02504458_4137.png,False,2.3709196113194544,2.089545249938965,0.0625,-4.714555628118196,2.5566329956054688,0.2,-2.596982029547797,30.35281801223755,10.0,2.741804029304029,1.0,34.851538613327506,0.0
subject-02,1,267,0.636260986328125,cat,elephant,0.45,0.45_elephant_10_n02504458_4137.png,False,-1.251389139579732,2.089545249938965,0.0625,-4.714555628118196,2.5566329956054688,0.2,-2.596982029547797,30.35281801223755,10.0,2.741804029304029,1.0,34.851538613327506,0.0
subject-01,1,854,0.753375053405762,airplane,elephant,0.45,0.45_elephant_10_n02504458_4137.png,False,-0.3773053021759884,2.089545249938965,0.0625,-4.714555628118196,2.5566329956054688,0.2,-2.596982029547797,30.35281801223755,10.0,2.741804029304029,1.0,34.851538613327506,0.0
subject-04,1,33,1.25392413139343,car,dog,0.7,0.7_dog_10_n02088364_8674.png,False,0.8044925007541573,2.500335693359375,0.1666666666666666,-3.1321363214390043,2.5615389347076416,0.0909090909090909,-3.24026171458094,30.975586891174316,10.0,0.4682650682650681,9.0,38.22261418117945,6.0
subject-03,1,43,1.27595496177673,bear,dog,0.7,0.7_dog_10_n02088364_8674.png,False,1.3613383862567918,2.500335693359375,0.1666666666666666,-3.1321363214390043,2.5615389347076416,0.0909090909090909,-3.24026171458094,30.975586891174316,10.0,0.4682650682650681,9.0,38.22261418117945,6.0
subject-02,1,986,0.80443811416626,bear,dog,0.7,0.7_dog_10_n02088364_8674.png,False,-0.489865854208241,2.500335693359375,0.1666666666666666,-3.1321363214390043,2.5615389347076416,0.0909090909090909,-3.24026171458094,30.975586891174316,10.0,0.4682650682650681,9.0,38.22261418117945,6.0
subject-01,1,104,1.15188407897949,dog,dog,0.7,0.7_dog_10_n02088364_8674.png,True,1.3384418105728237,2.500335693359375,0.1666666666666666,-3.1321363214390043,2.5615389347076416,0.0909090909090909,-3.24026171458094,30.975586891174316,10.0,0.4682650682650681,9.0,38.22261418117945,6.0
subject-04,1,34,1.03387999534607,bicycle,boat,1.0,1_boat_10_n02951358_7320.png,False,-0.11973347347617905,1.9120196104049685,1.0,-0.6784677781755121,2.4498863220214844,0.5,-2.207022782109107,30.055694222450256,10.0,5.027380952380952,8.0,27.25649395928976,10.0
subject-03,1,399,1.20798492431641,bicycle,boat,1.0,1_boat_10_n02951358_7320.png,False,1.0551423219646372,1.9120196104049685,1.0,-0.6784677781755121,2.4498863220214844,0.5,-2.207022782109107,30.055694222450256,10.0,5.027380952380952,8.0,27.25649395928976,10.0
subject-02,1,50,0.715023994445801,boat,boat,1.0,1_boat_10_n02951358_7320.png,True,-0.8947421598237053,1.9120196104049685,1.0,-0.6784677781755121,2.4498863220214844,0.5,-2.207022782109107,30.055694222450256,10.0,5.027380952380952,8.0,27.25649395928976,10.0
subject-01,1,1149,0.773003101348877,boat,boat,1.0,1_boat_10_n02951358_7320.png,True,-0.29279839160147714,1.9120196104049685,1.0,-0.6784677781755121,2.4498863220214844,0.5,-2.207022782109107,30.055694222450256,10.0,5.027380952380952,8.0,27.25649395928976,10.0
subject-04,1,35,1.16154098510742,car,cat,0.55,0.55_cat_10_n02123159_5429.png,False,0.41646623969408425,2.061382293701172,0.1111111111111111,-3.784471573827051,2.546456813812256,0.0909090909090909,-3.390207573411976,30.543436765670776,10.0,0.48602508602508565,7.0,39.39784583331769,7.0
subject-03,1,195,0.792695999145508,bird,cat,0.55,0.55_cat_10_n02123159_5429.png,False,-0.8156795751938484,2.061382293701172,0.1111111111111111,-3.784471573827051,2.546456813812256,0.0909090909090909,-3.390207573411976,30.543436765670776,10.0,0.48602508602508565,7.0,39.39784583331769,7.0
subject-02,1,686,1.18485593795776,cat,cat,0.55,0.55_cat_10_n02123159_5429.png,True,1.2327050727159001,2.061382293701172,0.1111111111111111,-3.784471573827051,2.546456813812256,0.0909090909090909,-3.390207573411976,30.543436765670776,10.0,0.48602508602508565,7.0,39.39784583331769,7.0
subject-01,1,966,0.644828081130981,car,cat,0.55,0.55_cat_10_n02123159_5429.png,False,-0.8446451673395314,2.061382293701172,0.1111111111111111,-3.784471573827051,2.546456813812256,0.0909090909090909,-3.390207573411976,30.543436765670776,10.0,0.48602508602508565,7.0,39.39784583331769,7.0
subject-04,1,36,1.05565190315247,keyboard,bicycle,0.4,0.4_bicycle_10_n03792782_2327.png,False,-0.02828744330843006,1.1936218738555908,1.0,-0.39025845352951094,2.579268455505371,0.5,-2.099175165867436,29.29041576385498,10.0,4.0095238095238095,10.0,25.307680743672922,10.0
subject-03,1,562,0.758055925369263,oven,bicycle,0.4,0.4_bicycle_10_n03792782_2327.png,False,-0.9717285440246822,1.1936218738555908,1.0,-0.39025845352951094,2.579268455505371,0.5,-2.099175165867436,29.29041576385498,10.0,4.0095238095238095,10.0,25.307680743672922,10.0
subject-02,1,25,,na,bicycle,0.4,0.4_bicycle_10_n03792782_2327.png,False,,1.1936218738555908,1.0,-0.39025845352951094,2.579268455505371,0.5,-2.099175165867436,29.29041576385498,10.0,4.0095238095238095,10.0,25.307680743672922,10.0
subject-01,1,701,0.995122909545898,boat,bicycle,0.4,0.4_bicycle_10_n03792782_2327.png,False,0.66351977220847,1.1936218738555908,1.0,-0.39025845352951094,2.579268455505371,0.5,-2.099175165867436,29.29041576385498,10.0,4.0095238095238095,10.0,25.307680743672922,10.0
subject-04,1,37,1.41126108169556,cat,cat,1.0,1_cat_10_n02124075_10085.png,True,1.4653367240427007,0.6701779365539551,1.0,-0.12929530068378994,2.6166858673095703,0.0769230769230769,-3.3200992225594623,28.724971294403076,10.0,4.069755244755244,7.0,31.084368189894338,9.0
subject-03,1,1119,0.669411897659302,cat,cat,1.0,1_cat_10_n02124075_10085.png,True,-1.3710582107714477,0.6701779365539551,1.0,-0.12929530068378994,2.6166858673095703,0.0769230769230769,-3.3200992225594623,28.724971294403076,10.0,4.069755244755244,7.0,31.084368189894338,9.0
subject-02,1,509,0.652695894241333,cat,cat,1.0,1_cat_10_n02124075_10085.png,True,-1.1769701907623287,0.6701779365539551,1.0,-0.12929530068378994,2.6166858673095703,0.0769230769230769,-3.3200992225594623,28.724971294403076,10.0,4.069755244755244,7.0,31.084368189894338,9.0
subject-01,1,213,1.2148871421814,cat,cat,1.0,1_cat_10_n02124075_10085.png,True,1.609696203437281,0.6701779365539551,1.0,-0.12929530068378994,2.6166858673095703,0.0769230769230769,-3.3200992225594623,28.724971294403076,10.0,4.069755244755244,7.0,31.084368189894338,9.0
subject-04,1,38,1.07320880889893,bicycle,knife,0.7,0.7_knife_10_n03041632_91582.png,False,0.0454548004498845,1.9979345798492432,1.0,-0.752119999004567,2.533163785934448,0.1111111111111111,-3.1370638316001287,30.323581218719482,10.0,5.727777777777778,7.0,25.98839224147801,10.0
subject-03,1,1015,1.26363301277161,bicycle,knife,0.7,0.7_knife_10_n03041632_91582.png,False,1.305829629299302,1.9979345798492432,1.0,-0.752119999004567,2.533163785934448,0.1111111111111111,-3.1370638316001287,30.323581218719482,10.0,5.727777777777778,7.0,25.98839224147801,10.0
subject-02,1,347,1.11174702644348,bicycle,knife,0.7,0.7_knife_10_n03041632_91582.png,False,0.901660422340656,1.9979345798492432,1.0,-0.752119999004567,2.533163785934448,0.1111111111111111,-3.1370638316001287,30.323581218719482,10.0,5.727777777777778,7.0,25.98839224147801,10.0
subject-01,1,817,1.47843408584595,knife,knife,0.7,0.7_knife_10_n03041632_91582.png,True,2.7443754168258065,1.9979345798492432,1.0,-0.752119999004567,2.533163785934448,0.1111111111111111,-3.1370638316001287,30.323581218719482,10.0,5.727777777777778,7.0,25.98839224147801,10.0
subject-04,1,39,1.34486413002014,knife,oven,1.5,1.5_oven_10_n04111531_15616.png,False,1.1864572753536802,2.0265729427337646,0.25,-2.863775798567517,2.5067405700683594,0.0625,-5.834264232202937,29.88413906097412,10.0,0.6511655011655011,9.0,43.8839152952737,6.0
subject-03,1,1243,1.05135011672974,bicycle,oven,1.5,1.5_oven_10_n04111531_15616.png,False,0.34952314907252013,2.0265729427337646,0.25,-2.863775798567517,2.5067405700683594,0.0625,-5.834264232202937,29.88413906097412,10.0,0.6511655011655011,9.0,43.8839152952737,6.0
subject-02,1,833,1.07685303688049,bicycle,oven,1.5,1.5_oven_10_n04111531_15616.png,False,0.7436568584000125,2.0265729427337646,0.25,-2.863775798567517,2.5067405700683594,0.0625,-5.834264232202937,29.88413906097412,10.0,0.6511655011655011,9.0,43.8839152952737,6.0
subject-01,1,1248,0.778840065002441,bicycle,oven,1.5,1.5_oven_10_n04111531_15616.png,False,-0.2676678352197136,2.0265729427337646,0.25,-2.863775798567517,2.5067405700683594,0.0625,-5.834264232202937,29.88413906097412,10.0,0.6511655011655011,9.0,43.8839152952737,6.0
subject-04,1,40,1.36475396156311,clock,car,0.4,0.4_car_10_n04285008_11133.png,False,1.2699982379318517,1.1900743246078491,1.0,-0.30855239294262354,2.591377019882202,0.1,-3.1078846976118464,29.774821400642395,10.0,2.015018315018315,9.0,37.94143969406867,10.0
subject-03,1,897,0.763370990753174,boat,car,0.4,0.4_car_10_n04285008_11133.png,False,-0.9477848746842157,1.1900743246078491,1.0,-0.30855239294262354,2.591377019882202,0.1,-3.1078846976118464,29.774821400642395,10.0,2.015018315018315,9.0,37.94143969406867,10.0
subject-02,1,831,0.702862024307251,car,car,0.4,0.4_car_10_n04285008_11133.png,True,-0.9498128081071782,1.1900743246078491,1.0,-0.30855239294262354,2.591377019882202,0.1,-3.1078846976118464,29.774821400642395,10.0,2.015018315018315,9.0,37.94143969406867,10.0
subject-01,1,438,0.854130983352661,airplane,car,0.4,0.4_car_10_n04285008_11133.png,False,0.05649088512449368,1.1900743246078491,1.0,-0.30855239294262354,2.591377019882202,0.1,-3.1078846976118464,29.774821400642395,10.0,2.015018315018315,9.0,37.94143969406867,10.0
subject-04,1,41,1.28860306739807,elephant,keyboard,0.4,0.4_keyboard_10_n03085013_20462.png,False,0.9501504309762177,0.2541031241416931,1.0,-0.03848861178198717,2.5702226161956787,0.1,-3.0450656468786454,27.25611764192581,9.0,3.9372766122766123,8.0,29.11339622534945,9.0
subject-03,1,421,1.18548393249512,bear,keyboard,0.4,0.4_keyboard_10_n03085013_20462.png,False,0.9537783181214576,0.2541031241416931,1.0,-0.03848861178198717,2.5702226161956787,0.1,-3.0450656468786454,27.25611764192581,9.0,3.9372766122766123,8.0,29.11339622534945,9.0
subject-02,1,228,1.06388688087463,dog,keyboard,0.4,0.4_keyboard_10_n03085013_20462.png,False,0.6849447740211827,0.2541031241416931,1.0,-0.03848861178198717,2.5702226161956787,0.1,-3.0450656468786454,27.25611764192581,9.0,3.9372766122766123,8.0,29.11339622534945,9.0
subject-01,1,1154,0.713634014129639,bird,keyboard,0.4,0.4_keyboard_10_n03085013_20462.png,False,-0.5484070063280573,0.2541031241416931,1.0,-0.03848861178198717,2.5702226161956787,0.1,-3.0450656468786454,27.25611764192581,9.0,3.9372766122766123,8.0,29.11339622534945,9.0
subject-04,1,42,0.638328075408936,clock,clock,1.5,1.5_clock_10_n04548280_5843.png,True,-1.7811245249691137,0.0674985647201538,1.0,-0.007998841239235225,2.572720527648926,0.5,-2.343576982012863,25.61413386464119,9.0,5.652020202020202,6.0,27.649848445193182,9.0
subject-03,1,289,0.91050910949707,clock,clock,1.5,1.5_clock_10_n04548280_5843.png,True,-0.2849470339218944,0.0674985647201538,1.0,-0.007998841239235225,2.572720527648926,0.5,-2.343576982012863,25.61413386464119,9.0,5.652020202020202,6.0,27.649848445193182,9.0
subject-02,1,1159,0.701090097427368,clock,clock,1.5,1.5_clock_10_n04548280_5843.png,True,-0.9578362747720698,0.0674985647201538,1.0,-0.007998841239235225,2.572720527648926,0.5,-2.343576982012863,25.61413386464119,9.0,5.652020202020202,6.0,27.649848445193182,9.0
subject-01,1,937,0.837733030319214,clock,clock,1.5,1.5_clock_10_n04548280_5843.png,True,-0.014109123323551366,0.0674985647201538,1.0,-0.007998841239235225,2.572720527648926,0.5,-2.343576982012863,25.61413386464119,9.0,5.652020202020202,6.0,27.649848445193182,9.0
subject-04,1,43,1.20621800422668,car,elephant,0.45,0.45_elephant_10_n02504458_1473.png,False,0.6041179638569044,2.602196216583252,0.0909090909090909,-3.3975335582354362,2.568702936172486,0.1666666666666666,-2.5505845068561195,31.234427452087402,5.0,2.7856643356643356,1.0,32.59170633311327,0.0
subject-03,1,841,0.725970983505249,boat,elephant,0.45,0.45_elephant_10_n02504458_1473.png,False,-1.1162669802075216,2.602196216583252,0.0909090909090909,-3.3975335582354362,2.568702936172486,0.1666666666666666,-2.5505845068561195,31.234427452087402,5.0,2.7856643356643356,1.0,32.59170633311327,0.0
subject-02,1,573,0.772775173187256,clock,elephant,0.45,0.45_elephant_10_n02504458_1473.png,False,-0.6332388987405619,2.602196216583252,0.0909090909090909,-3.3975335582354362,2.568702936172486,0.1666666666666666,-2.5505845068561195,31.234427452087402,5.0,2.7856643356643356,1.0,32.59170633311327,0.0
subject-01,1,468,0.648399829864502,cat,elephant,0.45,0.45_elephant_10_n02504458_1473.png,False,-0.8292673033923346,2.602196216583252,0.0909090909090909,-3.3975335582354362,2.568702936172486,0.1666666666666666,-2.5505845068561195,31.234427452087402,5.0,2.7856643356643356,1.0,32.59170633311327,0.0
subject-04,1,44,0.953929901123047,bird,bird,3.0,3_bird_10_n01530575_3831.png,True,-0.45553862170869963,1.3350086212158203,1.0,-0.3531188070565451,2.6231565475463867,0.0833333333333333,-3.2220477417163207,29.543043613433838,10.0,3.41529304029304,8.0,33.44497909175684,9.0
subject-03,1,848,1.02069306373596,bird,bird,3.0,3_bird_10_n01530575_3831.png,True,0.2114171641380327,1.3350086212158203,1.0,-0.3531188070565451,2.6231565475463867,0.0833333333333333,-3.2220477417163207,29.543043613433838,10.0,3.41529304029304,8.0,33.44497909175684,9.0
subject-02,1,24,1.31774091720581,bird,bird,3.0,3_bird_10_n01530575_3831.png,True,1.8344218892314879,1.3350086212158203,1.0,-0.3531188070565451,2.6231565475463867,0.0833333333333333,-3.2220477417163207,29.543043613433838,10.0,3.41529304029304,8.0,33.44497909175684,9.0
subject-01,1,417,0.976169109344482,cat,bird,3.0,3_bird_10_n01530575_3831.png,False,0.5819157786116402,1.3350086212158203,1.0,-0.3531188070565451,2.6231565475463867,0.0833333333333333,-3.2220477417163207,29.543043613433838,10.0,3.41529304029304,8.0,33.44497909175684,9.0
subject-04,1,45,0.949787139892578,oven,elephant,0.55,0.55_elephant_10_n02504458_11214.png,False,-0.4729389833043832,1.630693435668945,1.0,-0.5677623399164349,2.503110885620117,0.2,-2.5513542453143927,29.913355827331543,10.0,3.9935897435897436,1.0,29.116123734073657,10.0
subject-03,1,19,1.07844185829163,boat,elephant,0.55,0.55_elephant_10_n02504458_11214.png,False,0.4715678757053927,1.630693435668945,1.0,-0.5677623399164349,2.503110885620117,0.2,-2.5513542453143927,29.913355827331543,10.0,3.9935897435897436,1.0,29.116123734073657,10.0
subject-02,1,244,1.05445694923401,car,elephant,0.55,0.55_elephant_10_n02504458_11214.png,False,0.642245076291149,1.630693435668945,1.0,-0.5677623399164349,2.503110885620117,0.2,-2.5513542453143927,29.913355827331543,10.0,3.9935897435897436,1.0,29.116123734073657,10.0
subject-01,1,57,0.469176054000854,boat,elephant,0.55,0.55_elephant_10_n02504458_11214.png,False,-1.6009002056366108,1.630693435668945,1.0,-0.5677623399164349,2.503110885620117,0.2,-2.5513542453143927,29.913355827331543,10.0,3.9935897435897436,1.0,29.116123734073657,10.0
subject-04,1,46,0.905590057373047,knife,knife,inf,inf_knife_10_n03041632_22286.png,True,-0.6585748851898142,0.0072235730476677,1.0,-0.0006575361521050834,2.558332681655884,0.1666666666666666,-2.641285074103261,22.920097458321834,8.0,6.619047619047619,5.0,18.550448799117042,5.0
subject-03,1,789,1.04441404342651,knife,knife,inf,inf_knife_10_n03041632_22286.png,True,0.31827705260934225,0.0072235730476677,1.0,-0.0006575361521050834,2.558332681655884,0.1666666666666666,-2.641285074103261,22.920097458321834,8.0,6.619047619047619,5.0,18.550448799117042,5.0
subject-02,1,169,0.71488881111145,knife,knife,inf,inf_knife_10_n03041632_22286.png,True,-0.8953542838278775,0.0072235730476677,1.0,-0.0006575361521050834,2.558332681655884,0.1666666666666666,-2.641285074103261,22.920097458321834,8.0,6.619047619047619,5.0,18.550448799117042,5.0
subject-01,1,1164,0.865960121154785,knife,knife,inf,inf_knife_10_n03041632_22286.png,True,0.10742024362793667,0.0072235730476677,1.0,-0.0006575361521050834,2.558332681655884,0.1666666666666666,-2.641285074103261,22.920097458321834,8.0,6.619047619047619,5.0,18.550448799117042,5.0
subject-04,1,47,1.02735781669617,dog,dog,1.5,1.5_dog_10_n02093256_11232.png,True,-0.14712782728668297,1.4690247774124146,1.0,-0.3831729580762342,2.552046537399292,0.1111111111111111,-3.1329379841973863,29.32392656803131,9.0,3.256060606060606,8.0,31.322337424393627,9.0
subject-03,1,895,0.921570062637329,dog,dog,1.5,1.5_dog_10_n02093256_11232.png,True,-0.23511889721026707,1.4690247774124146,1.0,-0.3831729580762342,2.552046537399292,0.1111111111111111,-3.1329379841973863,29.32392656803131,9.0,3.256060606060606,8.0,31.322337424393627,9.0
subject-02,1,436,1.01481294631958,dog,dog,1.5,1.5_dog_10_n02093256_11232.png,True,0.4627329646695836,1.4690247774124146,1.0,-0.3831729580762342,2.552046537399292,0.1111111111111111,-3.1329379841973863,29.32392656803131,9.0,3.256060606060606,8.0,31.322337424393627,9.0
subject-01,1,264,0.851632118225098,dog,dog,1.5,1.5_dog_10_n02093256_11232.png,True,0.045732231361025145,1.4690247774124146,1.0,-0.3831729580762342,2.552046537399292,0.1111111111111111,-3.1329379841973863,29.32392656803131,9.0,3.256060606060606,8.0,31.322337424393627,9.0
subject-04,1,48,0.983374834060669,cat,bottle,0.45,0.45_bottle_10_n03937543_438.png,False,-0.3318644701531982,2.372495651245117,0.3333333333333333,-2.113013665478517,2.555739164352417,0.125,-2.845735302770905,30.930477380752563,10.0,1.068362193362193,9.0,34.3271427810541,0.0
subject-03,1,1220,0.933701992034912,oven,bottle,0.45,0.45_bottle_10_n03937543_438.png,False,-0.1804661535512861,2.372495651245117,0.3333333333333333,-2.113013665478517,2.555739164352417,0.125,-2.845735302770905,30.930477380752563,10.0,1.068362193362193,9.0,34.3271427810541,0.0
subject-02,1,194,0.968201160430908,dog,bottle,0.45,0.45_bottle_10_n03937543_438.png,False,0.25167001703060504,2.372495651245117,0.3333333333333333,-2.113013665478517,2.555739164352417,0.125,-2.845735302770905,30.930477380752563,10.0,1.068362193362193,9.0,34.3271427810541,0.0
subject-01,1,1257,0.749221086502075,clock,bottle,0.45,0.45_bottle_10_n03937543_438.png,False,-0.3951898575162203,2.372495651245117,0.3333333333333333,-2.113013665478517,2.555739164352417,0.125,-2.845735302770905,30.930477380752563,10.0,1.068362193362193,9.0,34.3271427810541,0.0
subject-04,1,49,1.0751359462738,airplane,knife,0.4,0.4_knife_10_n03041632_83826.png,False,0.05354913302224404,2.349283456802368,0.3333333333333333,-1.9381574916306215,2.601919651031494,0.1111111111111111,-2.8387554730296056,31.02842140197754,10.0,5.027777777777777,2.0,26.695039759067395,5.0
subject-03,1,733,1.04298114776611,dog,knife,0.4,0.4_knife_10_n03041632_83826.png,False,0.31182204643089334,2.349283456802368,0.3333333333333333,-1.9381574916306215,2.601919651031494,0.1111111111111111,-2.8387554730296056,31.02842140197754,10.0,5.027777777777777,2.0,26.695039759067395,5.0
subject-02,1,1103,0.909467220306396,car,knife,0.4,0.4_knife_10_n03041632_83826.png,False,-0.014283288400317203,2.349283456802368,0.3333333333333333,-1.9381574916306215,2.601919651031494,0.1111111111111111,-2.8387554730296056,31.02842140197754,10.0,5.027777777777777,2.0,26.695039759067395,5.0
subject-01,1,204,0.526704788208008,boat,knife,0.4,0.4_knife_10_n03041632_83826.png,False,-1.3532150761118418,2.349283456802368,0.3333333333333333,-1.9381574916306215,2.601919651031494,0.1111111111111111,-2.8387554730296056,31.02842140197754,10.0,5.027777777777777,2.0,26.695039759067395,5.0
subject-04,1,50,1.26902890205383,bicycle,knife,0.45,0.45_knife_10_n03041632_3516.png,False,0.8679353246798506,2.170300006866455,1.0,-1.019018495546848,2.5779638290405273,0.1111111111111111,-3.0030083033126145,30.645498752593994,10.0,4.977777777777778,7.0,26.140959820896256,10.0
subject-03,1,634,0.706159114837646,boat,knife,0.45,0.45_knife_10_n03041632_3516.png,False,-1.2055168385121389,2.170300006866455,1.0,-1.019018495546848,2.5779638290405273,0.1111111111111111,-3.0030083033126145,30.645498752593994,10.0,4.977777777777778,7.0,26.140959820896256,10.0
subject-02,1,1148,0.770848989486694,oven,knife,0.45,0.45_knife_10_n03041632_3516.png,False,-0.6419608561121537,2.170300006866455,1.0,-1.019018495546848,2.5779638290405273,0.1111111111111111,-3.0030083033126145,30.645498752593994,10.0,4.977777777777778,7.0,26.140959820896256,10.0
subject-01,1,183,0.696703910827637,clock,knife,0.45,0.45_knife_10_n03041632_3516.png,False,-0.6212981430272306,2.170300006866455,1.0,-1.019018495546848,2.5779638290405273,0.1111111111111111,-3.0030083033126145,30.645498752593994,10.0,4.977777777777778,7.0,26.140959820896256,10.0
subject-04,1,51,1.00471496582031,car,cat,0.55,0.55_cat_10_n02123045_5080.png,False,-0.24223197905371685,2.088834285736084,0.1111111111111111,-3.5743319141340217,2.591267347335815,0.0909090909090909,-3.189450652581911,30.725644826889038,10.0,0.8003718503718502,7.0,37.87472552286398,7.0
subject-03,1,575,0.847215175628662,bear,cat,0.55,0.55_cat_10_n02123045_5080.png,False,-0.570077867568829,2.088834285736084,0.1111111111111111,-3.5743319141340217,2.591267347335815,0.0909090909090909,-3.189450652581911,30.725644826889038,10.0,0.8003718503718502,7.0,37.87472552286398,7.0
subject-02,1,597,0.980454921722412,bird,cat,0.55,0.55_cat_10_n02123045_5080.png,False,0.30715630506999547,2.088834285736084,0.1111111111111111,-3.5743319141340217,2.591267347335815,0.0909090909090909,-3.189450652581911,30.725644826889038,10.0,0.8003718503718502,7.0,37.87472552286398,7.0
subject-01,1,829,0.564245939254761,boat,cat,0.55,0.55_cat_10_n02123045_5080.png,False,-1.191584805818712,2.088834285736084,0.1111111111111111,-3.5743319141340217,2.591267347335815,0.0909090909090909,-3.189450652581911,30.725644826889038,10.0,0.8003718503718502,7.0,37.87472552286398,7.0
subject-04,1,52,1.08877897262573,cat,bird,0.7,0.7_bird_10_n01798484_18666.png,False,0.11085236112939441,2.4964563846588135,1.0,-1.5808803750127545,2.585909843444824,0.0769230769230769,-3.385871217950451,31.190640926361084,10.0,2.492216117216117,9.0,37.29339080314662,10.0
subject-03,1,232,1.36782288551331,bird,bird,0.7,0.7_bird_10_n01798484_18666.png,True,1.7751912798829617,2.4964563846588135,1.0,-1.5808803750127545,2.585909843444824,0.0769230769230769,-3.385871217950451,31.190640926361084,10.0,2.492216117216117,9.0,37.29339080314662,10.0
subject-02,1,27,1.26327896118164,bear,bird,0.7,0.7_bird_10_n01798484_18666.png,False,1.5878125659993707,2.4964563846588135,1.0,-1.5808803750127545,2.585909843444824,0.0769230769230769,-3.385871217950451,31.190640926361084,10.0,2.492216117216117,9.0,37.29339080314662,10.0
subject-01,1,442,0.997375965118408,bear,bird,0.7,0.7_bird_10_n01798484_18666.png,False,0.6732201135942926,2.4964563846588135,1.0,-1.5808803750127545,2.585909843444824,0.0769230769230769,-3.385871217950451,31.190640926361084,10.0,2.492216117216117,9.0,37.29339080314662,10.0
subject-04,1,53,1.00445318222046,cat,dog,0.7,0.7_dog_10_n02098286_2699.png,False,-0.2433315184777385,2.1583218574523926,1.0,-1.2602362938548017,2.557941436767578,0.0909090909090909,-3.2281361710976966,30.638561010360718,10.0,1.4754689754689754,10.0,35.15468669961207,10.0
subject-03,1,1183,0.677337169647217,oven,dog,0.7,0.7_dog_10_n02098286_2699.png,False,-1.3353559045521652,2.1583218574523926,1.0,-1.2602362938548017,2.557941436767578,0.0909090909090909,-3.2281361710976966,30.638561010360718,10.0,1.4754689754689754,10.0,35.15468669961207,10.0
subject-02,1,227,1.21401619911194,cat,dog,0.7,0.7_dog_10_n02098286_2699.png,False,1.364745726292733,2.1583218574523926,1.0,-1.2602362938548017,2.557941436767578,0.0909090909090909,-3.2281361710976966,30.638561010360718,10.0,1.4754689754689754,10.0,35.15468669961207,10.0
subject-01,1,154,0.886531114578247,bicycle,dog,0.7,0.7_dog_10_n02098286_2699.png,False,0.1959869267083673,2.1583218574523926,1.0,-1.2602362938548017,2.557941436767578,0.0909090909090909,-3.2281361710976966,30.638561010360718,10.0,1.4754689754689754,10.0,35.15468669961207,10.0
subject-04,1,54,1.40616011619568,bird,knife,0.45,0.45_knife_10_n03041632_2184.png,False,1.4439117277063875,0.6407036185264587,1.0,-0.1319835515805467,2.559732437133789,0.1428571428571428,-2.8746399992131164,28.777523934841156,10.0,5.0095238095238095,9.0,24.5220660528016,9.0
subject-03,1,828,0.962383985519409,car,knife,0.45,0.45_knife_10_n03041632_2184.png,False,-0.05125755150905267,0.6407036185264587,1.0,-0.1319835515805467,2.559732437133789,0.1428571428571428,-2.8746399992131164,28.777523934841156,10.0,5.0095238095238095,9.0,24.5220660528016,9.0
subject-02,1,930,0.888067960739136,car,knife,0.45,0.45_knife_10_n03041632_2184.png,False,-0.11118133071830474,0.6407036185264587,1.0,-0.1319835515805467,2.559732437133789,0.1428571428571428,-2.8746399992131164,28.777523934841156,10.0,5.0095238095238095,9.0,24.5220660528016,9.0
subject-01,1,92,1.01423907279968,bear,knife,0.45,0.45_knife_10_n03041632_2184.png,False,0.7458228062797606,0.6407036185264587,1.0,-0.1319835515805467,2.559732437133789,0.1428571428571428,-2.8746399992131164,28.777523934841156,10.0,5.0095238095238095,9.0,24.5220660528016,9.0
subject-04,1,55,1.0821750164032,car,cat,0.55,0.55_cat_10_n02125311_22122.png,False,0.08311452642413972,2.3487257957458496,1.0,-1.3093517137047876,2.57769775390625,0.0666666666666666,-3.620420633812514,30.9234778881073,10.0,3.2725940725940723,8.0,36.04685741943901,7.0
subject-03,1,336,1.00176382064819,cat,cat,0.55,0.55_cat_10_n02125311_22122.png,True,0.126143417792251,2.3487257957458496,1.0,-1.3093517137047876,2.57769775390625,0.0666666666666666,-3.620420633812514,30.9234778881073,10.0,3.2725940725940723,8.0,36.04685741943901,7.0
subject-02,1,773,0.860169887542725,cat,cat,0.55,0.55_cat_10_n02125311_22122.png,True,-0.23750666775529364,2.3487257957458496,1.0,-1.3093517137047876,2.57769775390625,0.0666666666666666,-3.620420633812514,30.9234778881073,10.0,3.2725940725940723,8.0,36.04685741943901,7.0
subject-01,1,821,0.577784061431885,clock,cat,0.55,0.55_cat_10_n02125311_22122.png,False,-1.1332975587381717,2.3487257957458496,1.0,-1.3093517137047876,2.57769775390625,0.0666666666666666,-3.620420633812514,30.9234778881073,10.0,3.2725940725940723,8.0,36.04685741943901,7.0
subject-04,1,56,0.601953983306885,boat,boat,inf,inf_boat_10_n02951358_3205.png,True,-1.9339024235927176,0.109707087278366,1.0,-0.013868329112315954,2.4144327640533447,0.5,-1.889972330285979,24.145297035574913,9.0,6.708333333333333,6.0,19.815008508950037,7.0
subject-03,1,272,0.605650186538696,boat,boat,inf,inf_boat_10_n02951358_3205.png,True,-1.6582963193139133,0.109707087278366,1.0,-0.013868329112315954,2.4144327640533447,0.5,-1.889972330285979,24.145297035574913,9.0,6.708333333333333,6.0,19.815008508950037,7.0
subject-02,1,983,1.18301296234131,boat,boat,inf,inf_boat_10_n02951358_3205.png,True,1.2243598900841137,0.109707087278366,1.0,-0.013868329112315954,2.4144327640533447,0.5,-1.889972330285979,24.145297035574913,9.0,6.708333333333333,6.0,19.815008508950037,7.0
subject-01,1,393,0.63608717918396,boat,boat,inf,inf_boat_10_n02951358_3205.png,True,-0.8822783859519094,0.109707087278366,1.0,-0.013868329112315954,2.4144327640533447,0.5,-1.889972330285979,24.145297035574913,9.0,6.708333333333333,6.0,19.815008508950037,7.0
subject-04,1,57,0.907967090606689,chair,chair,inf,inf_chair_10_n03376595_10769.png,True,-0.6485909069952404,0.0882645398378372,1.0,-0.011537996161879385,2.5083508491516113,0.0909090909090909,-3.2703207233969915,26.149280324578285,9.0,3.852453102453102,8.0,27.523256090196334,9.0
subject-03,1,573,1.15363502502441,chair,chair,inf,inf_chair_10_n03376595_10769.png,True,0.8103031857849559,0.0882645398378372,1.0,-0.011537996161879385,2.5083508491516113,0.0909090909090909,-3.2703207233969915,26.149280324578285,9.0,3.852453102453102,8.0,27.523256090196334,9.0
subject-02,1,143,0.78228497505188,chair,chair,inf,inf_chair_10_n03376595_10769.png,True,-0.5901775404436682,0.0882645398378372,1.0,-0.011537996161879385,2.5083508491516113,0.0909090909090909,-3.2703207233969915,26.149280324578285,9.0,3.852453102453102,8.0,27.523256090196334,9.0
subject-01,1,201,0.833606004714966,chair,chair,inf,inf_chair_10_n03376595_10769.png,True,-0.031877685163611315,0.0882645398378372,1.0,-0.011537996161879385,2.5083508491516113,0.0909090909090909,-3.2703207233969915,26.149280324578285,9.0,3.852453102453102,8.0,27.523256090196334,9.0
subject-04,1,58,1.05536794662476,car,chair,0.7,0.7_chair_10_n03376595_3566.png,False,-0.029480113120841322,2.403468608856201,1.0,-1.2519006674587971,2.539444923400879,0.0909090909090909,-3.276858174432828,30.821412324905396,10.0,3.167929292929293,9.0,30.797085993869914,6.0
subject-03,1,322,0.898418188095093,boat,chair,0.7,0.7_chair_10_n03376595_3566.png,False,-0.3394150419631202,2.403468608856201,1.0,-1.2519006674587971,2.539444923400879,0.0909090909090909,-3.276858174432828,30.821412324905396,10.0,3.167929292929293,9.0,30.797085993869914,6.0
subject-02,1,176,0.777646064758301,car,chair,0.7,0.7_chair_10_n03376595_3566.png,False,-0.6111830020823635,2.403468608856201,1.0,-1.2519006674587971,2.539444923400879,0.0909090909090909,-3.276858174432828,30.821412324905396,10.0,3.167929292929293,9.0,30.797085993869914,6.0
subject-01,1,478,1.02693700790405,car,chair,0.7,0.7_chair_10_n03376595_3566.png,False,0.8004926985408686,2.403468608856201,1.0,-1.2519006674587971,2.539444923400879,0.0909090909090909,-3.276858174432828,30.821412324905396,10.0,3.167929292929293,9.0,30.797085993869914,6.0
subject-04,1,59,1.3491690158844,bird,bear,0.45,0.45_bear_10_n02133161_2749.png,False,1.2045385903267354,2.059271812438965,0.2,-2.8977969829540315,2.571178913116455,0.25,-2.4448488784863494,30.593393325805664,10.0,3.236904761904762,8.0,29.227153590026376,4.0
subject-03,1,1064,0.695745944976807,clock,bear,0.45,0.45_bear_10_n02133161_2749.png,False,-1.252426796889843,2.059271812438965,0.2,-2.8977969829540315,2.571178913116455,0.25,-2.4448488784863494,30.593393325805664,10.0,3.236904761904762,8.0,29.227153590026376,4.0
subject-02,1,710,0.598595857620239,bottle,bear,0.45,0.45_bear_10_n02133161_2749.png,False,-1.4219407058139688,2.059271812438965,0.2,-2.8977969829540315,2.571178913116455,0.25,-2.4448488784863494,30.593393325805664,10.0,3.236904761904762,8.0,29.227153590026376,4.0
subject-01,1,431,0.475349187850952,airplane,bear,0.45,0.45_bear_10_n02133161_2749.png,False,-1.5743222967306103,2.059271812438965,0.2,-2.8977969829540315,2.571178913116455,0.25,-2.4448488784863494,30.593393325805664,10.0,3.236904761904762,8.0,29.227153590026376,4.0
subject-04,1,60,0.654938936233521,boat,boat,3.0,3_boat_10_n03662601_15713.png,True,-1.711355844448119,1.1020948886871338,1.0,-0.4049071557012077,2.5343427658081055,0.3333333333333333,-2.3520693892148428,28.684933185577393,10.0,4.360714285714286,9.0,26.844362301206772,9.0
subject-03,1,161,0.604951858520508,boat,boat,3.0,3_boat_10_n03662601_15713.png,True,-1.6614421950371525,1.1020948886871338,1.0,-0.4049071557012077,2.5343427658081055,0.3333333333333333,-2.3520693892148428,28.684933185577393,10.0,4.360714285714286,9.0,26.844362301206772,9.0
subject-02,1,795,0.648306846618652,boat,boat,3.0,3_boat_10_n03662601_15713.png,True,-1.1968442485979034,1.1020948886871338,1.0,-0.4049071557012077,2.5343427658081055,0.3333333333333333,-2.3520693892148428,28.684933185577393,10.0,4.360714285714286,9.0,26.844362301206772,9.0
subject-01,1,593,1.20494604110718,boat,boat,3.0,3_boat_10_n03662601_15713.png,True,1.5668956283660356,1.1020948886871338,1.0,-0.4049071557012077,2.5343427658081055,0.3333333333333333,-2.3520693892148428,28.684933185577393,10.0,4.360714285714286,9.0,26.844362301206772,9.0
subject-04,1,61,1.14477896690369,clock,knife,1.5,1.5_knife_10_n03041632_1201.png,False,0.3460626702889231,2.461276054382324,1.0,-1.2550986048670258,2.5645017623901367,0.25,-2.5195853862228708,30.427992343902588,9.0,6.25,7.0,24.00383817125627,9.0
subject-03,1,738,1.14210891723633,boat,knife,1.5,1.5_knife_10_n03041632_1201.png,False,0.7583795886650098,2.461276054382324,1.0,-1.2550986048670258,2.5645017623901367,0.25,-2.5195853862228708,30.427992343902588,9.0,6.25,7.0,24.00383817125627,9.0
subject-02,1,1150,0.920550107955933,oven,knife,1.5,1.5_knife_10_n03041632_1201.png,False,0.03590116368761224,2.461276054382324,1.0,-1.2550986048670258,2.5645017623901367,0.25,-2.5195853862228708,30.427992343902588,9.0,6.25,7.0,24.00383817125627,9.0
subject-01,1,920,0.76490306854248,bicycle,knife,1.5,1.5_knife_10_n03041632_1201.png,False,-0.32767240199744746,2.461276054382324,1.0,-1.2550986048670258,2.5645017623901367,0.25,-2.5195853862228708,30.427992343902588,9.0,6.25,7.0,24.00383817125627,9.0
subject-04,1,62,0.678547143936157,cat,cat,inf,inf_cat_10_n02125311_18354.png,True,-1.612197015879723,0.047579426318407,1.0,-0.005381195306514491,2.490446090698242,0.125,-2.9859382347515218,25.166979152709246,9.0,4.701923076923077,7.0,26.76581984541428,9.0
subject-03,1,1235,0.706902027130127,cat,cat,inf,inf_cat_10_n02125311_18354.png,True,-1.2021701165068035,0.047579426318407,1.0,-0.005381195306514491,2.490446090698242,0.125,-2.9859382347515218,25.166979152709246,9.0,4.701923076923077,7.0,26.76581984541428,9.0
subject-02,1,715,0.79570484161377,cat,cat,inf,inf_cat_10_n02125311_18354.png,True,-0.5294110081284449,0.047579426318407,1.0,-0.005381195306514491,2.490446090698242,0.125,-2.9859382347515218,25.166979152709246,9.0,4.701923076923077,7.0,26.76581984541428,9.0
subject-01,1,731,0.651427030563354,cat,cat,inf,inf_cat_10_n02125311_18354.png,True,-0.8162339452361697,0.047579426318407,1.0,-0.005381195306514491,2.490446090698242,0.125,-2.9859382347515218,25.166979152709246,9.0,4.701923076923077,7.0,26.76581984541428,9.0
subject-04,1,63,1.1844310760498,bird,knife,1.5,1.5_knife_10_n03041632_23667.png,False,0.5126088453615617,1.2526230812072754,1.0,-0.3341516732890958,2.5776665210723877,0.125,-2.8662932267658885,28.806395769119263,9.0,4.467857142857143,9.0,24.891042132467657,9.0
subject-03,1,1101,0.857139110565186,bird,knife,1.5,1.5_knife_10_n03041632_23667.png,False,-0.5253718480726798,1.2526230812072754,1.0,-0.3341516732890958,2.5776665210723877,0.125,-2.8662932267658885,28.806395769119263,9.0,4.467857142857143,9.0,24.891042132467657,9.0
subject-02,1,98,1.44081401824951,bird,knife,1.5,1.5_knife_10_n03041632_23667.png,False,2.3917095147988667,1.2526230812072754,1.0,-0.3341516732890958,2.5776665210723877,0.125,-2.8662932267658885,28.806395769119263,9.0,4.467857142857143,9.0,24.891042132467657,9.0
subject-01,1,77,0.793586015701294,cat,knife,1.5,1.5_knife_10_n03041632_23667.png,False,-0.20418038396344956,1.2526230812072754,1.0,-0.3341516732890958,2.5776665210723877,0.125,-2.8662932267658885,28.806395769119263,9.0,4.467857142857143,9.0,24.891042132467657,9.0
subject-04,1,64,0.758330821990967,keyboard,keyboard,1.5,1.5_keyboard_10_n04505470_2620.png,True,-1.2770908462610258,0.13882377743721,1.0,-0.018276880581192284,2.538123846054077,0.1666666666666666,-2.6402563995956325,24.830206096172333,9.0,5.417929292929292,6.0,23.67757805356013,6.0
subject-03,1,1162,1.11482405662537,keyboard,keyboard,1.5,1.5_keyboard_10_n04505470_2620.png,True,0.6354648861578469,0.13882377743721,1.0,-0.018276880581192284,2.538123846054077,0.1666666666666666,-2.6402563995956325,24.830206096172333,9.0,5.417929292929292,6.0,23.67757805356013,6.0
subject-02,1,154,1.05245184898376,keyboard,keyboard,1.5,1.5_keyboard_10_n04505470_2620.png,True,0.6331657766878216,0.13882377743721,1.0,-0.018276880581192284,2.538123846054077,0.1666666666666666,-2.6402563995956325,24.830206096172333,9.0,5.417929292929292,6.0,23.67757805356013,6.0
subject-01,1,1184,0.896076917648315,keyboard,keyboard,1.5,1.5_keyboard_10_n04505470_2620.png,True,0.23708557944969108,0.13882377743721,1.0,-0.018276880581192284,2.538123846054077,0.1666666666666666,-2.6402563995956325,24.830206096172333,9.0,5.417929292929292,6.0,23.67757805356013,6.0
subject-04,1,65,0.894141912460327,car,car,1.5,1.5_car_10_n02814533_14627.png,True,-0.7066592062498919,0.0620396472513675,1.0,-0.007521533070390385,2.4908947944641113,0.1,-3.304994890484056,25.514883313328028,9.0,3.074481074481074,8.0,34.471783274842196,9.0
subject-03,1,40,0.780559062957764,car,car,1.5,1.5_car_10_n02814533_14627.png,True,-0.8703548737829033,0.0620396472513675,1.0,-0.007521533070390385,2.4908947944641113,0.1,-3.304994890484056,25.514883313328028,9.0,3.074481074481074,8.0,34.471783274842196,9.0
subject-02,1,168,1.14706587791443,car,car,1.5,1.5_car_10_n02814533_14627.png,True,1.0615878045801264,0.0620396472513675,1.0,-0.007521533070390385,2.4908947944641113,0.1,-3.304994890484056,25.514883313328028,9.0,3.074481074481074,8.0,34.471783274842196,9.0
subject-01,1,114,1.03630709648132,car,car,1.5,1.5_car_10_n02814533_14627.png,True,0.840834827303212,0.0620396472513675,1.0,-0.007521533070390385,2.4908947944641113,0.1,-3.304994890484056,25.514883313328028,9.0,3.074481074481074,8.0,34.471783274842196,9.0
subject-04,1,66,0.875997066497803,bird,bird,1.0,1_bird_10_n01558993_12930.png,True,-0.7828709074031724,0.9660247564315796,1.0,-0.20445074526650311,2.550616502761841,0.0666666666666666,-3.7248183502442886,27.70723819732666,9.0,3.022893772893773,8.0,35.040694732738004,9.0
subject-03,1,939,1.06735301017761,bird,bird,1.0,1_bird_10_n01558993_12930.png,True,0.421614075811895,0.9660247564315796,1.0,-0.20445074526650311,2.550616502761841,0.0666666666666666,-3.7248183502442886,27.70723819732666,9.0,3.022893772893773,8.0,35.040694732738004,9.0
subject-02,1,74,0.796591997146606,bird,bird,1.0,1_bird_10_n01558993_12930.png,True,-0.5253938768770954,0.9660247564315796,1.0,-0.20445074526650311,2.550616502761841,0.0666666666666666,-3.7248183502442886,27.70723819732666,9.0,3.022893772893773,8.0,35.040694732738004,9.0
subject-01,1,1082,1.3224630355835,clock,bird,1.0,1_bird_10_n01558993_12930.png,False,2.072855170138976,0.9660247564315796,1.0,-0.20445074526650311,2.550616502761841,0.0666666666666666,-3.7248183502442886,27.70723819732666,9.0,3.022893772893773,8.0,35.040694732738004,9.0
subject-04,1,67,1.17174005508423,clock,bicycle,0.4,0.4_bicycle_10_n03792782_26834.png,False,0.45930421554240114,0.4192512035369873,1.0,-0.0759364426203131,2.586238384246826,0.5,-2.222607370249708,28.70100498199463,10.0,4.042857142857143,9.0,25.661902631162167,9.0
subject-03,1,207,0.86428689956665,oven,bicycle,0.4,0.4_bicycle_10_n03792782_26834.png,False,-0.49317200028067737,0.4192512035369873,1.0,-0.0759364426203131,2.586238384246826,0.5,-2.222607370249708,28.70100498199463,10.0,4.042857142857143,9.0,25.661902631162167,9.0
subject-02,1,420,0.8697829246521,oven,bicycle,0.4,0.4_bicycle_10_n03792782_26834.png,False,-0.19397784968096488,0.4192512035369873,1.0,-0.0759364426203131,2.586238384246826,0.5,-2.222607370249708,28.70100498199463,10.0,4.042857142857143,9.0,25.661902631162167,9.0
subject-01,1,372,0.735985994338989,clock,bicycle,0.4,0.4_bicycle_10_n03792782_26834.png,False,-0.4521724343426463,0.4192512035369873,1.0,-0.0759364426203131,2.586238384246826,0.5,-2.222607370249708,28.70100498199463,10.0,4.042857142857143,9.0,25.661902631162167,9.0
subject-04,1,68,0.949815034866333,chair,keyboard,0.45,0.45_keyboard_10_n03085013_22585.png,False,-0.47282181926739525,2.189566135406494,1.0,-1.2037288126786088,2.5486984252929688,0.0833333333333333,-3.329915645957345,30.642930269241333,10.0,2.817832167832168,9.0,33.909680117319255,10.0
subject-03,1,288,1.0947859287262,bear,keyboard,0.45,0.45_keyboard_10_n03085013_22585.png,False,0.5451957598227242,2.189566135406494,1.0,-1.2037288126786088,2.5486984252929688,0.0833333333333333,-3.329915645957345,30.642930269241333,10.0,2.817832167832168,9.0,33.909680117319255,10.0
subject-02,1,1023,0.877458810806274,car,keyboard,0.45,0.45_keyboard_10_n03085013_22585.png,False,-0.15922064983218379,2.189566135406494,1.0,-1.2037288126786088,2.5486984252929688,0.0833333333333333,-3.329915645957345,30.642930269241333,10.0,2.817832167832168,9.0,33.909680117319255,10.0
subject-01,1,70,0.72870922088623,bicycle,keyboard,0.45,0.45_keyboard_10_n03085013_22585.png,False,-0.48350197079097107,2.189566135406494,1.0,-1.2037288126786088,2.5486984252929688,0.0833333333333333,-3.329915645957345,30.642930269241333,10.0,2.817832167832168,9.0,33.909680117319255,10.0
subject-04,1,69,0.701472043991089,boat,knife,0.45,0.45_knife_10_n03041632_6708.png,False,-1.515908205516504,2.533935070037842,0.25,-2.2672768954001254,2.5796995162963867,0.1111111111111111,-3.003693293055544,31.039682149887085,9.0,2.9777777777777774,9.0,28.27657344687246,5.0
subject-03,1,975,0.750491857528687,boat,knife,0.45,0.45_knife_10_n03041632_6708.png,False,-1.0058036731457356,2.533935070037842,0.25,-2.2672768954001254,2.5796995162963867,0.1111111111111111,-3.003693293055544,31.039682149887085,9.0,2.9777777777777774,9.0,28.27657344687246,5.0
subject-02,1,1113,0.757843971252441,oven,knife,0.45,0.45_knife_10_n03041632_6708.png,False,-0.7008489126473827,2.533935070037842,0.25,-2.2672768954001254,2.5796995162963867,0.1111111111111111,-3.003693293055544,31.039682149887085,9.0,2.9777777777777774,9.0,28.27657344687246,5.0
subject-01,1,48,1.00894284248352,bicycle,knife,0.45,0.45_knife_10_n03041632_6708.png,False,0.723020331830602,2.533935070037842,0.25,-2.2672768954001254,2.5796995162963867,0.1111111111111111,-3.003693293055544,31.039682149887085,9.0,2.9777777777777774,9.0,28.27657344687246,5.0
subject-04,1,70,0.925220012664795,bottle,bottle,1.5,1.5_bottle_10_n04579145_1174.png,True,-0.5761254508194795,0.0794849172234535,1.0,-0.009645036574093194,2.559420585632324,0.125,-2.8446729467359897,26.114454723894596,9.0,3.3464646464646464,8.0,29.383314678037376,9.0
subject-03,1,1273,1.05977916717529,bottle,bottle,1.5,1.5_bottle_10_n04579145_1174.png,True,0.3874949108749784,0.0794849172234535,1.0,-0.009645036574093194,2.559420585632324,0.125,-2.8446729467359897,26.114454723894596,9.0,3.3464646464646464,8.0,29.383314678037376,9.0
subject-02,1,89,0.87469482421875,bottle,bottle,1.5,1.5_bottle_10_n04579145_1174.png,True,-0.1717362646123329,0.0794849172234535,1.0,-0.009645036574093194,2.559420585632324,0.125,-2.8446729467359897,26.114454723894596,9.0,3.3464646464646464,8.0,29.383314678037376,9.0
subject-01,1,818,0.624579906463623,bottle,bottle,1.5,1.5_bottle_10_n04579145_1174.png,True,-0.9318219814002351,0.0794849172234535,1.0,-0.009645036574093194,2.559420585632324,0.125,-2.8446729467359897,26.114454723894596,9.0,3.3464646464646464,8.0,29.383314678037376,9.0
subject-04,1,71,0.764847040176392,cat,clock,0.4,0.4_clock_10_n02708093_2580.png,False,-1.249721527501149,0.2297883033752441,1.0,-0.034307878920879845,2.6076009273529053,0.5,-2.136134145036593,25.731142818927765,9.0,6.170670995670996,5.0,25.641817066655783,9.0
subject-03,1,85,1.24976205825806,bicycle,clock,0.4,0.4_clock_10_n02708093_2580.png,False,1.2433428065944594,0.2297883033752441,1.0,-0.034307878920879845,2.6076009273529053,0.5,-2.136134145036593,25.731142818927765,9.0,6.170670995670996,5.0,25.641817066655783,9.0
subject-02,1,722,0.614375114440918,airplane,clock,0.4,0.4_clock_10_n02708093_2580.png,False,-1.3504906123959792,0.2297883033752441,1.0,-0.034307878920879845,2.6076009273529053,0.5,-2.136134145036593,25.731142818927765,9.0,6.170670995670996,5.0,25.641817066655783,9.0
subject-01,1,589,0.645495891571045,bear,clock,0.4,0.4_clock_10_n02708093_2580.png,False,-0.8417699656229485,0.2297883033752441,1.0,-0.034307878920879845,2.6076009273529053,0.5,-2.136134145036593,25.731142818927765,9.0,6.170670995670996,5.0,25.641817066655783,9.0
subject-04,1,72,1.50012111663818,chair,chair,3.0,3_chair_10_n04429376_7279.png,True,1.8385652673714294,1.1101787090301514,1.0,-0.3148364679198686,2.541583299636841,0.0833333333333333,-3.354225529786798,29.08708357810974,10.0,3.2504079254079254,9.0,30.10487673820454,10.0
subject-03,1,1038,1.50017189979553,truck,chair,3.0,3_chair_10_n04429376_7279.png,False,2.371406153382475,1.1101787090301514,1.0,-0.3148364679198686,2.541583299636841,0.0833333333333333,-3.354225529786798,29.08708357810974,10.0,3.2504079254079254,9.0,30.10487673820454,10.0
subject-02,1,488,0.882768869400024,oven,chair,3.0,3_chair_10_n04429376_7279.png,False,-0.13517615984826886,1.1101787090301514,1.0,-0.3148364679198686,2.541583299636841,0.0833333333333333,-3.354225529786798,29.08708357810974,10.0,3.2504079254079254,9.0,30.10487673820454,10.0
subject-01,1,556,0.84455394744873,knife,chair,3.0,3_chair_10_n04429376_7279.png,False,0.015257762042263047,1.1101787090301514,1.0,-0.3148364679198686,2.541583299636841,0.0833333333333333,-3.354225529786798,29.08708357810974,10.0,3.2504079254079254,9.0,30.10487673820454,10.0
subject-04,1,73,1.28846001625061,boat,boat,1.0,1_boat_10_n03662601_18924.png,True,0.9495495897609009,0.8233213424682617,1.0,-0.16828672033306052,2.464287042617798,0.3333333333333333,-2.2473180099940837,27.537248373031616,9.0,5.0773809523809526,8.0,24.56570787957645,9.0
subject-03,1,750,0.683868169784546,boat,boat,1.0,1_boat_10_n03662601_18924.png,True,-1.305934609336474,0.8233213424682617,1.0,-0.16828672033306052,2.464287042617798,0.3333333333333333,-2.2473180099940837,27.537248373031616,9.0,5.0773809523809526,8.0,24.56570787957645,9.0
subject-02,1,123,0.678024053573608,boat,boat,1.0,1_boat_10_n03662601_18924.png,True,-1.0622816873072651,0.8233213424682617,1.0,-0.16828672033306052,2.464287042617798,0.3333333333333333,-2.2473180099940837,27.537248373031616,9.0,5.0773809523809526,8.0,24.56570787957645,9.0
subject-01,1,450,1.3161199092865,boat,boat,1.0,1_boat_10_n03662601_18924.png,True,2.045545373041631,0.8233213424682617,1.0,-0.16828672033306052,2.464287042617798,0.3333333333333333,-2.2473180099940837,27.537248373031616,9.0,5.0773809523809526,8.0,24.56570787957645,9.0
subject-04,1,74,1.062420129776,car,bottle,0.55,0.55_bottle_10_n03937543_4098.png,False,0.00014035739241397637,2.157989978790283,0.5,-2.225493166416285,2.5957937240600586,0.1111111111111111,-2.828200883369499,30.463237047195435,10.0,1.5603174603174599,8.0,33.54078926238223,0.0
subject-03,1,866,0.991184949874878,oven,bottle,0.55,0.55_bottle_10_n03937543_4098.png,False,0.07848699863352333,2.157989978790283,0.5,-2.225493166416285,2.5957937240600586,0.1111111111111111,-2.828200883369499,30.463237047195435,10.0,1.5603174603174599,8.0,33.54078926238223,0.0
subject-02,1,313,0.67176079750061,clock,bottle,0.55,0.55_bottle_10_n03937543_4098.png,False,-1.0906423532500378,2.157989978790283,0.5,-2.225493166416285,2.5957937240600586,0.1111111111111111,-2.828200883369499,30.463237047195435,10.0,1.5603174603174599,8.0,33.54078926238223,0.0
subject-01,1,764,0.507369041442871,truck,bottle,0.55,0.55_bottle_10_n03937543_4098.png,False,-1.436463508534079,2.157989978790283,0.5,-2.225493166416285,2.5957937240600586,0.1111111111111111,-2.828200883369499,30.463237047195435,10.0,1.5603174603174599,8.0,33.54078926238223,0.0
subject-04,1,75,1.13013887405396,bird,airplane,0.4,0.4_airplane_10_n02690373_191.png,False,0.2845715789109998,0.9238686561584472,1.0,-0.2057743974763377,2.5505709648132324,1.0,-1.5945441903966138,28.915615558624268,10.0,7.788034188034188,3.0,23.2181328504372,10.0
subject-03,1,340,0.847259998321533,keyboard,airplane,0.4,0.4_airplane_10_n02690373_191.png,False,-0.5698759472424487,0.9238686561584472,1.0,-0.2057743974763377,2.5505709648132324,1.0,-1.5945441903966138,28.915615558624268,10.0,7.788034188034188,3.0,23.2181328504372,10.0
subject-02,1,1261,1.0990788936615,car,airplane,0.4,0.4_airplane_10_n02690373_191.png,False,0.844297817688847,0.9238686561584472,1.0,-0.2057743974763377,2.5505709648132324,1.0,-1.5945441903966138,28.915615558624268,10.0,7.788034188034188,3.0,23.2181328504372,10.0
subject-01,1,886,0.559474945068359,oven,airplane,0.4,0.4_airplane_10_n02690373_191.png,False,-1.2121259202601615,0.9238686561584472,1.0,-0.2057743974763377,2.5505709648132324,1.0,-1.5945441903966138,28.915615558624268,10.0,7.788034188034188,3.0,23.2181328504372,10.0
subject-04,1,76,0.619994878768921,boat,boat,inf,inf_boat_10_n03662601_4295.png,True,-1.858127333722569,0.2276544272899627,1.0,-0.033057626585406535,2.3628649711608887,0.25,-1.919131626128304,24.9133457839489,9.0,6.824999999999999,2.0,19.78630888551384,9.0
subject-03,1,853,0.607855081558228,boat,boat,inf,inf_boat_10_n03662601_4295.png,True,-1.6483635577268358,0.2276544272899627,1.0,-0.033057626585406535,2.3628649711608887,0.25,-1.919131626128304,24.9133457839489,9.0,6.824999999999999,2.0,19.78630888551384,9.0
subject-02,1,606,0.880754947662354,boat,boat,inf,inf_boat_10_n03662601_4295.png,True,-0.14429540405148544,0.2276544272899627,1.0,-0.033057626585406535,2.3628649711608887,0.25,-1.919131626128304,24.9133457839489,9.0,6.824999999999999,2.0,19.78630888551384,9.0
subject-01,1,826,0.51318883895874,boat,boat,inf,inf_boat_10_n03662601_4295.png,True,-1.4114068595152536,0.2276544272899627,1.0,-0.033057626585406535,2.3628649711608887,0.25,-1.919131626128304,24.9133457839489,9.0,6.824999999999999,2.0,19.78630888551384,9.0
subject-04,1,77,0.767827987670898,clock,bicycle,0.4,0.4_bicycle_10_n02835271_9280.png,False,-1.2372009979758984,2.143052577972412,0.5,-2.037712594673751,2.591214895248413,0.5,-2.0788884443535616,30.65195870399475,10.0,3.042857142857143,4.0,28.245683475004242,10.0
subject-03,1,1092,0.928429126739502,truck,bicycle,0.4,0.4_bicycle_10_n02835271_9280.png,False,-0.20421971705255362,2.143052577972412,0.5,-2.037712594673751,2.591214895248413,0.5,-2.0788884443535616,30.65195870399475,10.0,3.042857142857143,4.0,28.245683475004242,10.0
subject-02,1,1062,1.13159203529358,cat,bicycle,0.4,0.4_bicycle_10_n02835271_9280.png,False,0.9915206579863721,2.143052577972412,0.5,-2.037712594673751,2.591214895248413,0.5,-2.0788884443535616,30.65195870399475,10.0,3.042857142857143,4.0,28.245683475004242,10.0
subject-01,1,902,0.818290948867798,cat,bicycle,0.4,0.4_bicycle_10_n02835271_9280.png,False,-0.09781537079955181,2.143052577972412,0.5,-2.037712594673751,2.591214895248413,0.5,-2.0788884443535616,30.65195870399475,10.0,3.042857142857143,4.0,28.245683475004242,10.0
subject-04,1,78,0.707553863525391,bear,knife,0.4,0.4_knife_10_n03041632_40508.png,False,-1.4903634412471507,2.2017717361450195,0.5,-1.452618545939163,2.562859296798706,0.1111111111111111,-2.9125696551949067,30.518030881881714,10.0,4.894444444444444,9.0,26.70567686009058,9.0
subject-03,1,1252,0.89787483215332,oven,knife,0.4,0.4_knife_10_n03041632_40508.png,False,-0.34186278889834565,2.2017717361450195,0.5,-1.452618545939163,2.562859296798706,0.1111111111111111,-2.9125696551949067,30.518030881881714,10.0,4.894444444444444,9.0,26.70567686009058,9.0
subject-02,1,291,1.36352300643921,bird,knife,0.4,0.4_knife_10_n03041632_40508.png,False,2.0417278853104857,2.2017717361450195,0.5,-1.452618545939163,2.562859296798706,0.1111111111111111,-2.9125696551949067,30.518030881881714,10.0,4.894444444444444,9.0,26.70567686009058,9.0
subject-01,1,1192,0.728518009185791,truck,knife,0.4,0.4_knife_10_n03041632_40508.png,False,-0.48432521669482403,2.2017717361450195,0.5,-1.452618545939163,2.562859296798706,0.1111111111111111,-2.9125696551949067,30.518030881881714,10.0,4.894444444444444,9.0,26.70567686009058,9.0
subject-04,1,79,0.767842054367065,airplane,airplane,3.0,3_airplane_10_n02690373_3860.png,True,-1.2371419152563918,0.0192517526447772,1.0,-0.0019536015259205594,2.5135607719421387,1.0,-1.5336624661611742,25.225030288100243,9.0,7.7853535353535355,3.0,20.499933203231937,9.0
subject-03,1,1053,0.861954927444458,airplane,airplane,3.0,3_airplane_10_n02690373_3860.png,True,-0.5036772274739247,0.0192517526447772,1.0,-0.0019536015259205594,2.5135607719421387,1.0,-1.5336624661611742,25.225030288100243,9.0,7.7853535353535355,3.0,20.499933203231937,9.0
subject-02,1,1191,0.60512113571167,airplane,airplane,3.0,3_airplane_10_n02690373_3860.png,True,-1.3923935772952096,0.0192517526447772,1.0,-0.0019536015259205594,2.5135607719421387,1.0,-1.5336624661611742,25.225030288100243,9.0,7.7853535353535355,3.0,20.499933203231937,9.0
subject-01,1,873,0.611908912658691,airplane,airplane,3.0,3_airplane_10_n02690373_3860.png,True,-0.9863758801611758,0.0192517526447772,1.0,-0.0019536015259205594,2.5135607719421387,1.0,-1.5336624661611742,25.225030288100243,9.0,7.7853535353535355,3.0,20.499933203231937,9.0
subject-04,1,80,0.953125,car,car,inf,inf_car_10_n02814533_43694.png,True,-0.45891935494690367,0.1364436149597168,1.0,-0.02333171297227246,2.5073726177215576,0.1666666666666666,-2.767115451468901,25.630012094974518,9.0,3.870833333333333,8.0,30.354603152578562,8.0
subject-03,1,1203,0.943324089050293,car,car,inf,inf_car_10_n02814533_43694.png,True,-0.13711987412534168,0.1364436149597168,1.0,-0.02333171297227246,2.5073726177215576,0.1666666666666666,-2.767115451468901,25.630012094974518,9.0,3.870833333333333,8.0,30.354603152578562,8.0
subject-02,1,1003,0.817175149917603,car,car,inf,inf_car_10_n02814533_43694.png,True,-0.43219124984353596,0.1364436149597168,1.0,-0.02333171297227246,2.5073726177215576,0.1666666666666666,-2.767115451468901,25.630012094974518,9.0,3.870833333333333,8.0,30.354603152578562,8.0
subject-01,1,639,1.05424308776855,car,car,inf,inf_car_10_n02814533_43694.png,True,0.9180567301724094,0.1364436149597168,1.0,-0.02333171297227246,2.5073726177215576,0.1666666666666666,-2.767115451468901,25.630012094974518,9.0,3.870833333333333,8.0,30.354603152578562,8.0
subject-04,1,81,1.02569913864136,chair,chair,1.5,1.5_chair_10_n02791124_2825.png,True,-0.15409458117832642,0.1225174739956855,1.0,-0.016391855139318373,2.5070672035217285,0.1,-3.1273024860295857,26.90243972092867,9.0,3.658333333333333,9.0,26.781512320579065,9.0
subject-03,1,1117,0.839750051498413,chair,chair,1.5,1.5_chair_10_n02791124_2825.png,True,-0.6037072683098402,0.1225174739956855,1.0,-0.016391855139318373,2.5070672035217285,0.1,-3.1273024860295857,26.90243972092867,9.0,3.658333333333333,9.0,26.781512320579065,9.0
subject-02,1,745,0.715673923492432,chair,chair,1.5,1.5_chair_10_n02791124_2825.png,True,-0.8917992144350485,0.1225174739956855,1.0,-0.016391855139318373,2.5070672035217285,0.1,-3.1273024860295857,26.90243972092867,9.0,3.658333333333333,9.0,26.781512320579065,9.0
subject-01,1,935,1.28018522262573,bottle,chair,1.5,1.5_chair_10_n02791124_2825.png,False,1.8908316001302508,0.1225174739956855,1.0,-0.016391855139318373,2.5070672035217285,0.1,-3.1273024860295857,26.90243972092867,9.0,3.658333333333333,9.0,26.781512320579065,9.0
subject-04,1,82,0.921716928482056,oven,bottle,inf,inf_bottle_10_n04591713_2052.png,False,-0.590839050780653,0.5564322471618652,1.0,-0.11413431140283727,2.483731746673584,0.1428571428571428,-2.924467293203884,27.69717574119568,9.0,3.4348595848595846,8.0,29.273088310307028,9.0
subject-03,1,338,0.933765888214111,bottle,bottle,inf,inf_bottle_10_n04591713_2052.png,True,-0.18017830968176549,0.5564322471618652,1.0,-0.11413431140283727,2.483731746673584,0.1428571428571428,-2.924467293203884,27.69717574119568,9.0,3.4348595848595846,8.0,29.273088310307028,9.0
subject-02,1,1181,0.722666025161743,bottle,bottle,inf,inf_bottle_10_n04591713_2052.png,True,-0.8601382608719097,0.5564322471618652,1.0,-0.11413431140283727,2.483731746673584,0.1428571428571428,-2.924467293203884,27.69717574119568,9.0,3.4348595848595846,8.0,29.273088310307028,9.0
subject-01,1,1036,1.09355497360229,car,bottle,inf,inf_bottle_10_n04591713_2052.png,False,1.0873107502509876,0.5564322471618652,1.0,-0.11413431140283727,2.483731746673584,0.1428571428571428,-2.924467293203884,27.69717574119568,9.0,3.4348595848595846,8.0,29.273088310307028,9.0
subject-04,1,83,1.30747318267822,boat,bird,1.0,1_bird_10_n02017213_1150.png,False,1.0294083970911692,1.9374616146087649,1.0,-0.7482761465090372,2.532402753829956,0.0769230769230769,-3.4713028268125137,30.23541808128357,10.0,2.452630702630702,9.0,37.10463872253749,10.0
subject-03,1,751,0.893809080123901,bicycle,bird,1.0,1_bird_10_n02017213_1150.png,False,-0.3601784661630917,1.9374616146087649,1.0,-0.7482761465090372,2.532402753829956,0.0769230769230769,-3.4713028268125137,30.23541808128357,10.0,2.452630702630702,9.0,37.10463872253749,10.0
subject-02,1,891,1.2913920879364,oven,bird,1.0,1_bird_10_n02017213_1150.png,False,1.7151116876073655,1.9374616146087649,1.0,-0.7482761465090372,2.532402753829956,0.0769230769230769,-3.4713028268125137,30.23541808128357,10.0,2.452630702630702,9.0,37.10463872253749,10.0
subject-01,1,71,0.834434986114502,bear,bird,1.0,1_bird_10_n02017213_1150.png,False,-0.028308575428321107,1.9374616146087649,1.0,-0.7482761465090372,2.532402753829956,0.0769230769230769,-3.4713028268125137,30.23541808128357,10.0,2.452630702630702,9.0,37.10463872253749,10.0
subject-04,1,84,1.31319999694824,cat,bottle,0.4,0.4_bottle_10_n02823428_11.png,False,1.053462073744503,0.4350035786628723,1.0,-0.07560923735826836,2.5780322551727295,0.2,-2.573768229102221,28.28438764810562,10.0,3.565079365079365,8.0,28.458409837912857,9.0
subject-03,1,465,1.00296711921692,oven,bottle,0.4,0.4_bottle_10_n02823428_11.png,False,0.13156411932016482,0.4350035786628723,1.0,-0.07560923735826836,2.5780322551727295,0.2,-2.573768229102221,28.28438764810562,10.0,3.565079365079365,8.0,28.458409837912857,9.0
subject-02,1,43,1.136234998703,knife,bottle,0.4,0.4_bottle_10_n02823428_11.png,False,1.0125444725493382,0.4350035786628723,1.0,-0.07560923735826836,2.5780322551727295,0.2,-2.573768229102221,28.28438764810562,10.0,3.565079365079365,8.0,28.458409837912857,9.0
subject-01,1,870,0.698878049850464,bottle,bottle,0.4,0.4_bottle_10_n02823428_11.png,True,-0.6119375702127018,0.4350035786628723,1.0,-0.07560923735826836,2.5780322551727295,0.2,-2.573768229102221,28.28438764810562,10.0,3.565079365079365,8.0,28.458409837912857,9.0
subject-04,1,85,0.950997114181519,bear,bear,0.45,0.45_bear_10_n02134418_1798.png,True,-0.4678568680247947,2.619396448135376,0.3333333333333333,-2.583866149588041,2.5799245834350586,0.2,-2.4306890980812685,30.94847536087036,9.0,3.1857142857142855,10.0,29.846449952077993,10.0
subject-03,1,541,1.01601386070251,boat,bear,0.45,0.45_bear_10_n02134418_1798.png,False,0.19033797091700935,2.619396448135376,0.3333333333333333,-2.583866149588041,2.5799245834350586,0.2,-2.4306890980812685,30.94847536087036,9.0,3.1857142857142855,10.0,29.846449952077993,10.0
subject-02,1,786,0.733951807022095,car,bear,0.45,0.45_bear_10_n02134418_1798.png,False,-0.809035082985836,2.619396448135376,0.3333333333333333,-2.583866149588041,2.5799245834350586,0.2,-2.4306890980812685,30.94847536087036,9.0,3.1857142857142855,10.0,29.846449952077993,10.0
subject-01,1,253,0.59777307510376,clock,bear,0.45,0.45_bear_10_n02134418_1798.png,False,-1.0472365405596238,2.619396448135376,0.3333333333333333,-2.583866149588041,2.5799245834350586,0.2,-2.4306890980812685,30.94847536087036,9.0,3.1857142857142855,10.0,29.846449952077993,10.0
subject-04,1,86,1.41086006164551,car,knife,0.7,0.7_knife_10_n03041632_5727.png,False,1.4636523658357474,2.3934473991394043,0.5,-1.9557456507028672,2.5610456466674805,0.0909090909090909,-3.228841315905156,30.852040767669678,10.0,2.7432900432900427,9.0,29.244223709612214,5.0
subject-03,1,1033,1.26182198524475,keyboard,knife,0.7,0.7_knife_10_n03041632_5727.png,False,1.297671188878065,2.3934473991394043,0.5,-1.9557456507028672,2.5610456466674805,0.0909090909090909,-3.228841315905156,30.852040767669678,10.0,2.7432900432900427,9.0,29.244223709612214,5.0
subject-02,1,1153,0.847986936569214,cat,knife,0.7,0.7_knife_10_n03041632_5727.png,False,-0.29267231941154825,2.3934473991394043,0.5,-1.9557456507028672,2.5610456466674805,0.0909090909090909,-3.228841315905156,30.852040767669678,10.0,2.7432900432900427,9.0,29.244223709612214,5.0
subject-01,1,260,1.00444602966309,bear,knife,0.7,0.7_knife_10_n03041632_5727.png,False,0.7036596822139035,2.3934473991394043,0.5,-1.9557456507028672,2.5610456466674805,0.0909090909090909,-3.228841315905156,30.852040767669678,10.0,2.7432900432900427,9.0,29.244223709612214,5.0
subject-04,1,87,1.15259099006653,chair,bicycle,1.5,1.5_bicycle_10_n02835271_358.png,False,0.37887460905757,1.902425527572632,0.5,-2.7684895408853465,2.516122817993164,0.5,-2.0373528403111076,30.23272395133972,10.0,3.1333333333333333,4.0,29.060593264207817,4.0
subject-03,1,24,,na,bicycle,1.5,1.5_bicycle_10_n02835271_358.png,False,,1.902425527572632,0.5,-2.7684895408853465,2.516122817993164,0.5,-2.0373528403111076,30.23272395133972,10.0,3.1333333333333333,4.0,29.060593264207817,4.0
subject-02,1,785,0.966064929962158,bicycle,bicycle,1.5,1.5_bicycle_10_n02835271_358.png,True,0.2419969463474209,1.902425527572632,0.5,-2.7684895408853465,2.516122817993164,0.5,-2.0373528403111076,30.23272395133972,10.0,3.1333333333333333,4.0,29.060593264207817,4.0
subject-01,1,648,1.35093402862549,bird,bicycle,1.5,1.5_bicycle_10_n02835271_358.png,False,2.195434637538889,1.902425527572632,0.5,-2.7684895408853465,2.516122817993164,0.5,-2.0373528403111076,30.23272395133972,10.0,3.1333333333333333,4.0,29.060593264207817,4.0
subject-04,1,88,1.0724880695343,cat,dog,0.7,0.7_dog_10_n02101006_16129.png,False,0.042427562126669364,2.456127882003784,0.1428571428571428,-3.107576689344523,2.4736039638519287,0.1,-3.3909576286397254,30.727118968963623,9.0,0.4580086580086578,10.0,38.42228127353381,6.0
subject-03,1,1158,0.732014179229736,oven,dog,0.7,0.7_dog_10_n02101006_16129.png,False,-1.089043179607657,2.456127882003784,0.1428571428571428,-3.107576689344523,2.4736039638519287,0.1,-3.3909576286397254,30.727118968963623,9.0,0.4580086580086578,10.0,38.42228127353381,6.0
subject-02,1,404,0.664929151535034,bicycle,dog,0.7,0.7_dog_10_n02101006_16129.png,False,-1.1215767469281577,2.456127882003784,0.1428571428571428,-3.107576689344523,2.4736039638519287,0.1,-3.3909576286397254,30.727118968963623,9.0,0.4580086580086578,10.0,38.42228127353381,6.0
subject-01,1,805,0.552547931671143,bear,dog,0.7,0.7_dog_10_n02101006_16129.png,False,-1.2419495941885876,2.456127882003784,0.1428571428571428,-3.107576689344523,2.4736039638519287,0.1,-3.3909576286397254,30.727118968963623,9.0,0.4580086580086578,10.0,38.42228127353381,6.0
subject-04,1,89,1.20234894752502,boat,boat,0.4,0.4_boat_10_n03344393_6015.png,True,0.587867211786536,2.2027955055236816,1.0,-1.3247835515605084,2.554621696472168,0.5,-2.2942926378478656,30.493308782577515,10.0,3.408333333333333,10.0,29.100026549604795,10.0
subject-03,1,155,1.0167031288147,cat,boat,0.4,0.4_boat_10_n03344393_6015.png,False,0.19344303295729223,2.2027955055236816,1.0,-1.3247835515605084,2.554621696472168,0.5,-2.2942926378478656,30.493308782577515,10.0,3.408333333333333,10.0,29.100026549604795,10.0
subject-02,1,950,0.756401062011719,car,boat,0.4,0.4_boat_10_n03344393_6015.png,False,-0.7073825536936554,2.2027955055236816,1.0,-1.3247835515605084,2.554621696472168,0.5,-2.2942926378478656,30.493308782577515,10.0,3.408333333333333,10.0,29.100026549604795,10.0
subject-01,1,304,0.738440990447998,oven,boat,0.4,0.4_boat_10_n03344393_6015.png,False,-0.44160265495113166,2.2027955055236816,1.0,-1.3247835515605084,2.554621696472168,0.5,-2.2942926378478656,30.493308782577515,10.0,3.408333333333333,10.0,29.100026549604795,10.0
subject-04,1,90,1.25402212142944,bird,bird,0.45,0.45_bird_10_n01614925_7608.png,True,0.8049040769866491,2.32997989654541,0.3333333333333333,-1.8496010664044402,2.577559471130371,0.0666666666666666,-3.3824739728435143,30.926859378814697,10.0,1.1126373626373622,7.0,37.614337371739424,10.0
subject-03,1,571,0.754055976867676,cat,bird,0.45,0.45_bird_10_n01614925_7608.png,False,-0.9897477850655931,2.32997989654541,0.3333333333333333,-1.8496010664044402,2.577559471130371,0.0666666666666666,-3.3824739728435143,30.926859378814697,10.0,1.1126373626373622,7.0,37.614337371739424,10.0
subject-02,1,1066,0.850735902786255,dog,bird,0.45,0.45_bird_10_n01614925_7608.png,False,-0.2802247184096383,2.32997989654541,0.3333333333333333,-1.8496010664044402,2.577559471130371,0.0666666666666666,-3.3824739728435143,30.926859378814697,10.0,1.1126373626373622,7.0,37.614337371739424,10.0
subject-01,1,430,0.735615968704224,boat,bird,0.45,0.45_bird_10_n01614925_7608.png,False,-0.45376554861045293,2.32997989654541,0.3333333333333333,-1.8496010664044402,2.577559471130371,0.0666666666666666,-3.3824739728435143,30.926859378814697,10.0,1.1126373626373622,7.0,37.614337371739424,10.0
subject-04,1,91,1.29234099388123,dog,knife,0.45,0.45_knife_10_n03041632_89912.png,False,0.9658504119325675,0.1120641455054283,1.0,-0.01470803089824417,2.579864025115967,0.125,-2.8833263249349566,27.824788473546505,10.0,6.041666666666666,8.0,23.207294169852346,9.0
subject-03,1,364,0.982454061508179,cat,knife,0.45,0.45_knife_10_n03041632_89912.png,False,0.03915549676083329,0.1120641455054283,1.0,-0.01470803089824417,2.579864025115967,0.125,-2.8833263249349566,27.824788473546505,10.0,6.041666666666666,8.0,23.207294169852346,9.0
subject-02,1,482,0.731844186782837,boat,knife,0.45,0.45_knife_10_n03041632_89912.png,False,-0.818578603615228,0.1120641455054283,1.0,-0.01470803089824417,2.579864025115967,0.125,-2.8833263249349566,27.824788473546505,10.0,6.041666666666666,8.0,23.207294169852346,9.0
subject-01,1,1200,,na,knife,0.45,0.45_knife_10_n03041632_89912.png,False,,0.1120641455054283,1.0,-0.01470803089824417,2.579864025115967,0.125,-2.8833263249349566,27.824788473546505,10.0,6.041666666666666,8.0,23.207294169852346,9.0
subject-04,1,92,1.04579901695251,keyboard,oven,0.7,0.7_oven_10_n04111531_9838.png,False,-0.06967138341569462,2.168041706085205,0.5,-1.5088033933372538,2.5012965202331543,0.0625,-5.6191512326561215,30.161153316497803,10.0,1.8353535353535353,7.0,39.63071250976768,6.0
subject-03,1,670,1.1148669719696,oven,oven,0.7,0.7_oven_10_n04111531_9838.png,True,0.6356582141298767,2.168041706085205,0.5,-1.5088033933372538,2.5012965202331543,0.0625,-5.6191512326561215,30.161153316497803,10.0,1.8353535353535353,7.0,39.63071250976768,6.0
subject-02,1,226,0.772512912750244,keyboard,oven,0.7,0.7_oven_10_n04111531_9838.png,False,-0.6344264409003288,2.168041706085205,0.5,-1.5088033933372538,2.5012965202331543,0.0625,-5.6191512326561215,30.161153316497803,10.0,1.8353535353535353,7.0,39.63071250976768,6.0
subject-01,1,872,0.928071022033691,truck,oven,0.7,0.7_oven_10_n04111531_9838.png,False,0.3748335066018129,2.168041706085205,0.5,-1.5088033933372538,2.5012965202331543,0.0625,-5.6191512326561215,30.161153316497803,10.0,1.8353535353535353,7.0,39.63071250976768,6.0
