subject_id,Session,trial,rt,object_response,category,condition,item_id,response_correct,rt_zscore,output_entropy,output_rank_correct,output_logprob_correct,midpoint_entropy,midpoint_rank_correct,midpoint_logprob_correct,auc_entropy,layer_biggest_change_entropy,auc_rank_correct,layer_biggest_change_rank_correct,auc_logprob_correct,layer_biggest_change_logprob_correct
subject-04,1,1,0.906422853469849,cat,cat,c01,c01_cat_10_n02123159_386.png,True,0.937533727695546,2.067326545715332,0.1111111111111111,-3.9651532137063668,1.6562683582305908,0.1666666666666666,-3.9618879194907968,26.957602977752686,10.0,1.047222222222222,4.0,40.34839916873143,5.0
subject-03,1,817,1.08768010139465,bear,cat,c01,c01_cat_10_n02123159_386.png,False,0.900967196701495,2.067326545715332,0.1111111111111111,-3.9651532137063668,1.6562683582305908,0.1666666666666666,-3.9618879194907968,26.957602977752686,10.0,1.047222222222222,4.0,40.34839916873143,5.0
subject-02,1,472,0.737253904342651,bicycle,cat,c01,c01_cat_10_n02123159_386.png,False,-0.4677373897483177,2.067326545715332,0.1111111111111111,-3.9651532137063668,1.6562683582305908,0.1666666666666666,-3.9618879194907968,26.957602977752686,10.0,1.047222222222222,4.0,40.34839916873143,5.0
subject-01,1,233,1.0562539100647,cat,cat,c01,c01_cat_10_n02123159_386.png,True,0.7485023965693427,2.067326545715332,0.1111111111111111,-3.9651532137063668,1.6562683582305908,0.1666666666666666,-3.9618879194907968,26.957602977752686,10.0,1.047222222222222,4.0,40.34839916873143,5.0
subject-04,1,2,0.712171077728271,boat,oven,c10,c10_oven_10_n04111531_6128.png,False,-0.07328213585191518,0.0326104089617729,1.0,-0.003806854173681142,2.223647117614746,0.0625,-7.745237033776851,26.788860075175762,10.0,1.1236111111111111,10.0,60.0194176372948,6.0
subject-03,1,1135,0.84286904335022,bear,oven,c10,c10_oven_10_n04111531_6128.png,False,-0.09982571690167372,0.0326104089617729,1.0,-0.003806854173681142,2.223647117614746,0.0625,-7.745237033776851,26.788860075175762,10.0,1.1236111111111111,10.0,60.0194176372948,6.0
subject-02,1,586,0.90288782119751,truck,oven,c10,c10_oven_10_n04111531_6128.png,False,0.3060469579683924,0.0326104089617729,1.0,-0.003806854173681142,2.223647117614746,0.0625,-7.745237033776851,26.788860075175762,10.0,1.1236111111111111,10.0,60.0194176372948,6.0
subject-01,1,1076,1.26679587364197,keyboard,oven,c10,c10_oven_10_n04111531_6128.png,False,1.8474588658738536,0.0326104089617729,1.0,-0.003806854173681142,2.223647117614746,0.0625,-7.745237033776851,26.788860075175762,10.0,1.1236111111111111,10.0,60.0194176372948,6.0
subject-04,1,3,0.693978071212769,airplane,airplane,c15,c15_airplane_10_n02690373_1933.png,True,-0.1679519504329492,0.0005803938838653,1.0,-4.3035479540797835e-05,2.142091989517212,0.3333333333333333,-2.0153382515001215,25.038842403504532,10.0,8.416666666666666,0.0,18.27769699866997,9.0
subject-03,1,203,0.579658985137939,airplane,airplane,c15,c15_airplane_10_n02690373_1933.png,True,-1.1758341421425025,0.0005803938838653,1.0,-4.3035479540797835e-05,2.142091989517212,0.3333333333333333,-2.0153382515001215,25.038842403504532,10.0,8.416666666666666,0.0,18.27769699866997,9.0
subject-02,1,454,0.866344928741455,boat,airplane,c15,c15_airplane_10_n02690373_1933.png,False,0.1353312088047215,0.0005803938838653,1.0,-4.3035479540797835e-05,2.142091989517212,0.3333333333333333,-2.0153382515001215,25.038842403504532,10.0,8.416666666666666,0.0,18.27769699866997,9.0
subject-01,1,457,1.0973219871521,airplane,airplane,c15,c15_airplane_10_n02690373_1933.png,True,0.9628636014819729,0.0005803938838653,1.0,-4.3035479540797835e-05,2.142091989517212,0.3333333333333333,-2.0153382515001215,25.038842403504532,10.0,8.416666666666666,0.0,18.27769699866997,9.0
subject-04,1,4,1.01393890380859,cat,clock,c01,c01_clock_10_n04548280_2374.png,False,1.497008300596992,1.756792068481445,1.0,-0.8951237720305959,1.468029260635376,1.0,-0.6657728991089945,25.78934407234192,10.0,8.116666666666667,10.0,17.97639494590513,10.0
subject-03,1,392,1.0634241104126,truck,clock,c01,c01_clock_10_n04548280_2374.png,False,0.8018081796163589,1.756792068481445,1.0,-0.8951237720305959,1.468029260635376,1.0,-0.6657728991089945,25.78934407234192,10.0,8.116666666666667,10.0,17.97639494590513,10.0
subject-02,1,123,0.675333023071289,clock,clock,c01,c01_clock_10_n04548280_2374.png,True,-0.7570103214908552,1.756792068481445,1.0,-0.8951237720305959,1.468029260635376,1.0,-0.6657728991089945,25.78934407234192,10.0,8.116666666666667,10.0,17.97639494590513,10.0
subject-01,1,368,0.855435848236084,clock,clock,c01,c01_clock_10_n04548280_2374.png,True,-0.2996986577480604,1.756792068481445,1.0,-0.8951237720305959,1.468029260635376,1.0,-0.6657728991089945,25.78934407234192,10.0,8.116666666666667,10.0,17.97639494590513,10.0
subject-04,1,5,1.3655800819397,knife,bottle,c15,c15_bottle_10_n04591713_6842.png,False,3.326821592004473,1.6524083614349363,0.5,-1.4450361173775697,1.9588873386383057,0.5,-1.2588492199451713,27.864360094070435,10.0,3.8499999999999996,3.0,24.134190278740256,10.0
subject-03,1,80,1.39283800125122,car,bottle,c15,c15_bottle_10_n04591713_6842.png,False,2.1484593081528276,1.6524083614349363,0.5,-1.4450361173775697,1.9588873386383057,0.5,-1.2588492199451713,27.864360094070435,10.0,3.8499999999999996,3.0,24.134190278740256,10.0
subject-02,1,1157,0.951030969619751,car,bottle,c15,c15_bottle_10_n04591713_6842.png,False,0.530955089142854,1.6524083614349363,0.5,-1.4450361173775697,1.9588873386383057,0.5,-1.2588492199451713,27.864360094070435,10.0,3.8499999999999996,3.0,24.134190278740256,10.0
subject-01,1,525,0.705161094665527,oven,bottle,c15,c15_bottle_10_n04591713_6842.png,False,-1.0840810668581353,1.6524083614349363,0.5,-1.4450361173775697,1.9588873386383057,0.5,-1.2588492199451713,27.864360094070435,10.0,3.8499999999999996,3.0,24.134190278740256,10.0
subject-04,1,6,1.12531495094299,bear,dog,c10,c10_dog_10_n02110806_642.png,False,2.076568898346341,0.0938850417733192,1.0,-0.011889223752342531,2.022101402282715,0.0769230769230769,-4.349993324173859,26.161549665033817,10.0,2.0047008547008547,10.0,37.36692204873195,10.0
subject-03,1,754,0.715999841690063,car,dog,c10,c10_dog_10_n02110806_642.png,False,-0.6184697642344255,0.0938850417733192,1.0,-0.011889223752342531,2.022101402282715,0.0769230769230769,-4.349993324173859,26.161549665033817,10.0,2.0047008547008547,10.0,37.36692204873195,10.0
subject-02,1,366,0.738894939422607,dog,dog,c10,c10_dog_10_n02110806_642.png,True,-0.4600710416776103,0.0938850417733192,1.0,-0.011889223752342531,2.022101402282715,0.0769230769230769,-4.349993324173859,26.161549665033817,10.0,2.0047008547008547,10.0,37.36692204873195,10.0
subject-01,1,1256,0.637929201126099,cat,dog,c10,c10_dog_10_n02110806_642.png,False,-1.4350083741435091,0.0938850417733192,1.0,-0.011889223752342531,2.022101402282715,0.0769230769230769,-4.349993324173859,26.161549665033817,10.0,2.0047008547008547,10.0,37.36692204873195,10.0
subject-04,1,7,0.711137056350708,bear,bear,c100,c100_bear_10_n02132136_14778.png,True,-0.07866280847484346,0.0695413202047348,1.0,-0.009852205560686103,2.002021074295044,0.125,-3.4954739403488713,25.795411452651024,10.0,2.3146825396825395,10.0,31.33591609509642,10.0
subject-03,1,355,0.980437994003296,bear,bear,c100,c100_bear_10_n02132136_14778.png,True,0.46255913632025775,0.0695413202047348,1.0,-0.009852205560686103,2.002021074295044,0.125,-3.4954739403488713,25.795411452651024,10.0,2.3146825396825395,10.0,31.33591609509642,10.0
subject-02,1,317,0.936686992645264,bear,bear,c100,c100_bear_10_n02132136_14778.png,True,0.46394499195006217,0.0695413202047348,1.0,-0.009852205560686103,2.002021074295044,0.125,-3.4954739403488713,25.795411452651024,10.0,2.3146825396825395,10.0,31.33591609509642,10.0
subject-01,1,1085,0.938987970352173,bear,bear,c100,c100_bear_10_n02132136_14778.png,True,0.13641461660115495,0.0695413202047348,1.0,-0.009852205560686103,2.002021074295044,0.125,-3.4954739403488713,25.795411452651024,10.0,2.3146825396825395,10.0,31.33591609509642,10.0
subject-04,1,8,0.649130821228027,bear,bear,c100,c100_bear_10_n02134084_1207.png,True,-0.4013207911964102,0.000849561241921,1.0,-7.027634551470962e-05,2.227321147918701,0.2,-2.816368581520688,26.261675195244607,10.0,3.3928571428571423,9.0,27.58909834100204,9.0
subject-03,1,846,1.10625982284546,bear,bear,c100,c100_bear_10_n02134084_1207.png,True,0.9769215008625305,0.000849561241921,1.0,-7.027634551470962e-05,2.227321147918701,0.2,-2.816368581520688,26.261675195244607,10.0,3.3928571428571423,9.0,27.58909834100204,9.0
subject-02,1,506,0.627417087554932,bear,bear,c100,c100_bear_10_n02134084_1207.png,True,-0.9808569925881134,0.000849561241921,1.0,-7.027634551470962e-05,2.227321147918701,0.2,-2.816368581520688,26.261675195244607,10.0,3.3928571428571423,9.0,27.58909834100204,9.0
subject-01,1,1012,0.859711885452271,bear,bear,c100,c100_bear_10_n02134084_1207.png,True,-0.27737921756676426,0.000849561241921,1.0,-7.027634551470962e-05,2.227321147918701,0.2,-2.816368581520688,26.261675195244607,10.0,3.3928571428571423,9.0,27.58909834100204,9.0
subject-04,1,9,1.13689112663269,bottle,bottle,c50,c50_bottle_10_n04560804_5756.png,True,2.1368071225874825,0.3144843578338623,1.0,-0.05053021950635798,2.022376537322998,0.5,-1.2998106741109319,26.121382236480713,10.0,6.087301587301587,10.0,20.735588502355917,10.0
subject-03,1,520,1.39418077468872,bottle,bottle,c50,c50_bottle_10_n04560804_5756.png,True,2.1539485950811192,0.3144843578338623,1.0,-0.05053021950635798,2.022376537322998,0.5,-1.2998106741109319,26.121382236480713,10.0,6.087301587301587,10.0,20.735588502355917,10.0
subject-02,1,946,1.141930103302,bottle,bottle,c50,c50_bottle_10_n04560804_5756.png,True,1.4227697877316883,0.3144843578338623,1.0,-0.05053021950635798,2.022376537322998,0.5,-1.2998106741109319,26.121382236480713,10.0,6.087301587301587,10.0,20.735588502355917,10.0
subject-01,1,231,1.2946400642395,keyboard,bottle,c50,c50_bottle_10_n04560804_5756.png,False,1.992795942007245,0.3144843578338623,1.0,-0.05053021950635798,2.022376537322998,0.5,-1.2998106741109319,26.121382236480713,10.0,6.087301587301587,10.0,20.735588502355917,10.0
subject-04,1,10,1.10082697868347,oven,elephant,c01,c01_elephant_10_n02504013_3599.png,False,1.9491423626993103,2.4480364322662354,0.1666666666666666,-2.750522299000109,1.8592172861099243,0.1,-4.245368603901718,28.000880122184753,4.0,0.7602564102564101,8.0,42.199262896812634,5.0
subject-03,1,713,1.42168307304382,oven,elephant,c01,c01_elephant_10_n02504013_3599.png,False,2.2663785870980186,2.4480364322662354,0.1666666666666666,-2.750522299000109,1.8592172861099243,0.1,-4.245368603901718,28.000880122184753,4.0,0.7602564102564101,8.0,42.199262896812634,5.0
subject-02,1,1139,1.23053979873657,cat,elephant,c01,c01_elephant_10_n02504013_3599.png,False,1.8367236245131782,2.4480364322662354,0.1666666666666666,-2.750522299000109,1.8592172861099243,0.1,-4.245368603901718,28.000880122184753,4.0,0.7602564102564101,8.0,42.199262896812634,5.0
subject-01,1,950,0.746545076370239,clock,elephant,c01,c01_elephant_10_n02504013_3599.png,False,-0.8680709487455925,2.4480364322662354,0.1666666666666666,-2.750522299000109,1.8592172861099243,0.1,-4.245368603901718,28.000880122184753,4.0,0.7602564102564101,8.0,42.199262896812634,5.0
subject-04,1,11,1.02257609367371,bottle,bottle,c100,c100_bottle_10_n02823428_6050.png,True,1.541953107401484,0.6076326370239258,1.0,-0.2545336401028414,1.8851420879364016,0.5,-1.5867379423186765,25.321035146713257,10.0,6.366666666666667,10.0,22.22639821757958,10.0
subject-03,1,1206,0.782783031463623,bottle,bottle,c100,c100_bottle_10_n02823428_6050.png,True,-0.34545863635855734,0.6076326370239258,1.0,-0.2545336401028414,1.8851420879364016,0.5,-1.5867379423186765,25.321035146713257,10.0,6.366666666666667,10.0,22.22639821757958,10.0
subject-02,1,96,1.01630997657776,bottle,bottle,c100,c100_bottle_10_n02823428_6050.png,True,0.8359160221313546,0.6076326370239258,1.0,-0.2545336401028414,1.8851420879364016,0.5,-1.5867379423186765,25.321035146713257,10.0,6.366666666666667,10.0,22.22639821757958,10.0
subject-01,1,53,0.975738048553467,bottle,bottle,c100,c100_bottle_10_n02823428_6050.png,True,0.328237355881045,0.6076326370239258,1.0,-0.2545336401028414,1.8851420879364016,0.5,-1.5867379423186765,25.321035146713257,10.0,6.366666666666667,10.0,22.22639821757958,10.0
subject-04,1,12,1.03438305854797,cat,bicycle,c01,c01_bicycle_10_n02835271_1436.png,False,1.603392274944163,2.0404765605926514,0.1,-4.224812583565545,1.826094388961792,0.2,-3.5667587010367967,27.44191861152649,10.0,1.2222222222222223,7.0,37.16419505967286,7.0
subject-03,1,84,1.19443011283875,oven,bicycle,c01,c01_bicycle_10_n02835271_1436.png,False,1.337363558180082,2.0404765605926514,0.1,-4.224812583565545,1.826094388961792,0.2,-3.5667587010367967,27.44191861152649,10.0,1.2222222222222223,7.0,37.16419505967286,7.0
subject-02,1,1160,0.776505947113037,knife,bicycle,c01,c01_bicycle_10_n02835271_1436.png,False,-0.28436542772289325,2.0404765605926514,0.1,-4.224812583565545,1.826094388961792,0.2,-3.5667587010367967,27.44191861152649,10.0,1.2222222222222223,7.0,37.16419505967286,7.0
subject-01,1,265,0.656836986541748,cat,bicycle,c01,c01_bicycle_10_n02835271_1436.png,False,-1.336316252393998,2.0404765605926514,0.1,-4.224812583565545,1.826094388961792,0.2,-3.5667587010367967,27.44191861152649,10.0,1.2222222222222223,7.0,37.16419505967286,7.0
subject-04,1,13,0.816271066665649,boat,boat,c30,c30_boat_10_n04273569_10099.png,True,0.4684164911557664,0.0017140640411525,1.0,-0.00014216718306428068,2.27689790725708,0.25,-2.136567292707883,26.347340179840103,10.0,5.333333333333334,1.0,21.54389353834409,10.0
subject-03,1,990,0.938277006149292,airplane,boat,c30,c30_boat_10_n04273569_10099.png,False,0.2902041037827212,0.0017140640411525,1.0,-0.00014216718306428068,2.27689790725708,0.25,-2.136567292707883,26.347340179840103,10.0,5.333333333333334,1.0,21.54389353834409,10.0
subject-02,1,660,0.694689989089966,boat,boat,c30,c30_boat_10_n04273569_10099.png,True,-0.6665812740532973,0.0017140640411525,1.0,-0.00014216718306428068,2.27689790725708,0.25,-2.136567292707883,26.347340179840103,10.0,5.333333333333334,1.0,21.54389353834409,10.0
subject-01,1,693,1.22183704376221,car,boat,c30,c30_boat_10_n04273569_10099.png,False,1.6127892726524038,0.0017140640411525,1.0,-0.00014216718306428068,2.27689790725708,0.25,-2.136567292707883,26.347340179840103,10.0,5.333333333333334,1.0,21.54389353834409,10.0
subject-04,1,14,0.696114063262939,airplane,airplane,c30,c30_airplane_10_n02690373_6138.png,True,-0.15683702167371122,0.0002995565882883,1.0,-2.163672012571853e-05,2.176321506500244,0.3333333333333333,-1.8894053481352633,24.477910383080598,9.0,8.083333333333332,0.0,18.279908915397588,9.0
subject-03,1,858,0.722406148910522,airplane,airplane,c30,c30_airplane_10_n02690373_6138.png,True,-0.5922806414071528,0.0002995565882883,1.0,-2.163672012571853e-05,2.176321506500244,0.3333333333333333,-1.8894053481352633,24.477910383080598,9.0,8.083333333333332,0.0,18.279908915397588,9.0
subject-02,1,1225,0.53040599822998,airplane,airplane,c30,c30_airplane_10_n02690373_6138.png,True,-1.4340592346166812,0.0002995565882883,1.0,-2.163672012571853e-05,2.176321506500244,0.3333333333333333,-1.8894053481352633,24.477910383080598,9.0,8.083333333333332,0.0,18.279908915397588,9.0
subject-01,1,648,0.689938068389893,airplane,airplane,c30,c30_airplane_10_n02690373_6138.png,True,-1.1635400161514469,0.0002995565882883,1.0,-2.163672012571853e-05,2.176321506500244,0.3333333333333333,-1.8894053481352633,24.477910383080598,9.0,8.083333333333332,0.0,18.279908915397588,9.0
subject-04,1,15,0.917696952819824,airplane,airplane,c100,c100_airplane_10_n02690373_5007.png,True,0.9962000561070069,0.0001504413958173,1.0,-1.0490472505172006e-05,2.067246675491333,0.3333333333333333,-1.857074582728986,25.43743491100031,10.0,6.616666666666667,0.0,21.23446130457662,9.0
subject-03,1,642,0.859397172927856,airplane,airplane,c100,c100_airplane_10_n02690373_5007.png,True,-0.032258364803505524,0.0001504413958173,1.0,-1.0490472505172006e-05,2.067246675491333,0.3333333333333333,-1.857074582728986,25.43743491100031,10.0,6.616666666666667,0.0,21.23446130457662,9.0
subject-02,1,968,0.582782983779907,airplane,airplane,c100,c100_airplane_10_n02690373_5007.png,True,-1.1893720813530657,0.0001504413958173,1.0,-1.0490472505172006e-05,2.067246675491333,0.3333333333333333,-1.857074582728986,25.43743491100031,10.0,6.616666666666667,0.0,21.23446130457662,9.0
subject-01,1,896,0.838773012161255,airplane,airplane,c100,c100_airplane_10_n02690373_5007.png,True,-0.3866729178445442,0.0001504413958173,1.0,-1.0490472505172006e-05,2.067246675491333,0.3333333333333333,-1.857074582728986,25.43743491100031,10.0,6.616666666666667,0.0,21.23446130457662,9.0
subject-04,1,16,1.37366509437561,car,cat,c03,c03_cat_10_n02123045_840.png,False,3.368893067521219,0.1649249345064163,1.0,-0.025173703506717212,1.9047589302062988,0.2,-3.3608792925385442,25.79463727772236,10.0,4.7896825396825395,7.0,30.523606664738853,9.0
subject-03,1,403,1.05319499969482,car,cat,c03,c03_cat_10_n02123045_840.png,False,0.7599913532009499,0.1649249345064163,1.0,-0.025173703506717212,1.9047589302062988,0.2,-3.3608792925385442,25.79463727772236,10.0,4.7896825396825395,7.0,30.523606664738853,9.0
subject-02,1,1204,0.650474071502686,cat,cat,c03,c03_cat_10_n02123045_840.png,True,-0.8731427416478229,0.1649249345064163,1.0,-0.025173703506717212,1.9047589302062988,0.2,-3.3608792925385442,25.79463727772236,10.0,4.7896825396825395,7.0,30.523606664738853,9.0
subject-01,1,413,1.09748911857605,knife,cat,c03,c03_cat_10_n02123045_840.png,False,0.9637359698994286,0.1649249345064163,1.0,-0.025173703506717212,1.9047589302062988,0.2,-3.3608792925385442,25.79463727772236,10.0,4.7896825396825395,7.0,30.523606664738853,9.0
subject-04,1,17,1.07747197151184,knife,knife,c50,c50_knife_10_n03041632_4714.png,True,1.827611366896448,0.0178739503026008,1.0,-0.0021216711121416097,2.2756333351135254,0.125,-3.117943427274342,26.995944924652576,10.0,3.719877344877345,7.0,32.53505262554292,10.0
subject-03,1,161,0.925689935684204,oven,knife,c50,c50_knife_10_n03041632_4714.png,False,0.23874788679191186,0.0178739503026008,1.0,-0.0021216711121416097,2.2756333351135254,0.125,-3.117943427274342,26.995944924652576,10.0,3.719877344877345,7.0,32.53505262554292,10.0
subject-02,1,970,0.784140825271606,knife,knife,c50,c50_knife_10_n03041632_4714.png,True,-0.2486979187488605,0.0178739503026008,1.0,-0.0021216711121416097,2.2756333351135254,0.125,-3.117943427274342,26.995944924652576,10.0,3.719877344877345,7.0,32.53505262554292,10.0
subject-01,1,362,1.03867983818054,knife,knife,c50,c50_knife_10_n03041632_4714.png,True,0.6567717996803665,0.0178739503026008,1.0,-0.0021216711121416097,2.2756333351135254,0.125,-3.117943427274342,26.995944924652576,10.0,3.719877344877345,7.0,32.53505262554292,10.0
subject-04,1,18,0.911098957061768,dog,dog,c01,c01_dog_10_n02111500_8079.png,True,0.9618664766357212,2.0110113620758057,0.0714285714285714,-4.760170724036668,1.7858502864837646,0.0769230769230769,-4.842376593383983,27.320971727371216,10.0,0.3709817959817958,8.0,45.62200620159963,6.0
subject-03,1,75,0.881379127502441,clock,dog,c01,c01_dog_10_n02111500_8079.png,False,0.05760434213924533,2.0110113620758057,0.0714285714285714,-4.760170724036668,1.7858502864837646,0.0769230769230769,-4.842376593383983,27.320971727371216,10.0,0.3709817959817958,8.0,45.62200620159963,6.0
subject-02,1,1002,0.53593111038208,boat,dog,c01,c01_dog_10_n02111500_8079.png,False,-1.4082478224140667,2.0110113620758057,0.0714285714285714,-4.760170724036668,1.7858502864837646,0.0769230769230769,-4.842376593383983,27.320971727371216,10.0,0.3709817959817958,8.0,45.62200620159963,6.0
subject-01,1,1007,0.608410120010376,oven,dog,c01,c01_dog_10_n02111500_8079.png,False,-1.5890878013933774,2.0110113620758057,0.0714285714285714,-4.760170724036668,1.7858502864837646,0.0769230769230769,-4.842376593383983,27.320971727371216,10.0,0.3709817959817958,8.0,45.62200620159963,6.0
subject-04,1,19,0.819046020507812,truck,truck,c10,c10_truck_10_n04467665_56815.png,True,0.48285634558470036,0.0038491198793053,1.0,-0.00035101374655527356,2.0548014640808105,0.1,-3.9688977571725608,25.921579928137362,10.0,3.1670385170385167,9.0,36.52768785904716,10.0
subject-03,1,592,0.952568054199219,truck,truck,c10,c10_truck_10_n04467665_56815.png,True,0.3486262180882507,0.0038491198793053,1.0,-0.00035101374655527356,2.0548014640808105,0.1,-3.9688977571725608,25.921579928137362,10.0,3.1670385170385167,9.0,36.52768785904716,10.0
subject-02,1,1109,0.651977062225342,truck,truck,c10,c10_truck_10_n04467665_56815.png,True,-0.8661212890489947,0.0038491198793053,1.0,-0.00035101374655527356,2.0548014640808105,0.1,-3.9688977571725608,25.921579928137362,10.0,3.1670385170385167,9.0,36.52768785904716,10.0
subject-01,1,1116,0.779304981231689,truck,truck,c10,c10_truck_10_n04467665_56815.png,True,-0.6970755387589371,0.0038491198793053,1.0,-0.00035101374655527356,2.0548014640808105,0.1,-3.9688977571725608,25.921579928137362,10.0,3.1670385170385167,9.0,36.52768785904716,10.0
subject-04,1,20,0.752878904342651,boat,cat,c03,c03_cat_10_n02123597_11138.png,False,0.13854664540512757,0.1447059661149978,1.0,-0.021810446393733373,1.7773840427398682,0.1666666666666666,-3.7354692692237896,25.767154410481453,10.0,3.7884920634920634,8.0,34.18445199805424,10.0
subject-03,1,44,1.09948801994324,cat,cat,c03,c03_cat_10_n02123597_11138.png,True,0.9492382237630569,0.1447059661149978,1.0,-0.021810446393733373,1.7773840427398682,0.1666666666666666,-3.7354692692237896,25.767154410481453,10.0,3.7884920634920634,8.0,34.18445199805424,10.0
subject-02,1,26,0.679955959320068,bird,cat,c03,c03_cat_10_n02123597_11138.png,False,-0.7354135629421094,0.1447059661149978,1.0,-0.021810446393733373,1.7773840427398682,0.1666666666666666,-3.7354692692237896,25.767154410481453,10.0,3.7884920634920634,8.0,34.18445199805424,10.0
subject-01,1,215,1.10938882827759,bird,cat,c03,c03_cat_10_n02123597_11138.png,False,1.0258483523298008,0.1447059661149978,1.0,-0.021810446393733373,1.7773840427398682,0.1666666666666666,-3.7354692692237896,25.767154410481453,10.0,3.7884920634920634,8.0,34.18445199805424,10.0
subject-04,1,21,0.562525987625122,boat,boat,c100,c100_boat_10_n04273569_24747.png,True,-0.8519809683376744,0.0743702203035354,1.0,-0.012642813226095872,1.913670539855957,0.25,-2.611775743193618,25.621446684002876,10.0,2.9206349206349205,10.0,28.64830759041567,10.0
subject-03,1,126,0.516204833984375,boat,boat,c100,c100_boat_10_n04273569_24747.png,True,-1.4352360879552033,0.0743702203035354,1.0,-0.012642813226095872,1.913670539855957,0.25,-2.611775743193618,25.621446684002876,10.0,2.9206349206349205,10.0,28.64830759041567,10.0
subject-02,1,461,0.722884178161621,boat,boat,c100,c100_boat_10_n04273569_24747.png,True,-0.5348677783244656,0.0743702203035354,1.0,-0.012642813226095872,1.913670539855957,0.25,-2.611775743193618,25.621446684002876,10.0,2.9206349206349205,10.0,28.64830759041567,10.0
subject-01,1,538,0.622703075408936,boat,boat,c100,c100_boat_10_n04273569_24747.png,True,-1.5144835014531248,0.0743702203035354,1.0,-0.012642813226095872,1.913670539855957,0.25,-2.611775743193618,25.621446684002876,10.0,2.9206349206349205,10.0,28.64830759041567,10.0
subject-04,1,22,0.652868986129761,bird,bird,c30,c30_bird_10_n02013706_19220.png,True,-0.3818687353848028,0.0020859050564467,1.0,-0.00018353954361503467,2.230896472930908,0.1666666666666666,-2.9256309331522172,26.445302467327565,10.0,3.9980158730158726,8.0,31.080358049694784,10.0
subject-03,1,730,0.562508106231689,bird,bird,c30,c30_bird_10_n02013706_19220.png,True,-1.24594730699932,0.0020859050564467,1.0,-0.00018353954361503467,2.230896472930908,0.1666666666666666,-2.9256309331522172,26.445302467327565,10.0,3.9980158730158726,8.0,31.080358049694784,10.0
subject-02,1,5,0.542098045349121,bird,bird,c30,c30_bird_10_n02013706_19220.png,True,-1.3794380361004055,0.0020859050564467,1.0,-0.00018353954361503467,2.230896472930908,0.1666666666666666,-2.9256309331522172,26.445302467327565,10.0,3.9980158730158726,8.0,31.080358049694784,10.0
subject-01,1,548,0.886812925338745,bird,bird,c30,c30_bird_10_n02013706_19220.png,True,-0.13592113195719513,0.0020859050564467,1.0,-0.00018353954361503467,2.230896472930908,0.1666666666666666,-2.9256309331522172,26.445302467327565,10.0,3.9980158730158726,8.0,31.080358049694784,10.0
subject-04,1,23,0.880724191665649,chair,chair,c30,c30_chair_10_n04429376_6242.png,True,0.8038072022907823,0.3330601751804352,1.0,-0.06521674994341671,2.111953020095825,0.0714285714285714,-4.450808619492193,26.58908298611641,10.0,1.4504329004329,10.0,42.88594980204785,10.0
subject-03,1,1086,0.855253934860229,chair,chair,c30,c30_chair_10_n04429376_6242.png,True,-0.04919601186313876,0.3330601751804352,1.0,-0.06521674994341671,2.111953020095825,0.0714285714285714,-4.450808619492193,26.58908298611641,10.0,1.4504329004329,10.0,42.88594980204785,10.0
subject-02,1,375,0.89172887802124,boat,chair,c30,c30_chair_10_n04429376_6242.png,False,0.25391623661121887,0.3330601751804352,1.0,-0.06521674994341671,2.111953020095825,0.0714285714285714,-4.450808619492193,26.58908298611641,10.0,1.4504329004329,10.0,42.88594980204785,10.0
subject-01,1,1120,0.862334012985229,chair,chair,c30,c30_chair_10_n04429376_6242.png,True,-0.26369261577619907,0.3330601751804352,1.0,-0.06521674994341671,2.111953020095825,0.0714285714285714,-4.450808619492193,26.58908298611641,10.0,1.4504329004329,10.0,42.88594980204785,10.0
subject-04,1,24,0.623991012573242,airplane,airplane,c30,c30_airplane_10_n02690373_8876.png,True,-0.5321392472840953,0.0002722971548791,1.0,-1.9490908788081347e-05,2.2228314876556396,0.3333333333333333,-1.8688770622963713,24.355999016057467,9.0,8.583333333333332,0.0,17.86477092226202,9.0
subject-03,1,522,0.660372018814087,airplane,airplane,c30,c30_airplane_10_n02690373_8876.png,True,-0.8458775103475332,0.0002722971548791,1.0,-1.9490908788081347e-05,2.2228314876556396,0.3333333333333333,-1.8688770622963713,24.355999016057467,9.0,8.583333333333332,0.0,17.86477092226202,9.0
subject-02,1,287,0.912328958511353,airplane,airplane,c30,c30_airplane_10_n02690373_8876.png,True,0.35015268472300054,0.0002722971548791,1.0,-1.9490908788081347e-05,2.2228314876556396,0.3333333333333333,-1.8688770622963713,24.355999016057467,9.0,8.583333333333332,0.0,17.86477092226202,9.0
subject-01,1,895,0.828898906707764,airplane,airplane,c30,c30_airplane_10_n02690373_8876.png,True,-0.4382123443908651,0.0002722971548791,1.0,-1.9490908788081347e-05,2.2228314876556396,0.3333333333333333,-1.8688770622963713,24.355999016057467,9.0,8.583333333333332,0.0,17.86477092226202,9.0
subject-04,1,25,0.879863977432251,elephant,elephant,c100,c100_elephant_10_n02504458_12217.png,True,0.7993309590757665,0.0141351129859685,1.0,-0.0014290286547752485,2.254591941833496,0.125,-3.0778379730951637,26.669337740167975,10.0,5.182575757575757,6.0,29.533362672107224,10.0
subject-03,1,36,0.923058032989502,elephant,elephant,c100,c100_elephant_10_n02504458_12217.png,True,0.22798861150757055,0.0141351129859685,1.0,-0.0014290286547752485,2.254591941833496,0.125,-3.0778379730951637,26.669337740167975,10.0,5.182575757575757,6.0,29.533362672107224,10.0
subject-02,1,88,0.805934906005859,elephant,elephant,c100,c100_elephant_10_n02504458_12217.png,True,-0.14688351463851904,0.0141351129859685,1.0,-0.0014290286547752485,2.254591941833496,0.125,-3.0778379730951637,26.669337740167975,10.0,5.182575757575757,6.0,29.533362672107224,10.0
subject-01,1,336,0.7795569896698,elephant,elephant,c100,c100_elephant_10_n02504458_12217.png,True,-0.6957601415873905,0.0141351129859685,1.0,-0.0014290286547752485,2.254591941833496,0.125,-3.0778379730951637,26.669337740167975,10.0,5.182575757575757,6.0,29.533362672107224,10.0
subject-04,1,26,0.999691963195801,bird,cat,c05,c05_cat_10_n02125311_37322.png,False,1.4228723833141352,1.8697972297668457,1.0,-1.1956443158831633,1.907674789428711,0.1666666666666666,-3.5472579390673062,27.838465929031372,10.0,3.181349206349206,9.0,35.347647877782265,10.0
subject-03,1,971,1.1919469833374,clock,cat,c05,c05_cat_10_n02125311_37322.png,False,1.3272124709360609,1.8697972297668457,1.0,-1.1956443158831633,1.907674789428711,0.1666666666666666,-3.5472579390673062,27.838465929031372,10.0,3.181349206349206,9.0,35.347647877782265,10.0
subject-02,1,127,0.906445026397705,oven,cat,c05,c05_cat_10_n02125311_37322.png,False,0.32266498981714303,1.8697972297668457,1.0,-1.1956443158831633,1.907674789428711,0.1666666666666666,-3.5472579390673062,27.838465929031372,10.0,3.181349206349206,9.0,35.347647877782265,10.0
subject-01,1,472,0.570647001266479,oven,cat,c05,c05_cat_10_n02125311_37322.png,False,-1.786198263078082,1.8697972297668457,1.0,-1.1956443158831633,1.907674789428711,0.1666666666666666,-3.5472579390673062,27.838465929031372,10.0,3.181349206349206,9.0,35.347647877782265,10.0
subject-04,1,27,0.701657056808472,oven,chair,c03,c03_chair_10_n04429376_31331.png,False,-0.1279932914891295,1.5245484113693235,0.5,-1.1778111048790518,1.9178450107574463,0.0769230769230769,-4.720991243455556,27.21174144744873,10.0,0.7109640359640356,10.0,44.95753380927067,10.0
subject-03,1,410,0.936074018478394,elephant,chair,c03,c03_chair_10_n04429376_31331.png,False,0.28119824241599434,1.5245484113693235,0.5,-1.1778111048790518,1.9178450107574463,0.0769230769230769,-4.720991243455556,27.21174144744873,10.0,0.7109640359640356,10.0,44.95753380927067,10.0
subject-02,1,1196,1.22976803779602,bear,chair,c03,c03_chair_10_n04429376_31331.png,False,1.8331182244398345,1.5245484113693235,0.5,-1.1778111048790518,1.9178450107574463,0.0769230769230769,-4.720991243455556,27.21174144744873,10.0,0.7109640359640356,10.0,44.95753380927067,10.0
subject-01,1,867,0.565032005310059,cat,chair,c03,c03_chair_10_n04429376_31331.png,False,-1.8155066063013643,1.5245484113693235,0.5,-1.1778111048790518,1.9178450107574463,0.0769230769230769,-4.720991243455556,27.21174144744873,10.0,0.7109640359640356,10.0,44.95753380927067,10.0
subject-04,1,28,1.0756561756134,bear,bear,c50,c50_bear_10_n02133161_1247.png,True,1.8181626229037584,0.0301917102187871,1.0,-0.0035924991527875503,2.308506488800049,0.2,-2.56648132661672,27.0626166369766,10.0,2.211111111111111,10.0,29.319877193436366,10.0
subject-03,1,136,1.16442894935608,cat,bear,c50,c50_bear_10_n02133161_1247.png,False,1.214718151337973,0.0301917102187871,1.0,-0.0035924991527875503,2.308506488800049,0.2,-2.56648132661672,27.0626166369766,10.0,2.211111111111111,10.0,29.319877193436366,10.0
subject-02,1,388,1.10476994514465,elephant,bear,c50,c50_bear_10_n02133161_1247.png,False,1.2491703867947943,0.0301917102187871,1.0,-0.0035924991527875503,2.308506488800049,0.2,-2.56648132661672,27.0626166369766,10.0,2.211111111111111,10.0,29.319877193436366,10.0
subject-01,1,415,0.913398027420044,cat,bear,c50,c50_bear_10_n02133161_1247.png,False,0.0028439361696721453,0.0301917102187871,1.0,-0.0035924991527875503,2.308506488800049,0.2,-2.56648132661672,27.0626166369766,10.0,2.211111111111111,10.0,29.319877193436366,10.0
subject-04,1,29,0.983218193054199,bicycle,dog,c05,c05_dog_10_n02091831_510.png,False,1.3371488519435974,0.4583517909049988,1.0,-0.09219489512508944,1.945151686668396,0.0833333333333333,-4.452560883880574,26.500783264636993,10.0,1.8595959595959595,10.0,37.922572843107794,10.0
subject-03,1,832,0.910996913909912,cat,dog,c05,c05_dog_10_n02091831_510.png,False,0.1786824951850516,0.4583517909049988,1.0,-0.09219489512508944,1.945151686668396,0.0833333333333333,-4.452560883880574,26.500783264636993,10.0,1.8595959595959595,10.0,37.922572843107794,10.0
subject-02,1,1128,1.4524028301239,cat,dog,c05,c05_dog_10_n02091831_510.png,False,2.87319093920532,0.4583517909049988,1.0,-0.09219489512508944,1.945151686668396,0.0833333333333333,-4.452560883880574,26.500783264636993,10.0,1.8595959595959595,10.0,37.922572843107794,10.0
subject-01,1,167,0.688573122024536,boat,dog,c05,c05_dog_10_n02091831_510.png,False,-1.170664565637812,0.4583517909049988,1.0,-0.09219489512508944,1.945151686668396,0.0833333333333333,-4.452560883880574,26.500783264636993,10.0,1.8595959595959595,10.0,37.922572843107794,10.0
subject-04,1,30,0.809024095535278,bottle,knife,c10,c10_knife_10_n03041632_46185.png,False,0.43070587897070856,0.5681994557380676,1.0,-0.15738604261971897,1.7086751461029053,0.125,-3.9687622152048436,25.26221114397049,10.0,3.477020202020202,9.0,34.23319039640105,10.0
subject-03,1,959,1.02998995780945,bottle,knife,c10,c10_knife_10_n03041632_46185.png,False,0.6651286388111112,0.5681994557380676,1.0,-0.15738604261971897,1.7086751461029053,0.125,-3.9687622152048436,25.26221114397049,10.0,3.477020202020202,9.0,34.23319039640105,10.0
subject-02,1,849,1.05886602401733,knife,knife,c10,c10_knife_10_n03041632_46185.png,True,1.0347231507358432,0.5681994557380676,1.0,-0.15738604261971897,1.7086751461029053,0.125,-3.9687622152048436,25.26221114397049,10.0,3.477020202020202,9.0,34.23319039640105,10.0
subject-01,1,340,1.23509097099304,boat,knife,c10,c10_knife_10_n03041632_46185.png,False,1.6819702037434463,0.5681994557380676,1.0,-0.15738604261971897,1.7086751461029053,0.125,-3.9687622152048436,25.26221114397049,10.0,3.477020202020202,9.0,34.23319039640105,10.0
subject-04,1,31,0.657072067260742,bird,bird,c30,c30_bird_10_n01796340_10024.png,True,-0.35999742395532774,0.0026812441647052,1.0,-0.0002516228599735995,2.3736441135406494,0.1111111111111111,-3.222229849730609,26.81311773136258,10.0,2.1266233766233764,10.0,32.754838834989876,10.0
subject-03,1,112,1.29721188545227,cat,bird,c30,c30_bird_10_n01796340_10024.png,False,1.7575376732746493,0.0026812441647052,1.0,-0.0002516228599735995,2.3736441135406494,0.1111111111111111,-3.222229849730609,26.81311773136258,10.0,2.1266233766233764,10.0,32.754838834989876,10.0
subject-02,1,235,0.772641897201538,bird,bird,c30,c30_bird_10_n01796340_10024.png,True,-0.30241693188996605,0.0026812441647052,1.0,-0.0002516228599735995,2.3736441135406494,0.1111111111111111,-3.222229849730609,26.81311773136258,10.0,2.1266233766233764,10.0,32.754838834989876,10.0
subject-01,1,465,0.869681835174561,bird,bird,c30,c30_bird_10_n01796340_10024.png,True,-0.22533951697790638,0.0026812441647052,1.0,-0.0002516228599735995,2.3736441135406494,0.1111111111111111,-3.222229849730609,26.81311773136258,10.0,2.1266233766233764,10.0,32.754838834989876,10.0
subject-04,1,32,0.832445859909058,car,car,c15,c15_car_10_n03100240_10096.png,True,0.5525842550674276,0.0156552102416753,1.0,-0.0021053646164427135,1.9282541275024416,0.0833333333333333,-4.326095523008475,24.95599882863462,10.0,3.4880952380952377,8.0,40.30974725987053,6.0
subject-03,1,209,0.710395097732544,car,car,c15,c15_car_10_n03100240_10096.png,True,-0.6413820790622438,0.0156552102416753,1.0,-0.0021053646164427135,1.9282541275024416,0.0833333333333333,-4.326095523008475,24.95599882863462,10.0,3.4880952380952377,8.0,40.30974725987053,6.0
subject-02,1,835,0.655449151992798,car,car,c15,c15_car_10_n03100240_10096.png,True,-0.8499008870507794,0.0156552102416753,1.0,-0.0021053646164427135,1.9282541275024416,0.0833333333333333,-4.326095523008475,24.95599882863462,10.0,3.4880952380952377,8.0,40.30974725987053,6.0
subject-01,1,685,1.11113595962524,car,car,c15,c15_car_10_n03100240_10096.png,True,1.034967775672312,0.0156552102416753,1.0,-0.0021053646164427135,1.9282541275024416,0.0833333333333333,-4.326095523008475,24.95599882863462,10.0,3.4880952380952377,8.0,40.30974725987053,6.0
subject-04,1,33,0.776412963867188,car,car,c100,c100_car_10_n03100240_1443.png,True,0.26100936478185705,0.0234609711915254,1.0,-0.0034631784922201847,1.943716287612915,0.0833333333333333,-4.096606044075652,24.65547655709088,10.0,3.5717032967032964,8.0,39.57044568190882,6.0
subject-03,1,903,1.18629193305969,car,car,c100,c100_car_10_n03100240_1443.png,True,1.304094502780494,0.0234609711915254,1.0,-0.0034631784922201847,1.943716287612915,0.0833333333333333,-4.096606044075652,24.65547655709088,10.0,3.5717032967032964,8.0,39.57044568190882,6.0
subject-02,1,786,0.720966815948486,car,car,c100,c100_car_10_n03100240_1443.png,True,-0.5438250311480367,0.0234609711915254,1.0,-0.0034631784922201847,1.943716287612915,0.0833333333333333,-4.096606044075652,24.65547655709088,10.0,3.5717032967032964,8.0,39.57044568190882,6.0
subject-01,1,1010,1.0699360370636,car,car,c100,c100_car_10_n03100240_1443.png,True,0.8199183828355142,0.0234609711915254,1.0,-0.0034631784922201847,1.943716287612915,0.0833333333333333,-4.096606044075652,24.65547655709088,10.0,3.5717032967032964,8.0,39.57044568190882,6.0
subject-04,1,34,,na,oven,c15,c15_oven_10_n04111531_8305.png,False,,0.011664948426187,1.0,-0.0013583583312082612,2.163661479949951,0.0625,-7.490605135831122,26.57450374122709,10.0,1.9047619047619047,9.0,58.59486385517362,6.0
subject-03,1,455,1.12328100204468,oven,oven,c15,c15_oven_10_n04111531_8305.png,True,1.046504450504688,0.011664948426187,1.0,-0.0013583583312082612,2.163661479949951,0.0625,-7.490605135831122,26.57450374122709,10.0,1.9047619047619047,9.0,58.59486385517362,6.0
subject-02,1,803,1.00953912734985,chair,oven,c15,c15_oven_10_n04111531_8305.png,False,0.8042849573543414,0.011664948426187,1.0,-0.0013583583312082612,2.163661479949951,0.0625,-7.490605135831122,26.57450374122709,10.0,1.9047619047619047,9.0,58.59486385517362,6.0
subject-01,1,662,1.09930896759033,oven,oven,c15,c15_oven_10_n04111531_8305.png,True,0.9732349543936358,0.011664948426187,1.0,-0.0013583583312082612,2.163661479949951,0.0625,-7.490605135831122,26.57450374122709,10.0,1.9047619047619047,9.0,58.59486385517362,6.0
subject-04,1,35,0.624162197113037,car,car,c10,c10_car_10_n03100240_13929.png,True,-0.5312484649591549,1.0032097101211548,1.0,-0.6180921730375151,2.125992774963379,0.0714285714285714,-4.5239136640473365,27.27673375606537,10.0,3.01547619047619,8.0,42.478098275524694,6.0
subject-03,1,464,0.655565977096558,car,car,c10,c10_car_10_n03100240_13929.png,True,-0.8655247130997528,1.0032097101211548,1.0,-0.6180921730375151,2.125992774963379,0.0714285714285714,-4.5239136640473365,27.27673375606537,10.0,3.01547619047619,8.0,42.478098275524694,6.0
subject-02,1,885,0.95914101600647,car,car,c10,c10_car_10_n03100240_13929.png,True,0.5688424196634418,1.0032097101211548,1.0,-0.6180921730375151,2.125992774963379,0.0714285714285714,-4.5239136640473365,27.27673375606537,10.0,3.01547619047619,8.0,42.478098275524694,6.0
subject-01,1,601,1.16412019729614,car,car,c10,c10_car_10_n03100240_13929.png,True,1.3115272309479988,1.0032097101211548,1.0,-0.6180921730375151,2.125992774963379,0.0714285714285714,-4.5239136640473365,27.27673375606537,10.0,3.01547619047619,8.0,42.478098275524694,6.0
subject-04,1,36,0.665917873382568,cat,bottle,c01,c01_bottle_10_n02823428_4245.png,False,-0.3139670537326004,2.0678601264953613,0.1428571428571428,-3.4032119081354772,1.7743732929229736,0.5,-1.419046890012073,26.89988660812378,10.0,2.53228021978022,4.0,28.52477229992229,4.0
subject-03,1,443,0.669682025909424,car,bottle,c01,c01_bottle_10_n02823428_4245.png,False,-0.8078179994698933,2.0678601264953613,0.1428571428571428,-3.4032119081354772,1.7743732929229736,0.5,-1.419046890012073,26.89988660812378,10.0,2.53228021978022,4.0,28.52477229992229,4.0
subject-02,1,1111,0.643903017044067,truck,bottle,c01,c01_bottle_10_n02823428_4245.png,False,-0.9038404343947072,2.0678601264953613,0.1428571428571428,-3.4032119081354772,1.7743732929229736,0.5,-1.419046890012073,26.89988660812378,10.0,2.53228021978022,4.0,28.52477229992229,4.0
subject-01,1,475,0.846040010452271,oven,bottle,c01,c01_bottle_10_n02823428_4245.png,False,-0.34874169193287047,2.0678601264953613,0.1428571428571428,-3.4032119081354772,1.7743732929229736,0.5,-1.419046890012073,26.89988660812378,10.0,2.53228021978022,4.0,28.52477229992229,4.0
subject-04,1,37,0.75170111656189,bottle,bottle,c100,c100_bottle_10_n04560804_14130.png,True,0.13241786450651977,0.0003208804700989,1.0,-2.3246081650464785e-05,1.8415011167526243,0.5,-1.3227869580618068,25.333502380904974,10.0,7.916666666666666,1.0,18.000506974584052,10.0
subject-03,1,276,0.61354398727417,bottle,bottle,c100,c100_bottle_10_n04560804_14130.png,True,-1.0373115186701032,0.0003208804700989,1.0,-2.3246081650464785e-05,1.8415011167526243,0.5,-1.3227869580618068,25.333502380904974,10.0,7.916666666666666,1.0,18.000506974584052,10.0
subject-02,1,763,0.984935998916626,bottle,bottle,c100,c100_bottle_10_n04560804_14130.png,True,0.6893476543672075,0.0003208804700989,1.0,-2.3246081650464785e-05,1.8415011167526243,0.5,-1.3227869580618068,25.333502380904974,10.0,7.916666666666666,1.0,18.000506974584052,10.0
subject-01,1,43,0.909940004348755,bottle,bottle,c100,c100_bottle_10_n04560804_14130.png,True,-0.01520575217097329,0.0003208804700989,1.0,-2.3246081650464785e-05,1.8415011167526243,0.5,-1.3227869580618068,25.333502380904974,10.0,7.916666666666666,1.0,18.000506974584052,10.0
subject-04,1,38,0.647808074951172,oven,oven,c10,c10_oven_10_n04111531_20429.png,True,-0.40820388359023285,0.032386727631092,1.0,-0.0038833822086631426,1.9910874366760256,0.0625,-7.861857153280875,25.79182679206133,10.0,1.8983516483516483,9.0,60.09318856241659,6.0
subject-03,1,566,0.675382137298584,oven,oven,c10,c10_oven_10_n04111531_20429.png,True,-0.7845158205136443,0.032386727631092,1.0,-0.0038833822086631426,1.9910874366760256,0.0625,-7.861857153280875,25.79182679206133,10.0,1.8983516483516483,9.0,60.09318856241659,6.0
subject-02,1,735,0.954206943511963,oven,oven,c10,c10_oven_10_n04111531_20429.png,True,0.5457921402324811,0.032386727631092,1.0,-0.0038833822086631426,1.9910874366760256,0.0625,-7.861857153280875,25.79182679206133,10.0,1.8983516483516483,9.0,60.09318856241659,6.0
subject-01,1,1224,0.859930992126465,boat,oven,c10,c10_oven_10_n04111531_20429.png,False,-0.2762355562605709,0.032386727631092,1.0,-0.0038833822086631426,1.9910874366760256,0.0625,-7.861857153280875,25.79182679206133,10.0,1.8983516483516483,9.0,60.09318856241659,6.0
subject-04,1,39,0.613427877426147,keyboard,keyboard,c50,c50_keyboard_10_n04505470_3117.png,True,-0.5871059755660748,2.529583616706077e-05,1.0,-1.5497219649786204e-06,1.3899738788604736,0.1,-4.3942796543600116,22.979236626249985,10.0,2.8059523809523808,9.0,36.30004351714936,9.0
subject-03,1,539,0.806740045547485,keyboard,keyboard,c50,c50_keyboard_10_n04505470_3117.png,True,-0.2475218433160264,2.529583616706077e-05,1.0,-1.5497219649786204e-06,1.3899738788604736,0.1,-4.3942796543600116,22.979236626249985,10.0,2.8059523809523808,9.0,36.30004351714936,9.0
subject-02,1,306,0.942852973937988,keyboard,keyboard,c50,c50_keyboard_10_n04505470_3117.png,True,0.49275032302729965,2.529583616706077e-05,1.0,-1.5497219649786204e-06,1.3899738788604736,0.1,-4.3942796543600116,22.979236626249985,10.0,2.8059523809523808,9.0,36.30004351714936,9.0
subject-01,1,701,0.768005132675171,keyboard,keyboard,c50,c50_keyboard_10_n04505470_3117.png,True,-0.7560568528036749,2.529583616706077e-05,1.0,-1.5497219649786204e-06,1.3899738788604736,0.1,-4.3942796543600116,22.979236626249985,10.0,2.8059523809523808,9.0,36.30004351714936,9.0
subject-04,1,40,1.13709402084351,car,bear,c05,c05_bear_10_n02132136_1726.png,False,2.1378629105520246,0.0220619775354862,1.0,-0.002754365326343816,2.019254446029663,0.2,-3.309521932869453,26.06701699271798,10.0,3.8,8.0,31.082553989539228,10.0
subject-03,1,961,1.50000905990601,boat,bear,c05,c05_bear_10_n02132136_1726.png,False,2.5865769197584183,0.0220619775354862,1.0,-0.002754365326343816,2.019254446029663,0.2,-3.309521932869453,26.06701699271798,10.0,3.8,8.0,31.082553989539228,10.0
subject-02,1,392,0.874096155166626,elephant,bear,c05,c05_bear_10_n02132136_1726.png,False,0.17154225662206668,0.0220619775354862,1.0,-0.002754365326343816,2.019254446029663,0.2,-3.309521932869453,26.06701699271798,10.0,3.8,8.0,31.082553989539228,10.0
subject-01,1,1146,0.872904062271118,car,bear,c05,c05_bear_10_n02132136_1726.png,False,-0.2085206023389248,0.0220619775354862,1.0,-0.002754365326343816,2.019254446029663,0.2,-3.309521932869453,26.06701699271798,10.0,3.8,8.0,31.082553989539228,10.0
subject-04,1,41,0.772946119308472,boat,airplane,c15,c15_airplane_10_n02690373_1952.png,False,0.24296916173596386,0.0003573715803213,1.0,-2.5868750425647624e-05,2.1165144443511963,0.3333333333333333,-1.9583565151076507,25.17976925970288,10.0,8.416666666666666,0.0,18.45248565613346,9.0
subject-03,1,519,0.868370056152344,chair,airplane,c15,c15_airplane_10_n02690373_1952.png,False,0.004422976380137243,0.0003573715803213,1.0,-2.5868750425647624e-05,2.1165144443511963,0.3333333333333333,-1.9583565151076507,25.17976925970288,10.0,8.416666666666666,0.0,18.45248565613346,9.0
subject-02,1,28,1.17351603507996,car,airplane,c15,c15_airplane_10_n02690373_1952.png,False,1.5703283317903316,0.0003573715803213,1.0,-2.5868750425647624e-05,2.1165144443511963,0.3333333333333333,-1.9583565151076507,25.17976925970288,10.0,8.416666666666666,0.0,18.45248565613346,9.0
subject-01,1,642,0.88515305519104,airplane,airplane,c15,c15_airplane_10_n02690373_1952.png,True,-0.14458508191772804,0.0003573715803213,1.0,-2.5868750425647624e-05,2.1165144443511963,0.3333333333333333,-1.9583565151076507,25.17976925970288,10.0,8.416666666666666,0.0,18.45248565613346,9.0
subject-04,1,42,0.834786176681519,oven,bottle,c03,c03_bottle_10_n04560804_722.png,False,0.5647624156546283,0.3614267408847809,1.0,-0.06795137157656142,1.6457889080047607,0.5,-1.2202777977657777,25.048577338457108,10.0,3.702380952380952,10.0,23.205118809355042,10.0
subject-03,1,378,1.19408893585205,car,bottle,c03,c03_bottle_10_n04560804_722.png,False,1.3359688192606007,0.3614267408847809,1.0,-0.06795137157656142,1.6457889080047607,0.5,-1.2202777977657777,25.048577338457108,10.0,3.702380952380952,10.0,23.205118809355042,10.0
subject-02,1,184,0.948025941848755,elephant,bottle,c03,c03_bottle_10_n04560804_722.png,False,0.5169166391816165,0.3614267408847809,1.0,-0.06795137157656142,1.6457889080047607,0.5,-1.2202777977657777,25.048577338457108,10.0,3.702380952380952,10.0,23.205118809355042,10.0
subject-01,1,110,0.650132179260254,boat,bottle,c03,c03_bottle_10_n04560804_722.png,False,-1.3713130350412428,0.3614267408847809,1.0,-0.06795137157656142,1.6457889080047607,0.5,-1.2202777977657777,25.048577338457108,10.0,3.702380952380952,10.0,23.205118809355042,10.0
subject-04,1,43,0.638680934906006,bicycle,bicycle,c100,c100_bicycle_10_n03792782_5966.png,True,-0.4556982136227505,0.0602442733943462,1.0,-0.008662321115324691,1.8122798204421997,0.2,-3.489514809292317,24.835391353815794,10.0,3.045238095238095,9.0,31.03250019725218,9.0
subject-03,1,1138,0.886032819747925,bicycle,bicycle,c100,c100_bicycle_10_n03792782_5966.png,True,0.07662873694630186,0.0602442733943462,1.0,-0.008662321115324691,1.8122798204421997,0.2,-3.489514809292317,24.835391353815794,10.0,3.045238095238095,9.0,31.03250019725218,9.0
subject-02,1,887,0.744906902313232,bicycle,bicycle,c100,c100_bicycle_10_n03792782_5966.png,True,-0.43198523128229294,0.0602442733943462,1.0,-0.008662321115324691,1.8122798204421997,0.2,-3.489514809292317,24.835391353815794,10.0,3.045238095238095,9.0,31.03250019725218,9.0
subject-01,1,2,0.825402021408081,bicycle,bicycle,c100,c100_bicycle_10_n03792782_5966.png,True,-0.4564648801666704,0.0602442733943462,1.0,-0.008662321115324691,1.8122798204421997,0.2,-3.489514809292317,24.835391353815794,10.0,3.045238095238095,9.0,31.03250019725218,9.0
subject-04,1,44,0.796422004699707,car,knife,c05,c05_knife_10_n03041632_37618.png,False,0.3651291639994762,0.0023946701548993,1.0,-0.00020315326362135307,1.8413902521133425,0.125,-3.7226748308900395,25.769438856747,10.0,3.7957070707070706,8.0,33.80645256152867,10.0
subject-03,1,669,0.708137035369873,boat,knife,c05,c05_knife_10_n03041632_37618.png,False,-0.6506130869631407,0.0023946701548993,1.0,-0.00020315326362135307,1.8413902521133425,0.125,-3.7226748308900395,25.769438856747,10.0,3.7957070707070706,8.0,33.80645256152867,10.0
subject-02,1,717,1.07177376747131,airplane,knife,c05,c05_knife_10_n03041632_37618.png,False,1.0950236618792497,0.0023946701548993,1.0,-0.00020315326362135307,1.8413902521133425,0.125,-3.7226748308900395,25.769438856747,10.0,3.7957070707070706,8.0,33.80645256152867,10.0
subject-01,1,814,0.769080877304077,oven,knife,c05,c05_knife_10_n03041632_37618.png,False,-0.750441836684468,0.0023946701548993,1.0,-0.00020315326362135307,1.8413902521133425,0.125,-3.7226748308900395,25.769438856747,10.0,3.7957070707070706,8.0,33.80645256152867,10.0
subject-04,1,45,0.766250848770142,bird,bird,c15,c15_bird_10_n01592084_4764.png,True,0.20812939955078186,0.002790443599224,1.0,-0.00023773157927710968,2.194596290588379,0.125,-3.1985794085387598,26.399213783442974,10.0,2.956349206349206,9.0,32.38966191303343,10.0
subject-03,1,941,0.941048145294189,bird,bird,c15,c15_bird_10_n01592084_4764.png,True,0.3015325806945687,0.002790443599224,1.0,-0.00023773157927710968,2.194596290588379,0.125,-3.1985794085387598,26.399213783442974,10.0,2.956349206349206,9.0,32.38966191303343,10.0
subject-02,1,691,0.732618093490601,bird,bird,c15,c15_bird_10_n01592084_4764.png,True,-0.48939429398873885,0.002790443599224,1.0,-0.00023773157927710968,2.194596290588379,0.125,-3.1985794085387598,26.399213783442974,10.0,2.956349206349206,9.0,32.38966191303343,10.0
subject-01,1,645,0.72650408744812,bird,bird,c15,c15_bird_10_n01592084_4764.png,True,-0.9726780021472757,0.002790443599224,1.0,-0.00023773157927710968,2.194596290588379,0.125,-3.1985794085387598,26.399213783442974,10.0,2.956349206349206,9.0,32.38966191303343,10.0
subject-04,1,46,1.03590202331543,boat,oven,c15,c15_oven_10_n04111531_22403.png,False,1.6112964172731405,0.0002616540296003,1.0,-2.0563813881392165e-05,2.2622530460357666,0.0625,-7.118044591696739,26.568144430289976,10.0,1.9837662337662336,9.0,56.469417404116236,6.0
subject-03,1,379,0.91404914855957,chair,oven,c15,c15_oven_10_n04111531_22403.png,False,0.1911600966154469,0.0002616540296003,1.0,-2.0563813881392165e-05,2.2622530460357666,0.0625,-7.118044591696739,26.568144430289976,10.0,1.9837662337662336,9.0,56.469417404116236,6.0
subject-02,1,353,0.957474946975708,dog,oven,c15,c15_oven_10_n04111531_22403.png,False,0.5610591216366928,0.0002616540296003,1.0,-2.0563813881392165e-05,2.2622530460357666,0.0625,-7.118044591696739,26.568144430289976,10.0,1.9837662337662336,9.0,56.469417404116236,6.0
subject-01,1,504,0.743286848068237,oven,oven,c15,c15_oven_10_n04111531_22403.png,True,-0.8850777772662266,0.0002616540296003,1.0,-2.0563813881392165e-05,2.2622530460357666,0.0625,-7.118044591696739,26.568144430289976,10.0,1.9837662337662336,9.0,56.469417404116236,6.0
subject-04,1,47,0.64159893989563,airplane,airplane,c50,c50_airplane_10_n02690373_2675.png,True,-0.44051397284985505,0.0009022400481626,1.0,-7.462779984377424e-05,2.1493752002716064,0.25,-2.1639222758134697,25.740029399166815,10.0,7.333333333333333,0.0,20.54378009512015,10.0
subject-03,1,755,0.665807962417603,airplane,airplane,c50,c50_airplane_10_n02690373_2675.png,True,-0.8236552550270325,0.0009022400481626,1.0,-7.462779984377424e-05,2.1493752002716064,0.25,-2.1639222758134697,25.740029399166815,10.0,7.333333333333333,0.0,20.54378009512015,10.0
subject-02,1,79,0.926130056381226,airplane,airplane,c50,c50_airplane_10_n02690373_2675.png,True,0.4146266385833805,0.0009022400481626,1.0,-7.462779984377424e-05,2.1493752002716064,0.25,-2.1639222758134697,25.740029399166815,10.0,7.333333333333333,0.0,20.54378009512015,10.0
subject-01,1,482,0.669091939926147,airplane,airplane,c50,c50_airplane_10_n02690373_2675.png,True,-1.2723496204029947,0.0009022400481626,1.0,-7.462779984377424e-05,2.1493752002716064,0.25,-2.1639222758134697,25.740029399166815,10.0,7.333333333333333,0.0,20.54378009512015,10.0
subject-04,1,48,0.621509075164795,chair,chair,c50,c50_chair_10_n03376595_12602.png,True,-0.5450543503518149,0.0197948031127452,1.0,-0.002130093252515368,2.1442179679870605,0.0666666666666666,-4.533917746320081,26.553952913731337,10.0,2.027380952380952,9.0,43.65406533016305,10.0
subject-03,1,911,0.692946910858154,chair,chair,c50,c50_chair_10_n03376595_12602.png,True,-0.7127106453394427,0.0197948031127452,1.0,-0.002130093252515368,2.1442179679870605,0.0666666666666666,-4.533917746320081,26.553952913731337,10.0,2.027380952380952,9.0,43.65406533016305,10.0
subject-02,1,428,1.12120699882507,chair,chair,c50,c50_chair_10_n03376595_12602.png,True,1.325958614121649,0.0197948031127452,1.0,-0.002130093252515368,2.1442179679870605,0.0666666666666666,-4.533917746320081,26.553952913731337,10.0,2.027380952380952,9.0,43.65406533016305,10.0
subject-01,1,1112,0.805890083312988,chair,chair,c50,c50_chair_10_n03376595_12602.png,True,-0.55831047063207,0.0197948031127452,1.0,-0.002130093252515368,2.1442179679870605,0.0666666666666666,-4.533917746320081,26.553952913731337,10.0,2.027380952380952,9.0,43.65406533016305,10.0
subject-04,1,49,0.673440933227539,bear,bear,c01,c01_bear_10_n02132136_10428.png,True,-0.2748197759036964,2.274366617202759,0.2,-2.692830249903571,1.762458086013794,0.1111111111111111,-4.252949581281076,27.552212595939636,10.0,1.0924603174603171,9.0,39.17169325811039,6.0
subject-03,1,731,1.08635401725769,truck,bear,c01,c01_bear_10_n02132136_10428.png,False,0.8955461359956902,2.274366617202759,0.2,-2.692830249903571,1.762458086013794,0.1111111111111111,-4.252949581281076,27.552212595939636,10.0,1.0924603174603171,9.0,39.17169325811039,6.0
subject-02,1,1033,0.900254011154175,bird,bear,c01,c01_bear_10_n02132136_10428.png,False,0.2937427087838638,2.274366617202759,0.2,-2.692830249903571,1.762458086013794,0.1111111111111111,-4.252949581281076,27.552212595939636,10.0,1.0924603174603171,9.0,39.17169325811039,6.0
subject-01,1,898,0.739954948425293,oven,bear,c01,c01_bear_10_n02132136_10428.png,False,-0.9024691447897031,2.274366617202759,0.2,-2.692830249903571,1.762458086013794,0.1111111111111111,-4.252949581281076,27.552212595939636,10.0,1.0924603174603171,9.0,39.17169325811039,6.0
subject-04,1,50,1.0054759979248,bicycle,bottle,c10,c10_bottle_10_n04557648_4165.png,False,1.4529704044882614,1.226745367050171,1.0,-0.32219470496963504,2.1170053482055664,0.5,-1.7014093300007544,27.56458568572998,10.0,3.128968253968254,10.0,25.069967655697482,10.0
subject-03,1,673,1.13552904129028,bird,bottle,c10,c10_bottle_10_n04557648_4165.png,False,1.096574700518907,1.226745367050171,1.0,-0.32219470496963504,2.1170053482055664,0.5,-1.7014093300007544,27.56458568572998,10.0,3.128968253968254,10.0,25.069967655697482,10.0
subject-02,1,1094,0.97884202003479,bird,bottle,c10,c10_bottle_10_n04557648_4165.png,False,0.6608786936397204,1.226745367050171,1.0,-0.32219470496963504,2.1170053482055664,0.5,-1.7014093300007544,27.56458568572998,10.0,3.128968253968254,10.0,25.069967655697482,10.0
subject-01,1,230,1.2266891002655,knife,bottle,c10,c10_bottle_10_n04557648_4165.png,False,1.638115334940052,1.226745367050171,1.0,-0.32219470496963504,2.1170053482055664,0.5,-1.7014093300007544,27.56458568572998,10.0,3.128968253968254,10.0,25.069967655697482,10.0
subject-04,1,51,0.579026937484741,car,car,c50,c50_car_10_n03100240_21982.png,True,-0.7661160035617871,0.2140939235687255,1.0,-0.05649410586291618,2.2410173416137695,0.0909090909090909,-3.9092860805056064,26.484555959701538,10.0,4.005927405927405,7.0,38.607524900228704,6.0
subject-03,1,115,0.646233081817627,car,car,c50,c50_car_10_n03100240_21982.png,True,-0.9036777913682167,0.2140939235687255,1.0,-0.05649410586291618,2.2410173416137695,0.0909090909090909,-3.9092860805056064,26.484555959701538,10.0,4.005927405927405,7.0,38.607524900228704,6.0
subject-02,1,809,0.64049506187439,car,car,c50,c50_car_10_n03100240_21982.png,True,-0.919761221743636,0.2140939235687255,1.0,-0.05649410586291618,2.2410173416137695,0.0909090909090909,-3.9092860805056064,26.484555959701538,10.0,4.005927405927405,7.0,38.607524900228704,6.0
subject-01,1,1259,0.709326028823853,car,car,c50,c50_car_10_n03100240_21982.png,True,-1.0623415463380854,0.2140939235687255,1.0,-0.05649410586291618,2.2410173416137695,0.0909090909090909,-3.9092860805056064,26.484555959701538,10.0,4.005927405927405,7.0,38.607524900228704,6.0
subject-04,1,52,0.796779870986938,bottle,dog,c05,c05_dog_10_n02094433_5139.png,False,0.36699137050328273,1.66962468624115,1.0,-0.8361286294700502,1.7094022035598757,0.0769230769230769,-4.883466944069653,26.906348705291748,10.0,1.3335470085470085,10.0,41.38765299477991,10.0
subject-03,1,584,1.12591695785522,elephant,dog,c05,c05_dog_10_n02094433_5139.png,False,1.05728029501446,1.66962468624115,1.0,-0.8361286294700502,1.7094022035598757,0.0769230769230769,-4.883466944069653,26.906348705291748,10.0,1.3335470085470085,10.0,41.38765299477991,10.0
subject-02,1,766,0.764563083648682,car,dog,c05,c05_dog_10_n02094433_5139.png,False,-0.3401583534177769,1.66962468624115,1.0,-0.8361286294700502,1.7094022035598757,0.0769230769230769,-4.883466944069653,26.906348705291748,10.0,1.3335470085470085,10.0,41.38765299477991,10.0
subject-01,1,1096,0.888942003250122,airplane,dog,c05,c05_dog_10_n02094433_5139.png,False,-0.12480807922126236,1.66962468624115,1.0,-0.8361286294700502,1.7094022035598757,0.0769230769230769,-4.883466944069653,26.906348705291748,10.0,1.3335470085470085,10.0,41.38765299477991,10.0
subject-04,1,53,0.636640071868896,oven,car,c03,c03_car_10_n04285008_3193.png,False,-0.46631812546326196,1.6748203039169312,1.0,-0.5459706310638731,1.8650009632110596,0.0666666666666666,-4.9312281446311665,27.386101841926575,10.0,2.1254329004329,9.0,44.73362805043226,10.0
subject-03,1,401,0.881623029708862,boat,car,c03,c03_car_10_n04285008_3193.png,False,0.05860141964770503,1.6748203039169312,1.0,-0.5459706310638731,1.8650009632110596,0.0666666666666666,-4.9312281446311665,27.386101841926575,10.0,2.1254329004329,9.0,44.73362805043226,10.0
subject-02,1,412,0.678154945373535,car,car,c03,c03_car_10_n04285008_3193.png,True,-0.7438272769223679,1.6748203039169312,1.0,-0.5459706310638731,1.8650009632110596,0.0666666666666666,-4.9312281446311665,27.386101841926575,10.0,2.1254329004329,9.0,44.73362805043226,10.0
subject-01,1,434,0.897698879241943,bicycle,car,c03,c03_car_10_n04285008_3193.png,False,-0.07910020532002335,1.6748203039169312,1.0,-0.5459706310638731,1.8650009632110596,0.0666666666666666,-4.9312281446311665,27.386101841926575,10.0,2.1254329004329,9.0,44.73362805043226,10.0
subject-04,1,54,0.804509878158569,cat,cat,c10,c10_cat_10_n02123597_488.png,True,0.40721552724311627,0.0033154925331473,1.0,-0.00029979669311351956,2.004544258117676,0.1666666666666666,-3.3884580844572847,25.96871094312519,10.0,5.230555555555555,6.0,30.867282027805018,10.0
subject-03,1,1088,0.654874801635742,cat,cat,c10,c10_cat_10_n02123597_488.png,True,-0.86835025337055,0.0033154925331473,1.0,-0.00029979669311351956,2.004544258117676,0.1666666666666666,-3.3884580844572847,25.96871094312519,10.0,5.230555555555555,6.0,30.867282027805018,10.0
subject-02,1,152,0.905946016311646,cat,cat,c10,c10_cat_10_n02123597_488.png,True,0.32033378736007867,0.0033154925331473,1.0,-0.00029979669311351956,2.004544258117676,0.1666666666666666,-3.3884580844572847,25.96871094312519,10.0,5.230555555555555,6.0,30.867282027805018,10.0
subject-01,1,278,1.22048497200012,dog,cat,c10,c10_cat_10_n02123597_488.png,False,1.6057319241568044,0.0033154925331473,1.0,-0.00029979669311351956,2.004544258117676,0.1666666666666666,-3.3884580844572847,25.96871094312519,10.0,5.230555555555555,6.0,30.867282027805018,10.0
subject-04,1,55,0.750708103179932,chair,airplane,c01,c01_airplane_10_n02690373_4793.png,False,0.12725058263552463,0.6818777322769165,1.0,-0.1493172571607869,1.737902045249939,0.3333333333333333,-2.009693184642793,25.770927667617798,10.0,7.916666666666666,0.0,19.028421052006966,10.0
subject-03,1,701,0.844223976135254,knife,airplane,c01,c01_airplane_10_n02690373_4793.png,False,-0.0942867222970076,0.6818777322769165,1.0,-0.1493172571607869,1.737902045249939,0.3333333333333333,-2.009693184642793,25.770927667617798,10.0,7.916666666666666,0.0,19.028421052006966,10.0
subject-02,1,35,0.934535026550293,airplane,airplane,c01,c01_airplane_10_n02690373_4793.png,True,0.45389175096702866,0.6818777322769165,1.0,-0.1493172571607869,1.737902045249939,0.3333333333333333,-2.009693184642793,25.770927667617798,10.0,7.916666666666666,0.0,19.028421052006966,10.0
subject-01,1,419,0.890323877334595,chair,airplane,c01,c01_airplane_10_n02690373_4793.png,False,-0.11759517287663952,0.6818777322769165,1.0,-0.1493172571607869,1.737902045249939,0.3333333333333333,-2.009693184642793,25.770927667617798,10.0,7.916666666666666,0.0,19.028421052006966,10.0
subject-04,1,56,0.904129981994629,keyboard,bottle,c05,c05_bottle_10_n04557648_4168.png,False,0.9256024552457585,0.5998507738113403,1.0,-0.12197551399562911,1.9645450115203855,0.5,-1.3218563757198616,26.679234862327576,10.0,4.444444444444445,10.0,22.483736608009796,10.0
subject-03,1,571,1.21862602233887,chair,bottle,c05,c05_bottle_10_n04557648_4168.png,False,1.4362769608643229,0.5998507738113403,1.0,-0.12197551399562911,1.9645450115203855,0.5,-1.3218563757198616,26.679234862327576,10.0,4.444444444444445,10.0,22.483736608009796,10.0
subject-02,1,953,0.592426061630249,cat,bottle,c05,c05_bottle_10_n04557648_4168.png,False,-1.1443229582864005,0.5998507738113403,1.0,-0.12197551399562911,1.9645450115203855,0.5,-1.3218563757198616,26.679234862327576,10.0,4.444444444444445,10.0,22.483736608009796,10.0
subject-01,1,837,0.702527046203613,oven,bottle,c05,c05_bottle_10_n04557648_4168.png,False,-1.097829891788324,0.5998507738113403,1.0,-0.12197551399562911,1.9645450115203855,0.5,-1.3218563757198616,26.679234862327576,10.0,4.444444444444445,10.0,22.483736608009796,10.0
subject-04,1,57,0.861974954605103,elephant,elephant,c15,c15_elephant_10_n02504013_2479.png,True,0.706242965475647,0.0023924433626234,1.0,-0.00023308132241289814,2.1794254779815674,0.1666666666666666,-2.9886202509590256,26.542898091021925,10.0,3.755133755133755,8.0,33.93394361945406,10.0
subject-03,1,1015,1.50000095367432,elephant,elephant,c15,c15_elephant_10_n02504013_2479.png,True,2.5865437813074994,0.0023924433626234,1.0,-0.00023308132241289814,2.1794254779815674,0.1666666666666666,-2.9886202509590256,26.542898091021925,10.0,3.755133755133755,8.0,33.93394361945406,10.0
subject-02,1,1260,0.761902809143066,elephant,elephant,c15,c15_elephant_10_n02504013_2479.png,True,-0.35258623541298,0.0023924433626234,1.0,-0.00023308132241289814,2.1794254779815674,0.1666666666666666,-2.9886202509590256,26.542898091021925,10.0,3.755133755133755,8.0,33.93394361945406,10.0
subject-01,1,975,1.10063982009888,elephant,elephant,c15,c15_elephant_10_n02504013_2479.png,True,0.9801815457007148,0.0023924433626234,1.0,-0.00023308132241289814,2.1794254779815674,0.1666666666666666,-2.9886202509590256,26.542898091021925,10.0,3.755133755133755,8.0,33.93394361945406,10.0
subject-04,1,58,0.837816953659058,chair,chair,c50,c50_chair_10_n04099969_25664.png,True,0.5805334809953455,0.000114331007353,1.0,-7.808238949794578e-06,2.106693744659424,0.0833333333333333,-4.403973640171077,25.68197644686734,10.0,2.318131868131868,9.0,41.058204015539616,9.0
subject-03,1,887,0.633321046829224,chair,chair,c50,c50_chair_10_n04099969_25664.png,True,-0.9564624703766488,0.000114331007353,1.0,-7.808238949794578e-06,2.106693744659424,0.0833333333333333,-4.403973640171077,25.68197644686734,10.0,2.318131868131868,9.0,41.058204015539616,9.0
subject-02,1,527,0.667580127716064,chair,chair,c50,c50_chair_10_n04099969_25664.png,True,-0.7932291659719375,0.000114331007353,1.0,-7.808238949794578e-06,2.106693744659424,0.0833333333333333,-4.403973640171077,25.68197644686734,10.0,2.318131868131868,9.0,41.058204015539616,9.0
subject-01,1,937,0.94861102104187,chair,chair,c50,c50_chair_10_n04099969_25664.png,True,0.1866436238271021,0.000114331007353,1.0,-7.808238949794578e-06,2.106693744659424,0.0833333333333333,-4.403973640171077,25.68197644686734,10.0,2.318131868131868,9.0,41.058204015539616,9.0
subject-04,1,59,0.54988694190979,boat,boat,c50,c50_boat_10_n03344393_4243.png,True,-0.9177499831144312,0.0096040964126586,1.0,-0.0009785908846724975,2.239309310913086,0.25,-2.121717167337372,26.634649753570557,10.0,5.535714285714286,9.0,23.60695186597661,10.0
subject-03,1,192,0.543768882751465,boat,boat,c50,c50_boat_10_n03344393_4243.png,True,-1.3225536589151339,0.0096040964126586,1.0,-0.0009785908846724975,2.239309310913086,0.25,-2.121717167337372,26.634649753570557,10.0,5.535714285714286,9.0,23.60695186597661,10.0
subject-02,1,931,0.574741125106812,boat,boat,c50,c50_boat_10_n03344393_4243.png,True,-1.2269408624695781,0.0096040964126586,1.0,-0.0009785908846724975,2.239309310913086,0.25,-2.121717167337372,26.634649753570557,10.0,5.535714285714286,9.0,23.60695186597661,10.0
subject-01,1,747,0.764753103256226,boat,boat,c50,c50_boat_10_n03344393_4243.png,True,-0.7730313252917048,0.0096040964126586,1.0,-0.0009785908846724975,2.239309310913086,0.25,-2.121717167337372,26.634649753570557,10.0,5.535714285714286,9.0,23.60695186597661,10.0
subject-04,1,60,0.65350079536438,bird,bird,c10,c10_bird_10_n02009229_263.png,True,-0.37858102903230945,0.0640498697757721,1.0,-0.007860478914828928,2.1714344024658203,0.125,-3.2901706152626913,26.54875484108925,10.0,3.457936507936508,8.0,33.00904676438529,10.0
subject-03,1,1074,0.873492002487183,bird,bird,c10,c10_bird_10_n02009229_263.png,True,0.025361604057781886,0.0640498697757721,1.0,-0.007860478914828928,2.1714344024658203,0.125,-3.2901706152626913,26.54875484108925,10.0,3.457936507936508,8.0,33.00904676438529,10.0
subject-02,1,1150,0.62227201461792,bird,bird,c10,c10_bird_10_n02009229_263.png,True,-1.0048929930771273,0.0640498697757721,1.0,-0.007860478914828928,2.1714344024658203,0.125,-3.2901706152626913,26.54875484108925,10.0,3.457936507936508,8.0,33.00904676438529,10.0
subject-01,1,654,1.00095891952515,bird,bird,c10,c10_bird_10_n02009229_263.png,True,0.459881607909944,0.0640498697757721,1.0,-0.007860478914828928,2.1714344024658203,0.125,-3.2901706152626913,26.54875484108925,10.0,3.457936507936508,8.0,33.00904676438529,10.0
subject-04,1,61,0.767553091049194,keyboard,bicycle,c03,c03_bicycle_10_n02835271_7355.png,False,0.21490579656863507,0.6412563323974609,1.0,-0.13967033423229297,1.7497899532318115,0.1666666666666666,-3.75422685918452,26.088501691818237,10.0,3.033333333333333,9.0,32.815595937262884,10.0
subject-03,1,835,0.868285179138184,truck,bicycle,c03,c03_bicycle_10_n02835271_7355.png,False,0.004075997305835617,0.6412563323974609,1.0,-0.13967033423229297,1.7497899532318115,0.1666666666666666,-3.75422685918452,26.088501691818237,10.0,3.033333333333333,9.0,32.815595937262884,10.0
subject-02,1,670,0.782416105270386,car,bicycle,c03,c03_bicycle_10_n02835271_7355.png,False,-0.2567552138154709,0.6412563323974609,1.0,-0.13967033423229297,1.7497899532318115,0.1666666666666666,-3.75422685918452,26.088501691818237,10.0,3.033333333333333,9.0,32.815595937262884,10.0
subject-01,1,775,0.86362099647522,bicycle,bicycle,c03,c03_bicycle_10_n02835271_7355.png,True,-0.2569750056229408,0.6412563323974609,1.0,-0.13967033423229297,1.7497899532318115,0.1666666666666666,-3.75422685918452,26.088501691818237,10.0,3.033333333333333,9.0,32.815595937262884,10.0
subject-04,1,62,0.686928987503052,keyboard,keyboard,c100,c100_keyboard_10_n04505470_9395.png,True,-0.2046328281755295,0.0005963717703707,1.0,-4.67907408184323e-05,1.839201807975769,0.1111111111111111,-4.090169995474651,24.07260247814702,10.0,3.2456099456099454,9.0,35.07911307198138,9.0
subject-03,1,400,1.01393413543701,keyboard,keyboard,c100,c100_keyboard_10_n04505470_9395.png,True,0.5994920888089744,0.0005963717703707,1.0,-4.67907408184323e-05,1.839201807975769,0.1111111111111111,-4.090169995474651,24.07260247814702,10.0,3.2456099456099454,9.0,35.07911307198138,9.0
subject-02,1,1079,0.611640930175781,keyboard,keyboard,c100,c100_keyboard_10_n04505470_9395.png,True,-1.054557741075511,0.0005963717703707,1.0,-4.67907408184323e-05,1.839201807975769,0.1111111111111111,-4.090169995474651,24.07260247814702,10.0,3.2456099456099454,9.0,35.07911307198138,9.0
subject-01,1,875,0.911800146102905,keyboard,keyboard,c100,c100_keyboard_10_n04505470_9395.png,True,-0.005496453464844292,0.0005963717703707,1.0,-4.67907408184323e-05,1.839201807975769,0.1111111111111111,-4.090169995474651,24.07260247814702,10.0,3.2456099456099454,9.0,35.07911307198138,9.0
subject-04,1,63,0.612920045852661,oven,oven,c100,c100_oven_10_n04111531_4685.png,True,-0.5897485470871342,0.0044127362780272,1.0,-0.0004268007184174365,1.894723892211914,0.0625,-6.684276064572688,25.563304509501904,10.0,2.1589285714285715,9.0,52.913434369256855,6.0
subject-03,1,1130,1.45746994018555,bird,oven,c100,c100_oven_10_n04111531_4685.png,False,2.4126760759516537,0.0044127362780272,1.0,-0.0004268007184174365,1.894723892211914,0.0625,-6.684276064572688,25.563304509501904,10.0,2.1589285714285715,9.0,52.913434369256855,6.0
subject-02,1,36,0.712236881256104,oven,oven,c100,c100_oven_10_n04111531_4685.png,True,-0.584608265341995,0.0044127362780272,1.0,-0.0004268007184174365,1.894723892211914,0.0625,-6.684276064572688,25.563304509501904,10.0,2.1589285714285715,9.0,52.913434369256855,6.0
subject-01,1,523,0.827410936355591,oven,oven,c100,c100_oven_10_n04111531_4685.png,True,-0.44597903667809485,0.0044127362780272,1.0,-0.0004268007184174365,1.894723892211914,0.0625,-6.684276064572688,25.563304509501904,10.0,2.1589285714285715,9.0,52.913434369256855,6.0
subject-04,1,64,0.672630071640015,oven,oven,c30,c30_oven_10_n04111531_8963.png,True,-0.2790392058300457,0.0105953197926282,1.0,-0.001074533594060806,2.2887909412384033,0.0625,-7.220159635858457,26.78308272175491,10.0,1.9102564102564101,9.0,56.93748691738133,6.0
subject-03,1,242,0.687768936157227,oven,oven,c30,c30_oven_10_n04111531_8963.png,True,-0.7338783181925362,0.0105953197926282,1.0,-0.001074533594060806,2.2887909412384033,0.0625,-7.220159635858457,26.78308272175491,10.0,1.9102564102564101,9.0,56.93748691738133,6.0
subject-02,1,1078,0.756036996841431,oven,oven,c30,c30_oven_10_n04111531_8963.png,True,-0.37998928082684036,0.0105953197926282,1.0,-0.001074533594060806,2.2887909412384033,0.0625,-7.220159635858457,26.78308272175491,10.0,1.9102564102564101,9.0,56.93748691738133,6.0
subject-01,1,715,0.791520833969116,oven,oven,c30,c30_oven_10_n04111531_8963.png,True,-0.6333129986658803,0.0105953197926282,1.0,-0.001074533594060806,2.2887909412384033,0.0625,-7.220159635858457,26.78308272175491,10.0,1.9102564102564101,9.0,56.93748691738133,6.0
subject-04,1,65,0.664709091186523,cat,car,c01,c01_car_10_n03100240_3289.png,False,-0.3202571183390705,2.0673389434814453,0.125,-3.7889968180930507,1.7939884662628174,0.0909090909090909,-4.701607625554835,27.244256138801575,10.0,0.4515623265623262,9.0,48.005584767660395,6.0
subject-03,1,843,0.906830072402954,dog,car,c01,c01_car_10_n03100240_3289.png,False,0.161648356753632,2.0673389434814453,0.125,-3.7889968180930507,1.7939884662628174,0.0909090909090909,-4.701607625554835,27.244256138801575,10.0,0.4515623265623262,9.0,48.005584767660395,6.0
subject-02,1,134,0.649519920349121,oven,car,c01,c01_car_10_n03100240_3289.png,False,-0.8776002056866128,2.0673389434814453,0.125,-3.7889968180930507,1.7939884662628174,0.0909090909090909,-4.701607625554835,27.244256138801575,10.0,0.4515623265623262,9.0,48.005584767660395,6.0
subject-01,1,881,0.773364782333374,oven,car,c01,c01_car_10_n03100240_3289.png,False,-0.728081329231025,2.0673389434814453,0.125,-3.7889968180930507,1.7939884662628174,0.0909090909090909,-4.701607625554835,27.244256138801575,10.0,0.4515623265623262,9.0,48.005584767660395,6.0
subject-04,1,66,0.598235130310059,cat,cat,c30,c30_cat_10_n02123394_5466.png,True,-0.6661635272264359,0.0006538919406011,1.0,-5.3287972207971084e-05,2.3170342445373535,0.1666666666666666,-2.725187845422638,25.632399349589832,10.0,5.363888888888889,6.0,27.412230268995796,9.0
subject-03,1,1038,0.55525016784668,cat,cat,c30,c30_cat_10_n02123394_5466.png,True,-1.2756179164934678,0.0006538919406011,1.0,-5.3287972207971084e-05,2.3170342445373535,0.1666666666666666,-2.725187845422638,25.632399349589832,10.0,5.363888888888889,6.0,27.412230268995796,9.0
subject-02,1,295,0.594746112823486,cat,cat,c30,c30_cat_10_n02123394_5466.png,True,-1.1334844818842433,0.0006538919406011,1.0,-5.3287972207971084e-05,2.3170342445373535,0.1666666666666666,-2.725187845422638,25.632399349589832,10.0,5.363888888888889,6.0,27.412230268995796,9.0
subject-01,1,134,0.681501865386963,cat,cat,c30,c30_cat_10_n02123394_5466.png,True,-1.2075740875969407,0.0006538919406011,1.0,-5.3287972207971084e-05,2.3170342445373535,0.1666666666666666,-2.725187845422638,25.632399349589832,10.0,5.363888888888889,6.0,27.412230268995796,9.0
subject-04,1,67,0.880112171173096,airplane,bicycle,c50,c50_bicycle_10_n03792782_11023.png,False,0.8006224693825403,0.0065857889130711,1.0,-0.0006088679549254531,2.2487237453460693,0.1666666666666666,-2.825732990961812,26.760268402285874,10.0,4.383333333333333,7.0,28.452776763835455,10.0
subject-03,1,103,0.832533121109009,bicycle,bicycle,c50,c50_bicycle_10_n03792782_11023.png,True,-0.14207919114089687,0.0065857889130711,1.0,-0.0006088679549254531,2.2487237453460693,0.1666666666666666,-2.825732990961812,26.760268402285874,10.0,4.383333333333333,7.0,28.452776763835455,10.0
subject-02,1,1084,,na,bicycle,c50,c50_bicycle_10_n03792782_11023.png,False,,0.0065857889130711,1.0,-0.0006088679549254531,2.2487237453460693,0.1666666666666666,-2.825732990961812,26.760268402285874,10.0,4.383333333333333,7.0,28.452776763835455,10.0
subject-01,1,34,0.843461036682129,bicycle,bicycle,c50,c50_bicycle_10_n03792782_11023.png,True,-0.3622030459580217,0.0065857889130711,1.0,-0.0006088679549254531,2.2487237453460693,0.1666666666666666,-2.825732990961812,26.760268402285874,10.0,4.383333333333333,7.0,28.452776763835455,10.0
subject-04,1,68,0.94579005241394,boat,elephant,c10,c10_elephant_10_n02504458_7359.png,False,1.142386368265764,0.0912241265177726,0.5,-5.460959731734929,2.2076103687286377,0.1111111111111111,-3.4842535039020084,26.607649259269238,10.0,3.2324786324786325,7.0,40.32182877813324,5.0
subject-03,1,1045,1.10092210769653,bear,elephant,c10,c10_elephant_10_n02504458_7359.png,False,0.9551008055942966,0.0912241265177726,0.5,-5.460959731734929,2.2076103687286377,0.1111111111111111,-3.4842535039020084,26.607649259269238,10.0,3.2324786324786325,7.0,40.32182877813324,5.0
subject-02,1,836,1.28946805000305,truck,elephant,c10,c10_elephant_10_n02504458_7359.png,False,2.112016024367948,0.0912241265177726,0.5,-5.460959731734929,2.2076103687286377,0.1111111111111111,-3.4842535039020084,26.607649259269238,10.0,3.2324786324786325,7.0,40.32182877813324,5.0
subject-01,1,829,0.926263093948364,dog,elephant,c10,c10_elephant_10_n02504458_7359.png,False,0.06999514844637113,0.0912241265177726,0.5,-5.460959731734929,2.2076103687286377,0.1111111111111111,-3.4842535039020084,26.607649259269238,10.0,3.2324786324786325,7.0,40.32182877813324,5.0
subject-04,1,69,0.841611862182617,chair,dog,c15,c15_dog_10_n02091032_3390.png,False,0.6002808100567183,0.1456454694271087,1.0,-0.023101664414297108,2.15966272354126,0.0833333333333333,-4.2158214189962315,26.542138904333115,10.0,2.2845959595959595,10.0,36.739061165010554,10.0
subject-03,1,1033,0.800078153610229,boat,dog,c15,c15_dog_10_n02091032_3390.png,False,-0.27475580200749145,0.1456454694271087,1.0,-0.023101664414297108,2.15966272354126,0.0833333333333333,-4.2158214189962315,26.542138904333115,10.0,2.2845959595959595,10.0,36.739061165010554,10.0
subject-02,1,377,0.588842153549194,airplane,dog,c15,c15_dog_10_n02091032_3390.png,False,-1.1610657367549304,0.1456454694271087,1.0,-0.023101664414297108,2.15966272354126,0.0833333333333333,-4.2158214189962315,26.542138904333115,10.0,2.2845959595959595,10.0,36.739061165010554,10.0
subject-01,1,1040,0.83422589302063,airplane,dog,c15,c15_dog_10_n02091032_3390.png,False,-0.41040731222077154,0.1456454694271087,1.0,-0.023101664414297108,2.15966272354126,0.0833333333333333,-4.2158214189962315,26.542138904333115,10.0,2.2845959595959595,10.0,36.739061165010554,10.0
subject-04,1,70,0.757473945617676,bottle,elephant,c05,c05_elephant_10_n02504013_7633.png,False,0.16245757541706066,0.0039843395352363,1.0,-0.00035542604850605334,1.913191556930542,0.125,-3.748063072495304,26.10781253129244,10.0,3.428546453546453,8.0,35.83086742089516,10.0
subject-03,1,820,0.77916407585144,cat,elephant,c05,c05_elephant_10_n02504013_7633.png,False,-0.3602530053721495,0.0039843395352363,1.0,-0.00035542604850605334,1.913191556930542,0.125,-3.748063072495304,26.10781253129244,10.0,3.428546453546453,8.0,35.83086742089516,10.0
subject-02,1,893,0.871894121170044,oven,elephant,c05,c05_elephant_10_n02504013_7633.png,False,0.16125511572695442,0.0039843395352363,1.0,-0.00035542604850605334,1.913191556930542,0.125,-3.748063072495304,26.10781253129244,10.0,3.428546453546453,8.0,35.83086742089516,10.0
subject-01,1,969,0.753968000411987,oven,elephant,c05,c05_elephant_10_n02504013_7633.png,False,-0.829325844167706,0.0039843395352363,1.0,-0.00035542604850605334,1.913191556930542,0.125,-3.748063072495304,26.10781253129244,10.0,3.428546453546453,8.0,35.83086742089516,10.0
subject-04,1,71,0.919337034225464,knife,knife,c100,c100_knife_10_n03041632_10263.png,True,1.0047344455405203,0.8017181754112244,1.0,-0.21174866933698816,1.8155004978179932,0.1666666666666666,-3.8497645252607255,26.246113002300262,10.0,3.9345959595959594,8.0,33.82076097429326,10.0
subject-03,1,1139,0.925681829452515,knife,knife,c100,c100_knife_10_n03041632_10263.png,True,0.23871474834099712,0.8017181754112244,1.0,-0.21174866933698816,1.8155004978179932,0.1666666666666666,-3.8497645252607255,26.246113002300262,10.0,3.9345959595959594,8.0,33.82076097429326,10.0
subject-02,1,1257,1.01856303215027,bottle,knife,c100,c100_knife_10_n03041632_10263.png,False,0.8464415181749698,0.8017181754112244,1.0,-0.21174866933698816,1.8155004978179932,0.1666666666666666,-3.8497645252607255,26.246113002300262,10.0,3.9345959595959594,8.0,33.82076097429326,10.0
subject-01,1,412,1.31184101104736,knife,knife,c100,c100_knife_10_n03041632_10263.png,True,2.082578954626119,0.8017181754112244,1.0,-0.21174866933698816,1.8155004978179932,0.1666666666666666,-3.8497645252607255,26.246113002300262,10.0,3.9345959595959594,8.0,33.82076097429326,10.0
subject-04,1,72,0.563235998153687,keyboard,keyboard,c50,c50_keyboard_10_n03085013_14279.png,True,-0.8482863307838123,0.0009057576535269,1.0,-7.367405480891121e-05,1.9344087839126587,0.1111111111111111,-3.848688284316969,24.162230973946862,10.0,3.401501276501276,8.0,34.88833589920753,9.0
subject-03,1,883,0.542104959487915,keyboard,keyboard,c50,c50_keyboard_10_n03085013_14279.png,True,-1.3293558132959136,0.0009057576535269,1.0,-7.367405480891121e-05,1.9344087839126587,0.1111111111111111,-3.848688284316969,24.162230973946862,10.0,3.401501276501276,8.0,34.88833589920753,9.0
subject-02,1,107,1.09814214706421,keyboard,keyboard,c50,c50_keyboard_10_n03085013_14279.png,True,1.21820760748091,0.0009057576535269,1.0,-7.367405480891121e-05,1.9344087839126587,0.1111111111111111,-3.848688284316969,24.162230973946862,10.0,3.401501276501276,8.0,34.88833589920753,9.0
subject-01,1,651,0.761439085006714,keyboard,keyboard,c50,c50_keyboard_10_n03085013_14279.png,True,-0.7903293581057564,0.0009057576535269,1.0,-7.367405480891121e-05,1.9344087839126587,0.1111111111111111,-3.848688284316969,24.162230973946862,10.0,3.401501276501276,8.0,34.88833589920753,9.0
subject-04,1,73,0.716804027557373,bicycle,bicycle,c50,c50_bicycle_10_n02835271_5751.png,True,-0.04917394345883303,0.0705972537398338,1.0,-0.010806025295921088,2.123525857925415,0.2,-3.0121586957300464,26.52496000379324,10.0,3.8055555555555554,8.0,29.494855586567567,10.0
subject-03,1,374,0.873330116271973,bicycle,bicycle,c50,c50_bicycle_10_n02835271_5751.png,True,0.024699809699772278,0.0705972537398338,1.0,-0.010806025295921088,2.123525857925415,0.2,-3.0121586957300464,26.52496000379324,10.0,3.8055555555555554,8.0,29.494855586567567,10.0
subject-02,1,284,0.898902893066406,bicycle,bicycle,c50,c50_bicycle_10_n02835271_5751.png,True,0.28743075258500933,0.0705972537398338,1.0,-0.010806025295921088,2.123525857925415,0.2,-3.0121586957300464,26.52496000379324,10.0,3.8055555555555554,8.0,29.494855586567567,10.0
subject-01,1,880,0.766531944274902,bicycle,bicycle,c50,c50_bicycle_10_n02835271_5751.png,True,-0.763746388397779,0.0705972537398338,1.0,-0.010806025295921088,2.123525857925415,0.2,-3.0121586957300464,26.52496000379324,10.0,3.8055555555555554,8.0,29.494855586567567,10.0
subject-04,1,74,0.96851110458374,cat,truck,c03,c03_truck_10_n04467665_30581.png,False,1.260618491920979,2.2420599460601807,0.1111111111111111,-3.442474849136007,1.9046998023986816,0.0909090909090909,-4.388502052587888,28.078205347061157,10.0,0.332306582306582,3.0,43.9670501441355,6.0
subject-03,1,66,1.50016307830811,boat,truck,c03,c03_truck_10_n04467665_30581.png,False,2.5872065503258335,2.2420599460601807,0.1111111111111111,-3.442474849136007,1.9046998023986816,0.0909090909090909,-4.388502052587888,28.078205347061157,10.0,0.332306582306582,3.0,43.9670501441355,6.0
subject-02,1,427,1.2713508605957,car,truck,c03,c03_truck_10_n04467665_30581.png,False,2.027378784277136,2.2420599460601807,0.1111111111111111,-3.442474849136007,1.9046998023986816,0.0909090909090909,-4.388502052587888,28.078205347061157,10.0,0.332306582306582,3.0,43.9670501441355,6.0
subject-01,1,608,0.612596035003662,clock,truck,c03,c03_truck_10_n04467665_30581.png,False,-1.5672387681476028,2.2420599460601807,0.1111111111111111,-3.442474849136007,1.9046998023986816,0.0909090909090909,-4.388502052587888,28.078205347061157,10.0,0.332306582306582,3.0,43.9670501441355,6.0
subject-04,1,75,0.816728115081787,knife,keyboard,c100,c100_keyboard_10_n03085013_2808.png,False,0.47079480552472314,0.0156545788049697,0.5,-6.90762520403035,1.96599543094635,0.0909090909090909,-4.108498194764407,25.629455104470253,10.0,2.143290043290043,9.0,44.6349651643917,6.0
subject-03,1,1267,0.713472843170166,keyboard,keyboard,c100,c100_keyboard_10_n03085013_2808.png,True,-0.6288001889774927,0.0156545788049697,0.5,-6.90762520403035,1.96599543094635,0.0909090909090909,-4.108498194764407,25.629455104470253,10.0,2.143290043290043,9.0,44.6349651643917,6.0
subject-02,1,650,0.840230941772461,knife,keyboard,c100,c100_keyboard_10_n03085013_2808.png,False,0.013335697518272948,0.0156545788049697,0.5,-6.90762520403035,1.96599543094635,0.0909090909090909,-4.108498194764407,25.629455104470253,10.0,2.143290043290043,9.0,44.6349651643917,6.0
subject-01,1,1020,1.0983259677887,knife,keyboard,c100,c100_keyboard_10_n03085013_2808.png,False,0.9681040343006928,0.0156545788049697,0.5,-6.90762520403035,1.96599543094635,0.0909090909090909,-4.108498194764407,25.629455104470253,10.0,2.143290043290043,9.0,44.6349651643917,6.0
subject-04,1,76,0.946367979049683,boat,clock,c03,c03_clock_10_n04548280_750.png,False,1.14539368909537,0.0035796873271465,1.0,-0.0003257328242295609,1.7517536878585815,1.0,-0.8244597248085156,25.333931397646666,10.0,10.083333333333332,2.0,17.396534216817635,10.0
subject-03,1,12,0.803172826766968,boat,clock,c03,c03_clock_10_n04548280_750.png,False,-0.2621047110399413,0.0035796873271465,1.0,-0.0003257328242295609,1.7517536878585815,1.0,-0.8244597248085156,25.333931397646666,10.0,10.083333333333332,2.0,17.396534216817635,10.0
subject-02,1,964,0.867197036743164,boat,clock,c03,c03_clock_10_n04548280_750.png,False,0.13931196254650705,0.0035796873271465,1.0,-0.0003257328242295609,1.7517536878585815,1.0,-0.8244597248085156,25.333931397646666,10.0,10.083333333333332,2.0,17.396534216817635,10.0
subject-01,1,876,0.865509986877441,oven,clock,c03,c03_clock_10_n04548280_750.png,False,-0.24711512691893583,0.0035796873271465,1.0,-0.0003257328242295609,1.7517536878585815,1.0,-0.8244597248085156,25.333931397646666,10.0,10.083333333333332,2.0,17.396534216817635,10.0
subject-04,1,77,0.630477905273438,car,car,c30,c30_car_10_n04285008_11323.png,True,-0.49838380787327846,0.0119060277938842,1.0,-0.0014108234063569304,2.2546119689941406,0.0769230769230769,-4.256105956503084,26.337229132652283,10.0,3.1336080586080586,8.0,40.472790171958536,6.0
subject-03,1,940,0.951194047927856,car,car,c30,c30_car_10_n04285008_11323.png,True,0.34300925065789545,0.0119060277938842,1.0,-0.0014108234063569304,2.2546119689941406,0.0769230769230769,-4.256105956503084,26.337229132652283,10.0,3.1336080586080586,8.0,40.472790171958536,6.0
subject-02,1,188,1.25710606575012,car,car,c30,c30_car_10_n04285008_11323.png,True,1.9608320316720875,0.0119060277938842,1.0,-0.0014108234063569304,2.2546119689941406,0.0769230769230769,-4.256105956503084,26.337229132652283,10.0,3.1336080586080586,8.0,40.472790171958536,6.0
subject-01,1,1103,0.855710983276367,car,car,c30,c30_car_10_n04285008_11323.png,True,-0.29826254768565774,0.0119060277938842,1.0,-0.0014108234063569304,2.2546119689941406,0.0769230769230769,-4.256105956503084,26.337229132652283,10.0,3.1336080586080586,8.0,40.472790171958536,6.0
subject-04,1,78,0.604135990142822,keyboard,keyboard,c05,c05_keyboard_10_n04505470_6080.png,True,-0.6354575905380528,0.0123659968376159,1.0,-0.0012806506156703543,1.703533172607422,0.1,-4.429118339924374,24.642079174518585,10.0,2.8146575646575647,9.0,38.24178398052448,10.0
subject-03,1,645,1.04478693008423,keyboard,keyboard,c05,c05_keyboard_10_n04505470_6080.png,True,0.725618982317959,0.0123659968376159,1.0,-0.0012806506156703543,1.703533172607422,0.1,-4.429118339924374,24.642079174518585,10.0,2.8146575646575647,9.0,38.24178398052448,10.0
subject-02,1,435,0.665760040283203,keyboard,keyboard,c05,c05_keyboard_10_n04505470_6080.png,True,-0.8017319846806071,0.0123659968376159,1.0,-0.0012806506156703543,1.703533172607422,0.1,-4.429118339924374,24.642079174518585,10.0,2.8146575646575647,9.0,38.24178398052448,10.0
subject-01,1,155,0.843644142150879,keyboard,keyboard,c05,c05_keyboard_10_n04505470_6080.png,True,-0.36124729853347565,0.0123659968376159,1.0,-0.0012806506156703543,1.703533172607422,0.1,-4.429118339924374,24.642079174518585,10.0,2.8146575646575647,9.0,38.24178398052448,10.0
subject-04,1,79,0.660006999969482,truck,truck,c100,c100_truck_10_n03417042_3338.png,True,-0.34472509746506474,0.003033747896552,1.0,-0.0002723707115135609,2.1907265186309814,0.0909090909090909,-4.08596129974438,26.68075238727033,10.0,2.5403651903651903,9.0,38.90318086898045,10.0
subject-03,1,157,0.630409002304077,truck,truck,c100,c100_truck_10_n03417042_3338.png,True,-0.968366971538255,0.003033747896552,1.0,-0.0002723707115135609,2.1907265186309814,0.0909090909090909,-4.08596129974438,26.68075238727033,10.0,2.5403651903651903,9.0,38.90318086898045,10.0
subject-02,1,313,1.25573706626892,truck,truck,c100,c100_truck_10_n03417042_3338.png,True,1.9544365397903543,0.003033747896552,1.0,-0.0002723707115135609,2.1907265186309814,0.0909090909090909,-4.08596129974438,26.68075238727033,10.0,2.5403651903651903,9.0,38.90318086898045,10.0
subject-01,1,681,1.13971304893494,car,truck,c100,c100_truck_10_n03417042_3338.png,False,1.1841303304295347,0.003033747896552,1.0,-0.0002723707115135609,2.1907265186309814,0.0909090909090909,-4.08596129974438,26.68075238727033,10.0,2.5403651903651903,9.0,38.90318086898045,10.0
subject-04,1,80,0.843464136123657,bicycle,bicycle,c15,c15_bicycle_10_n03792782_20193.png,True,0.6099193725671052,0.0043929973617196,1.0,-0.00041058146560336183,2.01354718208313,0.2,-2.8745211248208014,25.221817986108363,10.0,4.2595238095238095,8.0,29.394709776127982,9.0
subject-03,1,117,0.938217163085938,bicycle,bicycle,c15,c15_bicycle_10_n03792782_20193.png,True,0.28995946404213374,0.0043929973617196,1.0,-0.00041058146560336183,2.01354718208313,0.2,-2.8745211248208014,25.221817986108363,10.0,4.2595238095238095,8.0,29.394709776127982,9.0
subject-02,1,733,0.606533050537109,bicycle,bicycle,c15,c15_bicycle_10_n03792782_20193.png,True,-1.0784199873441218,0.0043929973617196,1.0,-0.00041058146560336183,2.01354718208313,0.2,-2.8745211248208014,25.221817986108363,10.0,4.2595238095238095,8.0,29.394709776127982,9.0
subject-01,1,282,0.823670148849487,bicycle,bicycle,c15,c15_bicycle_10_n03792782_20193.png,True,-0.46550465789050366,0.0043929973617196,1.0,-0.00041058146560336183,2.01354718208313,0.2,-2.8745211248208014,25.221817986108363,10.0,4.2595238095238095,8.0,29.394709776127982,9.0
subject-04,1,81,0.878767013549805,keyboard,keyboard,c03,c03_keyboard_10_n04505470_4887.png,True,0.7936227564614948,0.8798402547836304,1.0,-0.21217334519096331,1.6836100816726685,0.0909090909090909,-4.593295200633525,25.734318256378174,10.0,1.7528860028860027,10.0,40.648264312958915,10.0
subject-03,1,337,1.33978295326233,keyboard,keyboard,c03,c03_keyboard_10_n04505470_4887.png,True,1.931569121564439,0.8798402547836304,1.0,-0.21217334519096331,1.6836100816726685,0.0909090909090909,-4.593295200633525,25.734318256378174,10.0,1.7528860028860027,10.0,40.648264312958915,10.0
subject-02,1,638,0.621474027633667,keyboard,keyboard,c03,c03_keyboard_10_n04505470_4887.png,True,-1.0086209121520457,0.8798402547836304,1.0,-0.21217334519096331,1.6836100816726685,0.0909090909090909,-4.593295200633525,25.734318256378174,10.0,1.7528860028860027,10.0,40.648264312958915,10.0
subject-01,1,182,0.841577053070068,keyboard,keyboard,c03,c03_keyboard_10_n04505470_4887.png,True,-0.37203679094339254,0.8798402547836304,1.0,-0.21217334519096331,1.6836100816726685,0.0909090909090909,-4.593295200633525,25.734318256378174,10.0,1.7528860028860027,10.0,40.648264312958915,10.0
subject-04,1,82,0.66656494140625,oven,bottle,c01,c01_bottle_10_n04591713_1879.png,False,-0.3105999461700823,1.982508897781372,0.1428571428571428,-3.3451106161888915,1.7716734409332275,0.5,-1.2214828417175756,27.304171085357666,10.0,2.7078754578754576,4.0,27.599176970451428,4.0
subject-03,1,563,0.713837146759033,oven,bottle,c01,c01_bottle_10_n04591713_1879.png,False,-0.6273109080068916,1.982508897781372,0.1428571428571428,-3.3451106161888915,1.7716734409332275,0.5,-1.2214828417175756,27.304171085357666,10.0,2.7078754578754576,4.0,27.599176970451428,4.0
subject-02,1,436,0.625937938690186,cat,bottle,c01,c01_bottle_10_n04591713_1879.png,False,-0.9877670642764279,1.982508897781372,0.1428571428571428,-3.3451106161888915,1.7716734409332275,0.5,-1.2214828417175756,27.304171085357666,10.0,2.7078754578754576,4.0,27.599176970451428,4.0
subject-01,1,245,0.902717113494873,cat,bottle,c01,c01_bottle_10_n04591713_1879.png,False,-0.05290675246605599,1.982508897781372,0.1428571428571428,-3.3451106161888915,1.7716734409332275,0.5,-1.2214828417175756,27.304171085357666,10.0,2.7078754578754576,4.0,27.599176970451428,4.0
subject-04,1,83,0.568460941314697,clock,oven,c01,c01_oven_10_n04111531_5102.png,False,-0.8210976195706445,1.5617554187774658,0.0625,-6.979816211489859,1.7753961086273191,0.0625,-8.039844717657989,26.78901219367981,10.0,0.0,0.0,70.32152794948524,6.0
subject-03,1,1011,1.12242388725281,keyboard,oven,c01,c01_oven_10_n04111531_5102.png,False,1.043000546650426,1.5617554187774658,0.0625,-6.979816211489859,1.7753961086273191,0.0625,-8.039844717657989,26.78901219367981,10.0,0.0,0.0,70.32152794948524,6.0
subject-02,1,590,0.64610481262207,bicycle,oven,c01,c01_oven_10_n04111531_5102.png,False,-0.8935544073087001,1.5617554187774658,0.0625,-6.979816211489859,1.7753961086273191,0.0625,-8.039844717657989,26.78901219367981,10.0,0.0,0.0,70.32152794948524,6.0
subject-01,1,1039,1.1309540271759,oven,oven,c01,c01_oven_10_n04111531_5102.png,True,1.1384112563631272,1.5617554187774658,0.0625,-6.979816211489859,1.7753961086273191,0.0625,-8.039844717657989,26.78901219367981,10.0,0.0,0.0,70.32152794948524,6.0
subject-04,1,84,0.732028007507324,dog,dog,c30,c30_dog_10_n02101388_8775.png,True,0.030046132553296297,0.0790803730487823,1.0,-0.01165298790439914,2.253140687942505,0.0769230769230769,-4.143442046729279,26.77634671330452,10.0,2.6872766122766123,10.0,34.99627908008084,10.0
subject-03,1,191,0.707775115966797,dog,dog,c30,c30_dog_10_n02101388_8775.png,True,-0.6520926213305314,0.0790803730487823,1.0,-0.01165298790439914,2.253140687942505,0.0769230769230769,-4.143442046729279,26.77634671330452,10.0,2.6872766122766123,10.0,34.99627908008084,10.0
subject-02,1,328,1.00257587432861,dog,dog,c30,c30_dog_10_n02101388_8775.png,True,0.7717550486294994,0.0790803730487823,1.0,-0.01165298790439914,2.253140687942505,0.0769230769230769,-4.143442046729279,26.77634671330452,10.0,2.6872766122766123,10.0,34.99627908008084,10.0
subject-01,1,477,0.995477914810181,dog,dog,c30,c30_dog_10_n02101388_8775.png,True,0.43127265277595644,0.0790803730487823,1.0,-0.01165298790439914,2.253140687942505,0.0769230769230769,-4.143442046729279,26.77634671330452,10.0,2.6872766122766123,10.0,34.99627908008084,10.0
subject-04,1,85,0.628350019454956,bird,bird,c50,c50_bird_10_n02027492_6499.png,True,-0.5094565547396995,0.0008853539475239,1.0,-6.950143097649546e-05,2.357682228088379,0.1428571428571428,-2.9462026778365327,26.466130123997573,10.0,3.932539682539682,8.0,29.45327230112132,9.0
subject-03,1,402,0.773469924926758,bird,bird,c50,c50_bird_10_n02027492_6499.png,True,-0.38353081782036985,0.0008853539475239,1.0,-6.950143097649546e-05,2.357682228088379,0.1428571428571428,-2.9462026778365327,26.466130123997573,10.0,3.932539682539682,8.0,29.45327230112132,9.0
subject-02,1,537,0.593614101409912,bird,bird,c50,c50_bird_10_n02027492_6499.png,True,-1.138772847515467,0.0008853539475239,1.0,-6.950143097649546e-05,2.357682228088379,0.1428571428571428,-2.9462026778365327,26.466130123997573,10.0,3.932539682539682,8.0,29.45327230112132,9.0
subject-01,1,339,0.803296804428101,bird,bird,c50,c50_bird_10_n02027492_6499.png,True,-0.5718464924247579,0.0008853539475239,1.0,-6.950143097649546e-05,2.357682228088379,0.1428571428571428,-2.9462026778365327,26.466130123997573,10.0,3.932539682539682,8.0,29.45327230112132,9.0
subject-04,1,86,0.779700040817261,bird,bird,c05,c05_bird_10_n02056570_13462.png,True,0.2781141223221698,0.2595559656620025,1.0,-0.040733917635321006,2.0726308822631836,0.125,-3.6061226582641663,26.45614066720009,10.0,1.945238095238095,10.0,34.8120880884152,10.0
subject-03,1,62,0.633798122406006,bird,bird,c05,c05_bird_10_n02056570_13462.png,True,-0.9545121750741796,0.2595559656620025,1.0,-0.040733917635321006,2.0726308822631836,0.125,-3.6061226582641663,26.45614066720009,10.0,1.945238095238095,10.0,34.8120880884152,10.0
subject-02,1,397,0.993448972702026,bird,bird,c05,c05_bird_10_n02056570_13462.png,True,0.7291173222754864,0.2595559656620025,1.0,-0.040733917635321006,2.0726308822631836,0.125,-3.6061226582641663,26.45614066720009,10.0,1.945238095238095,10.0,34.8120880884152,10.0
subject-01,1,878,0.942876100540161,bird,bird,c05,c05_bird_10_n02056570_13462.png,True,0.15670931581924916,0.2595559656620025,1.0,-0.040733917635321006,2.0726308822631836,0.125,-3.6061226582641663,26.45614066720009,10.0,1.945238095238095,10.0,34.8120880884152,10.0
subject-04,1,87,0.657502889633179,boat,bicycle,c03,c03_bicycle_10_n03792782_4844.png,False,-0.357755580416096,0.2024022340774536,1.0,-0.02990107789892026,2.100803852081299,0.2,-3.0848978920025694,26.410728573799133,10.0,3.061111111111111,9.0,31.15986083276856,10.0
subject-03,1,935,0.830234050750732,car,bicycle,c03,c03_bicycle_10_n03792782_4844.png,False,-0.15147784061702133,0.2024022340774536,1.0,-0.02990107789892026,2.100803852081299,0.2,-3.0848978920025694,26.410728573799133,10.0,3.061111111111111,9.0,31.15986083276856,10.0
subject-02,1,1095,0.568588018417358,boat,bicycle,c03,c03_bicycle_10_n03792782_4844.png,False,-1.255686047855145,0.2024022340774536,1.0,-0.02990107789892026,2.100803852081299,0.2,-3.0848978920025694,26.410728573799133,10.0,3.061111111111111,9.0,31.15986083276856,10.0
subject-01,1,422,0.983865022659302,cat,bicycle,c03,c03_bicycle_10_n03792782_4844.png,False,0.37065735908482333,0.2024022340774536,1.0,-0.02990107789892026,2.100803852081299,0.2,-3.0848978920025694,26.410728573799133,10.0,3.061111111111111,9.0,31.15986083276856,10.0
subject-04,1,88,0.839717149734497,cat,cat,c50,c50_cat_10_n02123159_8273.png,True,0.590421412930957,0.0103288833051919,1.0,-0.0010527547460888046,2.3060896396636963,0.1666666666666666,-2.7737711427107388,25.169330591335893,9.0,5.506746031746031,6.0,26.12318180295149,9.0
subject-03,1,450,0.632285833358765,cat,cat,c50,c50_cat_10_n02123159_8273.png,True,-0.9606944454907544,0.0103288833051919,1.0,-0.0010527547460888046,2.3060896396636963,0.1666666666666666,-2.7737711427107388,25.169330591335893,9.0,5.506746031746031,6.0,26.12318180295149,9.0
subject-02,1,447,0.697479963302612,cat,cat,c50,c50_cat_10_n02123159_8273.png,True,-0.6535474799049018,0.0103288833051919,1.0,-0.0010527547460888046,2.3060896396636963,0.1666666666666666,-2.7737711427107388,25.169330591335893,9.0,5.506746031746031,6.0,26.12318180295149,9.0
subject-01,1,529,0.682315111160278,cat,cat,c50,c50_cat_10_n02123159_8273.png,True,-1.2033292250121428,0.0103288833051919,1.0,-0.0010527547460888046,2.3060896396636963,0.1666666666666666,-2.7737711427107388,25.169330591335893,9.0,5.506746031746031,6.0,26.12318180295149,9.0
subject-04,1,89,0.657180070877075,knife,knife,c15,c15_knife_10_n03041632_11700.png,True,-0.35943541226563724,0.281716525554657,1.0,-0.05083345304666196,1.8477628231048584,0.1666666666666666,-3.677115889939391,25.635155856609344,10.0,4.446464646464646,7.0,32.982738929272735,10.0
subject-03,1,1175,0.849043846130371,knife,knife,c15,c15_knife_10_n03041632_11700.png,True,-0.07458298924616576,0.281716525554657,1.0,-0.05083345304666196,1.8477628231048584,0.1666666666666666,-3.677115889939391,25.635155856609344,10.0,4.446464646464646,7.0,32.982738929272735,10.0
subject-02,1,738,1.08965110778809,bottle,knife,c15,c15_knife_10_n03041632_11700.png,False,1.1785404100103163,0.281716525554657,1.0,-0.05083345304666196,1.8477628231048584,0.1666666666666666,-3.677115889939391,25.635155856609344,10.0,4.446464646464646,7.0,32.982738929272735,10.0
subject-01,1,484,0.89868688583374,knife,knife,c15,c15_knife_10_n03041632_11700.png,True,-0.07394315150840962,0.281716525554657,1.0,-0.05083345304666196,1.8477628231048584,0.1666666666666666,-3.677115889939391,25.635155856609344,10.0,4.446464646464646,7.0,32.982738929272735,10.0
subject-04,1,90,0.68100905418396,bicycle,bicycle,c30,c30_bicycle_10_n03792782_67167.png,True,-0.23543801637644524,0.0027678683400154,1.0,-0.0002434550020270153,2.181662082672119,0.2,-2.7499466564952693,26.34038693457842,10.0,4.366666666666667,8.0,28.880760839659462,10.0
subject-03,1,211,0.536086082458496,bicycle,bicycle,c30,c30_bicycle_10_n03792782_67167.png,True,-1.3539611131014406,0.0027678683400154,1.0,-0.0002434550020270153,2.181662082672119,0.2,-2.7499466564952693,26.34038693457842,10.0,4.366666666666667,8.0,28.880760839659462,10.0
subject-02,1,1112,0.609601974487305,bicycle,bicycle,c30,c30_bicycle_10_n03792782_67167.png,True,-1.064083036542702,0.0027678683400154,1.0,-0.0002434550020270153,2.181662082672119,0.2,-2.7499466564952693,26.34038693457842,10.0,4.366666666666667,8.0,28.880760839659462,10.0
subject-01,1,1196,0.837602138519287,bicycle,bicycle,c30,c30_bicycle_10_n03792782_67167.png,True,-0.3927844746179122,0.0027678683400154,1.0,-0.0002434550020270153,2.181662082672119,0.2,-2.7499466564952693,26.34038693457842,10.0,4.366666666666667,8.0,28.880760839659462,10.0
subject-04,1,91,0.604782819747925,bottle,bottle,c100,c100_bottle_10_n03983396_17803.png,True,-0.6320917236194408,0.0961128398776054,1.0,-0.015476884256078462,1.625148057937622,0.5,-1.2261918362119248,24.511603705585003,10.0,9.083333333333332,1.0,16.46836103992327,10.0
subject-03,1,57,0.612541913986206,bottle,bottle,c100,c100_bottle_10_n03983396_17803.png,True,-1.04140801599958,0.0961128398776054,1.0,-0.015476884256078462,1.625148057937622,0.5,-1.2261918362119248,24.511603705585003,10.0,9.083333333333332,1.0,16.46836103992327,10.0
subject-02,1,937,0.625648021697998,bottle,bottle,c100,c100_bottle_10_n03983396_17803.png,True,-0.9891214561482853,0.0961128398776054,1.0,-0.015476884256078462,1.625148057937622,0.5,-1.2261918362119248,24.511603705585003,10.0,9.083333333333332,1.0,16.46836103992327,10.0
subject-01,1,488,0.842176914215088,bottle,bottle,c100,c100_bottle_10_n03983396_17803.png,True,-0.36890572255776793,0.0961128398776054,1.0,-0.015476884256078462,1.625148057937622,0.5,-1.2261918362119248,24.511603705585003,10.0,9.083333333333332,1.0,16.46836103992327,10.0
subject-04,1,92,1.25854182243347,cat,cat,c05,c05_cat_10_n02125311_46330.png,True,2.7698332694918113,0.0018875383539125,1.0,-0.0001705434304065442,1.9817397594451904,0.1666666666666666,-3.3210550841714044,25.806494452874176,10.0,4.048412698412698,8.0,31.87168172306868,10.0
