subject_id,Session,trial,rt,object_response,category,condition,item_id,response_correct,rt_zscore,output_entropy,output_rank_correct,output_logprob_correct,midpoint_entropy,midpoint_rank_correct,midpoint_logprob_correct,auc_entropy,layer_biggest_change_entropy,auc_rank_correct,layer_biggest_change_rank_correct,auc_logprob_correct,layer_biggest_change_logprob_correct
subject-04,1,1,1.08663988113403,bear,dog,8-3-10,8-3-10_dog_10_n02113624_8833.png,False,0.0834384551415285,0.9214909076690674,0.25,-3.8393170331701865,2.1972901821136475,0.0909090909090909,-3.774272066091492,27.449290990829468,10.0,1.6774531024531023,8.0,37.12614298337229,6.0
subject-03,1,459,0.888329982757568,bear,dog,8-3-10,8-3-10_dog_10_n02113624_8833.png,False,-0.2890088928134462,0.9214909076690674,0.25,-3.8393170331701865,2.1972901821136475,0.0909090909090909,-3.774272066091492,27.449290990829468,10.0,1.6774531024531023,8.0,37.12614298337229,6.0
subject-02,1,49,0.717509031295776,cat,dog,8-3-10,8-3-10_dog_10_n02113624_8833.png,False,-1.2263734568620346,0.9214909076690674,0.25,-3.8393170331701865,2.1972901821136475,0.0909090909090909,-3.774272066091492,27.449290990829468,10.0,1.6774531024531023,8.0,37.12614298337229,6.0
subject-01,1,912,0.911444902420044,bear,dog,8-3-10,8-3-10_dog_10_n02113624_8833.png,False,-0.10543644265650515,0.9214909076690674,0.25,-3.8393170331701865,2.1972901821136475,0.0909090909090909,-3.774272066091492,27.449290990829468,10.0,1.6774531024531023,8.0,37.12614298337229,6.0
subject-04,1,2,1.24060893058777,bear,keyboard,64-3-10,64-3-10_keyboard_10_n03085013_20852.png,False,0.628608333775231,2.218686580657959,0.0769230769230769,-4.695817925491204,2.049835205078125,0.0909090909090909,-4.069218392218924,28.516103982925415,10.0,0.4527999777999776,7.0,43.43554421451606,7.0
subject-03,1,204,1.2787868976593,dog,keyboard,64-3-10,64-3-10_keyboard_10_n03085013_20852.png,False,1.6794112863005597,2.218686580657959,0.0769230769230769,-4.695817925491204,2.049835205078125,0.0909090909090909,-4.069218392218924,28.516103982925415,10.0,0.4527999777999776,7.0,43.43554421451606,7.0
subject-02,1,918,0.928431034088135,cat,keyboard,64-3-10,64-3-10_keyboard_10_n03085013_20852.png,False,-0.04919881361510212,2.218686580657959,0.0769230769230769,-4.695817925491204,2.049835205078125,0.0909090909090909,-4.069218392218924,28.516103982925415,10.0,0.4527999777999776,7.0,43.43554421451606,7.0
subject-01,1,803,0.73471212387085,cat,keyboard,64-3-10,64-3-10_keyboard_10_n03085013_20852.png,False,-0.9725983011314792,2.218686580657959,0.0769230769230769,-4.695817925491204,2.049835205078125,0.0909090909090909,-4.069218392218924,28.516103982925415,10.0,0.4527999777999776,7.0,43.43554421451606,7.0
subject-04,1,3,0.906409978866577,elephant,cat,64-3-10,64-3-10_cat_10_n02123394_2153.png,False,-0.5547152146635996,1.963562250137329,0.3333333333333333,-2.33919574833554,2.189627170562744,0.25,-2.5219335664112292,28.72441005706787,10.0,4.905555555555555,6.0,29.918557340033765,5.0
subject-03,1,97,0.613754987716675,boat,cat,64-3-10,64-3-10_cat_10_n02123394_2153.png,False,-1.6732306604178095,1.963562250137329,0.3333333333333333,-2.33919574833554,2.189627170562744,0.25,-2.5219335664112292,28.72441005706787,10.0,4.905555555555555,6.0,29.918557340033765,5.0
subject-02,1,1078,0.820978879928589,cat,cat,64-3-10,64-3-10_cat_10_n02123394_2153.png,True,-0.64889893766238,1.963562250137329,0.3333333333333333,-2.33919574833554,2.189627170562744,0.25,-2.5219335664112292,28.72441005706787,10.0,4.905555555555555,6.0,29.918557340033765,5.0
subject-01,1,168,1.16495800018311,elephant,cat,64-3-10,64-3-10_cat_10_n02123394_2153.png,False,1.1384578185474292,1.963562250137329,0.3333333333333333,-2.33919574833554,2.189627170562744,0.25,-2.5219335664112292,28.72441005706787,10.0,4.905555555555555,6.0,29.918557340033765,5.0
subject-04,1,4,1.24826312065125,oven,oven,64-3-10,64-3-10_oven_10_n04111531_2922.png,True,0.6557101044411618,2.0450072288513184,0.1111111111111111,-4.033892149545409,2.246272087097168,0.0625,-6.692075681243787,28.94095540046692,10.0,0.0927960927960927,10.0,60.35835391617104,6.0
subject-03,1,1160,0.785953044891357,cat,oven,64-3-10,64-3-10_oven_10_n04111531_2922.png,False,-0.8051243019168252,2.0450072288513184,0.1111111111111111,-4.033892149545409,2.246272087097168,0.0625,-6.692075681243787,28.94095540046692,10.0,0.0927960927960927,10.0,60.35835391617104,6.0
subject-02,1,899,0.765967130661011,cat,oven,64-3-10,64-3-10_oven_10_n04111531_2922.png,False,-0.9559244516491876,2.0450072288513184,0.1111111111111111,-4.033892149545409,2.246272087097168,0.0625,-6.692075681243787,28.94095540046692,10.0,0.0927960927960927,10.0,60.35835391617104,6.0
subject-01,1,332,0.880831003189087,car,oven,64-3-10,64-3-10_oven_10_n04111531_2922.png,False,-0.25564743334091133,2.0450072288513184,0.1111111111111111,-4.033892149545409,2.246272087097168,0.0625,-6.692075681243787,28.94095540046692,10.0,0.0927960927960927,10.0,60.35835391617104,6.0
subject-04,1,5,1.50001311302185,bottle,knife,1-3-10,1-3-10_knife_10_n03041632_29801.png,False,1.5471003758862758,1.1272554397583008,0.5,-1.0143135441406466,1.935509204864502,0.1428571428571428,-3.6046376612592983,26.391344785690308,10.0,2.35523088023088,8.0,35.26429132455741,10.0
subject-03,1,799,0.920106887817383,bottle,knife,1-3-10,1-3-10_knife_10_n03041632_29801.png,False,-0.12881118914293463,1.1272554397583008,0.5,-1.0143135441406466,1.935509204864502,0.1428571428571428,-3.6046376612592983,26.391344785690308,10.0,2.35523088023088,8.0,35.26429132455741,10.0
subject-02,1,1082,0.920855045318604,bottle,knife,1-3-10,1-3-10_knife_10_n03041632_29801.png,False,-0.09148108743645869,1.1272554397583008,0.5,-1.0143135441406466,1.935509204864502,0.1428571428571428,-3.6046376612592983,26.391344785690308,10.0,2.35523088023088,8.0,35.26429132455741,10.0
subject-01,1,988,0.70698881149292,bottle,knife,1-3-10,1-3-10_knife_10_n03041632_29801.png,False,-1.1086262597369978,1.1272554397583008,0.5,-1.0143135441406466,1.935509204864502,0.1428571428571428,-3.6046376612592983,26.391344785690308,10.0,2.35523088023088,8.0,35.26429132455741,10.0
subject-04,1,6,,na,knife,2-3-10,2-3-10_knife_10_n03041632_43436.png,False,,0.7075947523117065,1.0,-0.2033256034042469,1.548492670059204,0.1666666666666666,-3.756861974397643,25.08293902873993,10.0,3.3207070707070705,8.0,35.19097069815847,10.0
subject-03,1,560,0.829296827316284,knife,knife,2-3-10,2-3-10_knife_10_n03041632_43436.png,True,-0.5866142110254247,0.7075947523117065,1.0,-0.2033256034042469,1.548492670059204,0.1666666666666666,-3.756861974397643,25.08293902873993,10.0,3.3207070707070705,8.0,35.19097069815847,10.0
subject-02,1,737,0.920667886734009,knife,knife,2-3-10,2-3-10_knife_10_n03041632_43436.png,True,-0.09252563630824259,0.7075947523117065,1.0,-0.2033256034042469,1.548492670059204,0.1666666666666666,-3.756861974397643,25.08293902873993,10.0,3.3207070707070705,8.0,35.19097069815847,10.0
subject-01,1,98,0.997018098831177,knife,knife,2-3-10,2-3-10_knife_10_n03041632_43436.png,True,0.31443933050046347,0.7075947523117065,1.0,-0.2033256034042469,1.548492670059204,0.1666666666666666,-3.756861974397643,25.08293902873993,10.0,3.3207070707070705,8.0,35.19097069815847,10.0
subject-04,1,7,1.19963192939758,elephant,boat,32-3-10,32-3-10_boat_10_n03344393_2142.png,False,0.483517961100423,0.3099603652954101,0.0625,-7.592219084486491,2.0675861835479736,0.1666666666666666,-2.9219866046734797,26.75954270362854,10.0,1.2504329004329002,0.0,40.12725115711508,7.0
subject-03,1,617,0.722490072250366,bear,boat,32-3-10,32-3-10_boat_10_n03344393_2142.png,False,-1.1250617680122237,0.3099603652954101,0.0625,-7.592219084486491,2.0675861835479736,0.1666666666666666,-2.9219866046734797,26.75954270362854,10.0,1.2504329004329002,0.0,40.12725115711508,7.0
subject-02,1,647,1.10748600959778,dog,boat,32-3-10,32-3-10_boat_10_n03344393_2142.png,False,0.9501230879726377,0.3099603652954101,0.0625,-7.592219084486491,2.0675861835479736,0.1666666666666666,-2.9219866046734797,26.75954270362854,10.0,1.2504329004329002,0.0,40.12725115711508,7.0
subject-01,1,666,0.827326059341431,cat,boat,32-3-10,32-3-10_boat_10_n03344393_2142.png,False,-0.5181762461927826,0.3099603652954101,0.0625,-7.592219084486491,2.0675861835479736,0.1666666666666666,-2.9219866046734797,26.75954270362854,10.0,1.2504329004329002,0.0,40.12725115711508,7.0
subject-04,1,8,0.815458059310913,elephant,keyboard,32-3-10,32-3-10_keyboard_10_n04505470_5109.png,False,-0.8767555670693682,0.9111789464950562,0.0714285714285714,-5.820451078445303,2.0734362602233887,0.0833333333333333,-4.249054027773027,27.62949526309967,10.0,0.3034854034854031,9.0,46.77698592216721,6.0
subject-03,1,926,0.690138101577759,bear,keyboard,32-3-10,32-3-10_keyboard_10_n04505470_5109.png,False,-1.2881585642927846,0.9111789464950562,0.0714285714285714,-5.820451078445303,2.0734362602233887,0.0833333333333333,-4.249054027773027,27.62949526309967,10.0,0.3034854034854031,9.0,46.77698592216721,6.0
subject-02,1,445,1.06573700904846,dog,keyboard,32-3-10,32-3-10_keyboard_10_n04505470_5109.png,False,0.7171181658832938,0.9111789464950562,0.0714285714285714,-5.820451078445303,2.0734362602233887,0.0833333333333333,-4.249054027773027,27.62949526309967,10.0,0.3034854034854031,9.0,46.77698592216721,6.0
subject-01,1,616,1.03628587722778,bicycle,keyboard,32-3-10,32-3-10_keyboard_10_n04505470_5109.png,False,0.5071116800901209,0.9111789464950562,0.0714285714285714,-5.820451078445303,2.0734362602233887,0.0833333333333333,-4.249054027773027,27.62949526309967,10.0,0.3034854034854031,9.0,46.77698592216721,6.0
subject-04,1,9,0.871419191360474,bicycle,bicycle,4-3-10,4-3-10_bicycle_10_n03792782_6152.png,True,-0.6786097470107078,0.2450682520866394,1.0,-0.04110989907626436,2.251204490661621,0.1666666666666666,-3.1207651938055623,27.259314477443695,10.0,2.047222222222222,10.0,31.063280019534133,10.0
subject-03,1,326,0.859444856643677,bicycle,bicycle,4-3-10,4-3-10_bicycle_10_n03792782_6152.png,True,-0.43462819919234796,0.2450682520866394,1.0,-0.04110989907626436,2.251204490661621,0.1666666666666666,-3.1207651938055623,27.259314477443695,10.0,2.047222222222222,10.0,31.063280019534133,10.0
subject-02,1,808,1.23319578170776,bicycle,bicycle,4-3-10,4-3-10_bicycle_10_n03792782_6152.png,True,1.6517206177566646,0.2450682520866394,1.0,-0.04110989907626436,2.251204490661621,0.1666666666666666,-3.1207651938055623,27.259314477443695,10.0,2.047222222222222,10.0,31.063280019534133,10.0
subject-01,1,861,0.960108995437622,bicycle,bicycle,4-3-10,4-3-10_bicycle_10_n03792782_6152.png,True,0.13334011983824232,0.2450682520866394,1.0,-0.04110989907626436,2.251204490661621,0.1666666666666666,-3.1207651938055623,27.259314477443695,10.0,2.047222222222222,10.0,31.063280019534133,10.0
subject-04,1,10,1.03110218048096,boat,boat,1-3-10,1-3-10_boat_10_n03662601_34796.png,True,-0.11320808929093572,0.0248910430818796,1.0,-0.002994845103485225,1.9260847568511963,0.25,-2.7517191755033714,25.575164103880525,10.0,3.5583333333333336,9.0,27.17909867690859,10.0
subject-03,1,458,0.670536994934082,boat,boat,1-3-10,1-3-10_boat_10_n03662601_34796.png,True,-1.3869741118675785,0.0248910430818796,1.0,-0.002994845103485225,1.9260847568511963,0.25,-2.7517191755033714,25.575164103880525,10.0,3.5583333333333336,9.0,27.17909867690859,10.0
subject-02,1,326,0.765283107757568,boat,boat,1-3-10,1-3-10_boat_10_n03662601_34796.png,True,-0.9597420449143428,0.0248910430818796,1.0,-0.002994845103485225,1.9260847568511963,0.25,-2.7517191755033714,25.575164103880525,10.0,3.5583333333333336,9.0,27.17909867690859,10.0
subject-01,1,66,0.773398160934448,boat,boat,1-3-10,1-3-10_boat_10_n03662601_34796.png,True,-0.7827803393900841,0.0248910430818796,1.0,-0.002994845103485225,1.9260847568511963,0.25,-2.7517191755033714,25.575164103880525,10.0,3.5583333333333336,9.0,27.17909867690859,10.0
subject-04,1,11,1.16304612159729,bear,chair,16-3-10,16-3-10_chair_10_n03376595_6986.png,False,0.3539758195533804,1.9065173864364624,0.0769230769230769,-5.1029313172608095,2.114748954772949,0.0666666666666666,-5.603142894184702,28.37691342830658,10.0,0.08003663003662936,9.0,53.30427268177011,7.0
subject-03,1,102,1.03680896759033,dog,chair,16-3-10,16-3-10_chair_10_n03376595_6986.png,False,0.4595219149780557,1.9065173864364624,0.0769230769230769,-5.1029313172608095,2.114748954772949,0.0666666666666666,-5.603142894184702,28.37691342830658,10.0,0.08003663003662936,9.0,53.30427268177011,7.0
subject-02,1,428,1.10707402229309,bottle,chair,16-3-10,16-3-10_chair_10_n03376595_6986.png,False,0.9478237498191955,1.9065173864364624,0.0769230769230769,-5.1029313172608095,2.114748954772949,0.0666666666666666,-5.603142894184702,28.37691342830658,10.0,0.08003663003662936,9.0,53.30427268177011,7.0
subject-01,1,973,1.09815907478333,bottle,chair,16-3-10,16-3-10_chair_10_n03376595_6986.png,False,0.8107003942070397,1.9065173864364624,0.0769230769230769,-5.1029313172608095,2.114748954772949,0.0666666666666666,-5.603142894184702,28.37691342830658,10.0,0.08003663003662936,9.0,53.30427268177011,7.0
subject-04,1,12,1.37870502471924,cat,car,64-3-10,64-3-10_car_10_n04285008_8113.png,False,1.1175756369088483,1.600939154624939,0.0714285714285714,-4.460614369137795,2.0074732303619385,0.0714285714285714,-4.68064922443515,27.4871426820755,10.0,0.2899572649572646,7.0,50.27692797290413,6.0
subject-03,1,563,1.12452101707458,keyboard,car,64-3-10,64-3-10_car_10_n04285008_8113.png,False,0.9017068566884533,1.600939154624939,0.0714285714285714,-4.460614369137795,2.0074732303619385,0.0714285714285714,-4.68064922443515,27.4871426820755,10.0,0.2899572649572646,7.0,50.27692797290413,6.0
subject-02,1,1054,0.893860101699829,cat,car,64-3-10,64-3-10_car_10_n04285008_8113.png,False,-0.24214229254167444,1.600939154624939,0.0714285714285714,-4.460614369137795,2.0074732303619385,0.0714285714285714,-4.68064922443515,27.4871426820755,10.0,0.2899572649572646,7.0,50.27692797290413,6.0
subject-01,1,1,0.969465970993042,oven,car,64-3-10,64-3-10_car_10_n04285008_8113.png,False,0.17925131061423288,1.600939154624939,0.0714285714285714,-4.460614369137795,2.0074732303619385,0.0714285714285714,-4.68064922443515,27.4871426820755,10.0,0.2899572649572646,7.0,50.27692797290413,6.0
subject-04,1,13,1.43067502975464,dog,dog,64-3-10,64-3-10_dog_10_n02087046_15420.png,True,1.3015897711667492,2.1005351543426514,0.1666666666666666,-2.8909095438235526,2.0794568061828613,0.0909090909090909,-3.8691997324935197,28.483224630355835,10.0,1.0941197691197688,7.0,37.19642169936447,6.0
subject-03,1,220,1.27405691146851,dog,dog,64-3-10,64-3-10_dog_10_n02087046_15420.png,True,1.6555658889992346,2.1005351543426514,0.1666666666666666,-2.8909095438235526,2.0794568061828613,0.0909090909090909,-3.8691997324935197,28.483224630355835,10.0,1.0941197691197688,7.0,37.19642169936447,6.0
subject-02,1,932,0.799807071685791,cat,dog,64-3-10,64-3-10_dog_10_n02087046_15420.png,False,-0.7670607011823453,2.1005351543426514,0.1666666666666666,-2.8909095438235526,2.0794568061828613,0.0909090909090909,-3.8691997324935197,28.483224630355835,10.0,1.0941197691197688,7.0,37.19642169936447,6.0
subject-01,1,626,0.806489944458008,truck,dog,64-3-10,64-3-10_dog_10_n02087046_15420.png,False,-0.6204112942355415,2.1005351543426514,0.1666666666666666,-2.8909095438235526,2.0794568061828613,0.0909090909090909,-3.8691997324935197,28.483224630355835,10.0,1.0941197691197688,7.0,37.19642169936447,6.0
subject-04,1,14,1.40647506713867,bottle,bottle,4-3-10,4-3-10_bottle_10_n04557648_11642.png,True,1.2159031300587109,0.9906242489814758,0.5,-2.2841473830369634,2.1910202503204346,0.5,-1.5224372556456476,27.52369314432144,10.0,5.666666666666667,1.0,23.867183539812643,10.0
subject-03,1,596,1.42424702644348,bottle,bottle,4-3-10,4-3-10_bottle_10_n04557648_11642.png,True,2.4127230598348124,0.9906242489814758,0.5,-2.2841473830369634,2.1910202503204346,0.5,-1.5224372556456476,27.52369314432144,10.0,5.666666666666667,1.0,23.867183539812643,10.0
subject-02,1,816,0.685971975326538,cat,bottle,4-3-10,4-3-10_bottle_10_n04557648_11642.png,False,-1.402384598981681,0.9906242489814758,0.5,-2.2841473830369634,2.1910202503204346,0.5,-1.5224372556456476,27.52369314432144,10.0,5.666666666666667,1.0,23.867183539812643,10.0
subject-01,1,494,1.06423497200012,bear,bottle,4-3-10,4-3-10_bottle_10_n04557648_11642.png,False,0.6442474687334782,0.9906242489814758,0.5,-2.2841473830369634,2.1910202503204346,0.5,-1.5224372556456476,27.52369314432144,10.0,5.666666666666667,1.0,23.867183539812643,10.0
subject-04,1,15,0.860095024108887,oven,truck,128-3-10,128-3-10_truck_10_n03417042_13871.png,False,-0.7187060839568564,1.824516773223877,0.1,-4.134307965695274,1.976731300354004,0.0714285714285714,-4.7137192903645255,27.39710545539856,10.0,0.2161338661338659,7.0,49.0348894024231,7.0
subject-03,1,621,0.85785984992981,oven,truck,128-3-10,128-3-10_truck_10_n03417042_13871.png,False,-0.44261873305289473,1.824516773223877,0.1,-4.134307965695274,1.976731300354004,0.0714285714285714,-4.7137192903645255,27.39710545539856,10.0,0.2161338661338659,7.0,49.0348894024231,7.0
subject-02,1,88,0.918731927871704,cat,truck,128-3-10,128-3-10_truck_10_n03417042_13871.png,False,-0.10333039661254409,1.824516773223877,0.1,-4.134307965695274,1.976731300354004,0.0714285714285714,-4.7137192903645255,27.39710545539856,10.0,0.2161338661338659,7.0,49.0348894024231,7.0
subject-01,1,1100,0.84640097618103,bicycle,truck,128-3-10,128-3-10_truck_10_n03417042_13871.png,False,-0.42458274037757204,1.824516773223877,0.1,-4.134307965695274,1.976731300354004,0.0714285714285714,-4.7137192903645255,27.39710545539856,10.0,0.2161338661338659,7.0,49.0348894024231,7.0
subject-04,1,16,0.780023097991943,knife,knife,1-3-10,1-3-10_knife_10_n03041632_23129.png,True,-1.0022228192878533,1.575538158416748,1.0,-0.5620830639882383,2.014068126678467,0.2,-3.2980173554520955,27.160003542900085,10.0,4.204040404040404,7.0,32.45538732494829,10.0
subject-03,1,1087,0.709291934967041,knife,knife,1-3-10,1-3-10_knife_10_n03041632_23129.png,True,-1.191597866525813,1.575538158416748,1.0,-0.5620830639882383,2.014068126678467,0.2,-3.2980173554520955,27.160003542900085,10.0,4.204040404040404,7.0,32.45538732494829,10.0
subject-02,1,947,0.820844888687134,knife,knife,1-3-10,1-3-10_knife_10_n03041632_23129.png,True,-0.6496467548164455,1.575538158416748,1.0,-0.5620830639882383,2.014068126678467,0.2,-3.2980173554520955,27.160003542900085,10.0,4.204040404040404,7.0,32.45538732494829,10.0
subject-01,1,981,0.784394025802612,knife,knife,1-3-10,1-3-10_knife_10_n03041632_23129.png,True,-0.7288277297333384,1.575538158416748,1.0,-0.5620830639882383,2.014068126678467,0.2,-3.2980173554520955,27.160003542900085,10.0,4.204040404040404,7.0,32.45538732494829,10.0
subject-04,1,17,1.24389100074768,elephant,keyboard,32-3-10,32-3-10_keyboard_10_n03085013_24336.png,False,0.6402294082515202,1.920304536819458,0.0625,-5.685385749415337,2.043926477432251,0.0909090909090909,-4.10536553030909,28.21016824245453,10.0,0.409683372183372,8.0,44.743197608867895,7.0
subject-03,1,561,0.935084104537964,bear,keyboard,32-3-10,32-3-10_keyboard_10_n03085013_24336.png,False,-0.05330617311017989,1.920304536819458,0.0625,-5.685385749415337,2.043926477432251,0.0909090909090909,-4.10536553030909,28.21016824245453,10.0,0.409683372183372,8.0,44.743197608867895,7.0
subject-02,1,739,0.926208972930908,cat,keyboard,32-3-10,32-3-10_keyboard_10_n03085013_24336.png,False,-0.06160033652595099,1.920304536819458,0.0625,-5.685385749415337,2.043926477432251,0.0909090909090909,-4.10536553030909,28.21016824245453,10.0,0.409683372183372,8.0,44.743197608867895,7.0
subject-01,1,276,0.83638596534729,cat,keyboard,32-3-10,32-3-10_keyboard_10_n03085013_24336.png,False,-0.47372266494915116,1.920304536819458,0.0625,-5.685385749415337,2.043926477432251,0.0909090909090909,-4.10536553030909,28.21016824245453,10.0,0.409683372183372,8.0,44.743197608867895,7.0
subject-04,1,18,0.71769905090332,airplane,airplane,2-3-10,2-3-10_airplane_10_n02690373_6978.png,True,-1.2228982947019833,0.000336369528668,1.0,-2.419977859108852e-05,1.981071710586548,0.3333333333333333,-2.1944572781487155,25.255663355841534,10.0,7.916666666666666,0.0,20.977696078327718,10.0
subject-03,1,796,0.672456026077271,airplane,airplane,2-3-10,2-3-10_airplane_10_n02690373_6978.png,True,-1.3772996523243226,0.000336369528668,1.0,-2.419977859108852e-05,1.981071710586548,0.3333333333333333,-2.1944572781487155,25.255663355841534,10.0,7.916666666666666,0.0,20.977696078327718,10.0
subject-02,1,888,0.660160779953003,airplane,airplane,2-3-10,2-3-10_airplane_10_n02690373_6978.png,True,-1.5464391988023054,0.000336369528668,1.0,-2.419977859108852e-05,1.981071710586548,0.3333333333333333,-2.1944572781487155,25.255663355841534,10.0,7.916666666666666,0.0,20.977696078327718,10.0
subject-01,1,462,0.761192798614502,airplane,airplane,2-3-10,2-3-10_airplane_10_n02690373_6978.png,True,-0.8426675021428541,0.000336369528668,1.0,-2.419977859108852e-05,1.981071710586548,0.3333333333333333,-2.1944572781487155,25.255663355841534,10.0,7.916666666666666,0.0,20.977696078327718,10.0
subject-04,1,19,0.893533945083618,keyboard,clock,128-3-10,128-3-10_clock_10_n04548280_4364.png,False,-0.6003063630122049,1.347045660018921,1.0,-0.36159121105263936,2.0863192081451416,0.5,-1.5502468346466811,27.930005311965942,10.0,8.0,10.0,20.860066930431703,10.0
subject-03,1,905,0.791965007781982,keyboard,clock,128-3-10,128-3-10_clock_10_n04548280_4364.png,False,-0.7748160435191754,1.347045660018921,1.0,-0.36159121105263936,2.0863192081451416,0.5,-1.5502468346466811,27.930005311965942,10.0,8.0,10.0,20.860066930431703,10.0
subject-02,1,16,1.06348896026611,knife,clock,128-3-10,128-3-10_clock_10_n04548280_4364.png,False,0.7045716037023453,1.347045660018921,1.0,-0.36159121105263936,2.0863192081451416,0.5,-1.5502468346466811,27.930005311965942,10.0,8.0,10.0,20.860066930431703,10.0
subject-01,1,414,1.04649496078491,keyboard,clock,128-3-10,128-3-10_clock_10_n04548280_4364.png,False,0.5572038471651886,1.347045660018921,1.0,-0.36159121105263936,2.0863192081451416,0.5,-1.5502468346466811,27.930005311965942,10.0,8.0,10.0,20.860066930431703,10.0
subject-04,1,20,0.695158004760742,bottle,bottle,1-3-10,1-3-10_bottle_10_n04560804_32760.png,True,-1.3027110845673782,0.0270503684878349,1.0,-0.0035540361729373203,1.764073133468628,0.5,-1.166396370168249,25.182766310870647,10.0,5.583333333333333,10.0,19.745584293671836,10.0
subject-03,1,175,0.96036696434021,bottle,bottle,1-3-10,1-3-10_bottle_10_n04560804_32760.png,True,0.07415293830798131,0.0270503684878349,1.0,-0.0035540361729373203,1.764073133468628,0.5,-1.166396370168249,25.182766310870647,10.0,5.583333333333333,10.0,19.745584293671836,10.0
subject-02,1,1044,0.735865831375122,bottle,bottle,1-3-10,1-3-10_bottle_10_n04560804_32760.png,True,-1.1239225067549834,0.0270503684878349,1.0,-0.0035540361729373203,1.764073133468628,0.5,-1.166396370168249,25.182766310870647,10.0,5.583333333333333,10.0,19.745584293671836,10.0
subject-01,1,396,0.648754835128784,bottle,bottle,1-3-10,1-3-10_bottle_10_n04560804_32760.png,True,-1.394358672166963,0.0270503684878349,1.0,-0.0035540361729373203,1.764073133468628,0.5,-1.166396370168249,25.182766310870647,10.0,5.583333333333333,10.0,19.745584293671836,10.0
subject-04,1,21,0.791264057159424,oven,clock,64-3-10,64-3-10_clock_10_n02708093_4893.png,False,-0.9624211035092333,1.9076513051986697,1.0,-1.0591089599126666,2.2258124351501465,0.5,-1.600599481492975,28.826204657554626,10.0,5.741666666666666,10.0,23.201199774613297,10.0
subject-03,1,1008,0.776132822036743,car,clock,64-3-10,64-3-10_clock_10_n02708093_4893.png,False,-0.8546312362101608,1.9076513051986697,1.0,-1.0591089599126666,2.2258124351501465,0.5,-1.600599481492975,28.826204657554626,10.0,5.741666666666666,10.0,23.201199774613297,10.0
subject-02,1,1137,0.745920896530151,cat,clock,64-3-10,64-3-10_clock_10_n02708093_4893.png,False,-1.0678042849478993,1.9076513051986697,1.0,-1.0591089599126666,2.2258124351501465,0.5,-1.600599481492975,28.826204657554626,10.0,5.741666666666666,10.0,23.201199774613297,10.0
subject-01,1,526,1.24449181556702,keyboard,clock,64-3-10,64-3-10_clock_10_n02708093_4893.png,False,1.5287006004811683,1.9076513051986697,1.0,-1.0591089599126666,2.2258124351501465,0.5,-1.600599481492975,28.826204657554626,10.0,5.741666666666666,10.0,23.201199774613297,10.0
subject-04,1,22,0.701092004776001,oven,clock,128-3-10,128-3-10_clock_10_n02708093_3638.png,False,-1.2817001211327879,1.9155484437942505,1.0,-0.8035397355729714,2.1655259132385254,0.5,-1.3256870177874016,28.61492121219635,10.0,6.65,10.0,21.936197915154203,10.0
subject-03,1,381,1.0989670753479,keyboard,clock,128-3-10,128-3-10_clock_10_n02708093_3638.png,False,0.7728811332066191,1.9155484437942505,1.0,-0.8035397355729714,2.1655259132385254,0.5,-1.3256870177874016,28.61492121219635,10.0,6.65,10.0,21.936197915154203,10.0
subject-02,1,643,0.772248983383179,oven,clock,128-3-10,128-3-10_clock_10_n02708093_3638.png,False,-0.9208648673514422,1.9155484437942505,1.0,-0.8035397355729714,2.1655259132385254,0.5,-1.3256870177874016,28.61492121219635,10.0,6.65,10.0,21.936197915154203,10.0
subject-01,1,245,0.999743938446045,car,clock,128-3-10,128-3-10_clock_10_n02708093_3638.png,False,0.32781400929936966,1.9155484437942505,1.0,-0.8035397355729714,2.1655259132385254,0.5,-1.3256870177874016,28.61492121219635,10.0,6.65,10.0,21.936197915154203,10.0
subject-04,1,23,0.813020944595337,cat,bear,8-3-10,8-3-10_bear_10_n02133161_13556.png,False,-0.8853848437871292,0.3910670876502991,1.0,-0.08173009258801482,2.206087112426758,0.1666666666666666,-2.8401463608435322,26.94419437646866,10.0,2.742857142857143,10.0,29.45386085174688,10.0
subject-03,1,1203,0.789031982421875,bear,bear,8-3-10,8-3-10_bear_10_n02133161_13556.png,True,-0.7896023773868718,0.3910670876502991,1.0,-0.08173009258801482,2.206087112426758,0.1666666666666666,-2.8401463608435322,26.94419437646866,10.0,2.742857142857143,10.0,29.45386085174688,10.0
subject-02,1,46,1.3897819519043,dog,bear,8-3-10,8-3-10_bear_10_n02133161_13556.png,False,2.525642098674791,0.3910670876502991,1.0,-0.08173009258801482,2.206087112426758,0.1666666666666666,-2.8401463608435322,26.94419437646866,10.0,2.742857142857143,10.0,29.45386085174688,10.0
subject-01,1,316,0.804476022720337,bear,bear,8-3-10,8-3-10_bear_10_n02133161_13556.png,True,-0.6302928574135676,0.3910670876502991,1.0,-0.08173009258801482,2.206087112426758,0.1666666666666666,-2.8401463608435322,26.94419437646866,10.0,2.742857142857143,10.0,29.45386085174688,10.0
subject-04,1,24,1.1863968372345,bear,truck,64-3-10,64-3-10_truck_10_n04467665_64792.png,False,0.43665546754180673,2.161982536315918,0.0769230769230769,-4.211182395147925,1.9703980684280396,0.0769230769230769,-4.7258228740937245,28.18584978580475,10.0,0.18248418248418222,8.0,48.102086985057994,7.0
subject-03,1,896,0.75751805305481,bear,truck,64-3-10,64-3-10_truck_10_n04467665_64792.png,False,-0.9484743351415864,2.161982536315918,0.0769230769230769,-4.211182395147925,1.9703980684280396,0.0769230769230769,-4.7258228740937245,28.18584978580475,10.0,0.18248418248418222,8.0,48.102086985057994,7.0
subject-02,1,692,1.02299404144287,oven,truck,64-3-10,64-3-10_truck_10_n04467665_64792.png,False,0.47856582437173145,2.161982536315918,0.0769230769230769,-4.211182395147925,1.9703980684280396,0.0769230769230769,-4.7258228740937245,28.18584978580475,10.0,0.18248418248418222,8.0,48.102086985057994,7.0
subject-01,1,715,0.854011058807373,boat,truck,64-3-10,64-3-10_truck_10_n04467665_64792.png,False,-0.38724290196400457,2.161982536315918,0.0769230769230769,-4.211182395147925,1.9703980684280396,0.0769230769230769,-4.7258228740937245,28.18584978580475,10.0,0.18248418248418222,8.0,48.102086985057994,7.0
subject-04,1,25,1.1666259765625,boat,airplane,32-3-10,32-3-10_airplane_10_n02690373_2619.png,False,0.3666512832510123,2.4092931747436523,0.5,-1.9280144124422776,2.127650022506714,0.3333333333333333,-1.92243833899151,29.23566460609436,10.0,4.027777777777778,0.0,25.70398713152034,10.0
subject-03,1,603,1.01089787483215,boat,airplane,32-3-10,32-3-10_airplane_10_n02690373_2619.png,False,0.32889567709741074,2.4092931747436523,0.5,-1.9280144124422776,2.127650022506714,0.3333333333333333,-1.92243833899151,29.23566460609436,10.0,4.027777777777778,0.0,25.70398713152034,10.0
subject-02,1,957,0.891561031341553,airplane,airplane,32-3-10,32-3-10_airplane_10_n02690373_2619.png,True,-0.2549736107207811,2.4092931747436523,0.5,-1.9280144124422776,2.127650022506714,0.3333333333333333,-1.92243833899151,29.23566460609436,10.0,4.027777777777778,0.0,25.70398713152034,10.0
subject-01,1,134,0.912348985671997,airplane,airplane,32-3-10,32-3-10_airplane_10_n02690373_2619.png,True,-0.10100044318082525,2.4092931747436523,0.5,-1.9280144124422776,2.127650022506714,0.3333333333333333,-1.92243833899151,29.23566460609436,10.0,4.027777777777778,0.0,25.70398713152034,10.0
subject-04,1,26,0.778120040893555,knife,knife,4-3-10,4-3-10_knife_10_n03041632_15431.png,True,-1.0089611177383668,0.1109992861747741,1.0,-0.017899311986723523,1.8199467658996584,0.1428571428571428,-3.6329808922682534,25.52096599340439,10.0,3.983008658008658,8.0,32.81502257147228,10.0
subject-03,1,47,0.695703983306885,knife,knife,4-3-10,4-3-10_knife_10_n03041632_15431.png,True,-1.2600991459753221,0.1109992861747741,1.0,-0.017899311986723523,1.8199467658996584,0.1428571428571428,-3.6329808922682534,25.52096599340439,10.0,3.983008658008658,8.0,32.81502257147228,10.0
subject-02,1,701,0.953794002532959,knife,knife,4-3-10,4-3-10_knife_10_n03041632_15431.png,True,0.09235419145526556,0.1109992861747741,1.0,-0.017899311986723523,1.8199467658996584,0.1428571428571428,-3.6329808922682534,25.52096599340439,10.0,3.983008658008658,8.0,32.81502257147228,10.0
subject-01,1,704,0.738202095031738,knife,knife,4-3-10,4-3-10_knife_10_n03041632_15431.png,True,-0.9554743137040014,0.1109992861747741,1.0,-0.017899311986723523,1.8199467658996584,0.1428571428571428,-3.6329808922682534,25.52096599340439,10.0,3.983008658008658,8.0,32.81502257147228,10.0
subject-04,1,27,0.877846002578735,chair,chair,1-3-10,1-3-10_chair_10_n03376595_1149.png,True,-0.6558538496125506,0.0649129748344421,1.0,-0.00902998195168691,2.0731847286224365,0.0666666666666666,-4.8649252451839375,26.16768366098404,10.0,2.4182539682539677,9.0,43.43150040033378,10.0
subject-03,1,712,0.794256925582886,chair,chair,1-3-10,1-3-10_chair_10_n03376595_1149.png,True,-0.7632617411723841,0.0649129748344421,1.0,-0.00902998195168691,2.0731847286224365,0.0666666666666666,-4.8649252451839375,26.16768366098404,10.0,2.4182539682539677,9.0,43.43150040033378,10.0
subject-02,1,561,0.743912935256958,chair,chair,1-3-10,1-3-10_chair_10_n03376595_1149.png,True,-1.0790108971748447,0.0649129748344421,1.0,-0.00902998195168691,2.0731847286224365,0.0666666666666666,-4.8649252451839375,26.16768366098404,10.0,2.4182539682539677,9.0,43.43150040033378,10.0
subject-01,1,1246,0.677828073501587,chair,chair,1-3-10,1-3-10_chair_10_n03376595_1149.png,True,-1.2517071299561429,0.0649129748344421,1.0,-0.00902998195168691,2.0731847286224365,0.0666666666666666,-4.8649252451839375,26.16768366098404,10.0,2.4182539682539677,9.0,43.43150040033378,10.0
subject-04,1,28,1.07975506782532,elephant,keyboard,128-3-10,128-3-10_keyboard_10_n03085013_7879.png,False,0.059060875041880866,1.2882864475250244,0.5,-2.6372616690240847,1.769219160079956,0.1111111111111111,-4.006129183116445,26.84020972251892,10.0,1.3198412698412696,10.0,39.0900046069536,6.0
subject-03,1,86,1.19378089904785,keyboard,keyboard,128-3-10,128-3-10_keyboard_10_n03085013_7879.png,True,1.2508684263165655,1.2882864475250244,0.5,-2.6372616690240847,1.769219160079956,0.1111111111111111,-4.006129183116445,26.84020972251892,10.0,1.3198412698412696,10.0,39.0900046069536,6.0
subject-02,1,654,0.874370813369751,cat,keyboard,128-3-10,128-3-10_keyboard_10_n03085013_7879.png,False,-0.3509137612996381,1.2882864475250244,0.5,-2.6372616690240847,1.769219160079956,0.1111111111111111,-4.006129183116445,26.84020972251892,10.0,1.3198412698412696,10.0,39.0900046069536,6.0
subject-01,1,902,1.36118292808533,keyboard,keyboard,128-3-10,128-3-10_keyboard_10_n03085013_7879.png,True,2.1012603872369886,1.2882864475250244,0.5,-2.6372616690240847,1.769219160079956,0.1111111111111111,-4.006129183116445,26.84020972251892,10.0,1.3198412698412696,10.0,39.0900046069536,6.0
subject-04,1,29,0.795512914657593,cat,bottle,64-3-10,64-3-10_bottle_10_n03937543_2232.png,False,-0.9473768518571855,0.1420304477214813,0.5,-4.853275166239456,1.937934160232544,1.0,-1.119016862014841,26.056880921125412,10.0,4.808333333333333,1.0,27.231778560336405,4.0
subject-03,1,785,0.816340923309326,cat,bottle,64-3-10,64-3-10_bottle_10_n03937543_2232.png,False,-0.6519291328840336,0.1420304477214813,0.5,-4.853275166239456,1.937934160232544,1.0,-1.119016862014841,26.056880921125412,10.0,4.808333333333333,1.0,27.231778560336405,4.0
subject-02,1,332,1.00784087181091,boat,bottle,64-3-10,64-3-10_bottle_10_n03937543_2232.png,False,0.3939946235514774,0.1420304477214813,0.5,-4.853275166239456,1.937934160232544,1.0,-1.119016862014841,26.056880921125412,10.0,4.808333333333333,1.0,27.231778560336405,4.0
subject-01,1,1265,1.02214813232422,bear,bottle,64-3-10,64-3-10_bottle_10_n03937543_2232.png,False,0.4377430363905387,0.1420304477214813,0.5,-4.853275166239456,1.937934160232544,1.0,-1.119016862014841,26.056880921125412,10.0,4.808333333333333,1.0,27.231778560336405,4.0
subject-04,1,30,1.10134506225586,cat,clock,128-3-10,128-3-10_clock_10_n04548280_1535.png,False,0.13550620405546396,2.0280394554138184,0.3333333333333333,-1.6996643845915844,1.859049677848816,1.0,-0.940631537785903,27.49030292034149,10.0,8.616666666666667,2.0,19.45794248705019,10.0
subject-03,1,165,0.774282932281494,keyboard,clock,128-3-10,128-3-10_clock_10_n04548280_1535.png,False,-0.863957131550713,2.0280394554138184,0.3333333333333333,-1.6996643845915844,1.859049677848816,1.0,-0.940631537785903,27.49030292034149,10.0,8.616666666666667,2.0,19.45794248705019,10.0
subject-02,1,207,0.780210018157959,boat,clock,128-3-10,128-3-10_clock_10_n04548280_1535.png,False,-0.8764336171887754,2.0280394554138184,0.3333333333333333,-1.6996643845915844,1.859049677848816,1.0,-0.940631537785903,27.49030292034149,10.0,8.616666666666667,2.0,19.45794248705019,10.0
subject-01,1,903,1.02100396156311,car,clock,128-3-10,128-3-10_clock_10_n04548280_1535.png,False,0.43212901701189327,2.0280394554138184,0.3333333333333333,-1.6996643845915844,1.859049677848816,1.0,-0.940631537785903,27.49030292034149,10.0,8.616666666666667,2.0,19.45794248705019,10.0
subject-04,1,31,1.20905017852783,dog,cat,128-3-10,128-3-10_cat_10_n02123045_9492.png,False,0.5168658693553422,1.6876144409179688,0.3333333333333333,-3.284349542941939,2.019641876220703,0.25,-2.7368965543999226,27.521674513816833,10.0,3.8361111111111112,6.0,31.51545011303022,6.0
subject-03,1,390,0.719342947006226,cat,cat,128-3-10,128-3-10_cat_10_n02123045_9492.png,True,-1.1409274489627665,1.6876144409179688,0.3333333333333333,-3.284349542941939,2.019641876220703,0.25,-2.7368965543999226,27.521674513816833,10.0,3.8361111111111112,6.0,31.51545011303022,6.0
subject-02,1,1051,0.82203197479248,cat,cat,128-3-10,128-3-10_cat_10_n02123045_9492.png,True,-0.6430215206347857,1.6876144409179688,0.3333333333333333,-3.284349542941939,2.019641876220703,0.25,-2.7368965543999226,27.521674513816833,10.0,3.8361111111111112,6.0,31.51545011303022,6.0
subject-01,1,609,1.2816150188446,bear,cat,128-3-10,128-3-10_cat_10_n02123045_9492.png,False,1.7108503194580018,1.6876144409179688,0.3333333333333333,-3.284349542941939,2.019641876220703,0.25,-2.7368965543999226,27.521674513816833,10.0,3.8361111111111112,6.0,31.51545011303022,6.0
subject-04,1,32,1.37508583068848,bear,bottle,64-3-10,64-3-10_bottle_10_n02823428_6793.png,False,1.104760882401358,2.3223066329956055,0.1,-3.85099121602718,1.953536033630371,1.0,-1.0082287415659816,28.490044713020325,4.0,4.165613553113552,3.0,27.44062348510377,4.0
subject-03,1,1091,1.11241698265076,bear,bottle,64-3-10,64-3-10_bottle_10_n02823428_6793.png,False,0.8406864861962712,2.3223066329956055,0.1,-3.85099121602718,1.953536033630371,1.0,-1.0082287415659816,28.490044713020325,4.0,4.165613553113552,3.0,27.44062348510377,4.0
subject-02,1,83,1.45154500007629,elephant,bottle,64-3-10,64-3-10_bottle_10_n02823428_6793.png,False,2.870347218269546,2.3223066329956055,0.1,-3.85099121602718,1.953536033630371,1.0,-1.0082287415659816,28.490044713020325,4.0,4.165613553113552,3.0,27.44062348510377,4.0
subject-01,1,287,0.825841188430786,bear,bottle,64-3-10,64-3-10_bottle_10_n02823428_6793.png,False,-0.5254619541923992,2.3223066329956055,0.1,-3.85099121602718,1.953536033630371,1.0,-1.0082287415659816,28.490044713020325,4.0,4.165613553113552,3.0,27.44062348510377,4.0
subject-04,1,33,0.932920932769775,cat,boat,16-3-10,16-3-10_boat_10_n04273569_10665.png,False,-0.460845871616103,2.14644718170166,0.1428571428571428,-3.3688904893972484,2.148013114929199,0.25,-2.642761233203074,28.713624000549316,10.0,1.392694805194805,1.0,34.335670231621336,3.0
subject-03,1,669,0.858206033706665,boat,boat,16-3-10,16-3-10_boat_10_n04273569_10665.png,True,-0.44087350814833687,2.14644718170166,0.1428571428571428,-3.3688904893972484,2.148013114929199,0.25,-2.642761233203074,28.713624000549316,10.0,1.392694805194805,1.0,34.335670231621336,3.0
subject-02,1,382,0.924374103546143,airplane,boat,16-3-10,16-3-10_boat_10_n04273569_10665.png,False,-0.07184090737593372,2.14644718170166,0.1428571428571428,-3.3688904893972484,2.148013114929199,0.25,-2.642761233203074,28.713624000549316,10.0,1.392694805194805,1.0,34.335670231621336,3.0
subject-01,1,347,0.804037094116211,boat,boat,16-3-10,16-3-10_boat_10_n04273569_10665.png,True,-0.632446516441713,2.14644718170166,0.1428571428571428,-3.3688904893972484,2.148013114929199,0.25,-2.642761233203074,28.713624000549316,10.0,1.392694805194805,1.0,34.335670231621336,3.0
subject-04,1,34,1.5001208782196,oven,airplane,128-3-10,128-3-10_airplane_10_n02690373_8740.png,False,1.5474819482866173,1.9910292625427248,0.0769230769230769,-4.468087720481642,2.1593713760375977,0.25,-2.5187166077068266,28.30841875076294,10.0,2.3824786324786325,0.0,34.03927099653118,4.0
subject-03,1,120,1.18735909461975,bear,airplane,128-3-10,128-3-10_airplane_10_n02690373_8740.png,False,1.2184940235587682,1.9910292625427248,0.0769230769230769,-4.468087720481642,2.1593713760375977,0.25,-2.5187166077068266,28.30841875076294,10.0,2.3824786324786325,0.0,34.03927099653118,4.0
subject-02,1,672,0.936787128448486,cat,airplane,128-3-10,128-3-10_airplane_10_n02690373_8740.png,False,-0.0025627004198966277,1.9910292625427248,0.0769230769230769,-4.468087720481642,2.1593713760375977,0.25,-2.5187166077068266,28.30841875076294,10.0,2.3824786324786325,0.0,34.03927099653118,4.0
subject-01,1,1226,1.04561614990234,chair,airplane,128-3-10,128-3-10_airplane_10_n02690373_8740.png,False,0.5528918497845474,1.9910292625427248,0.0769230769230769,-4.468087720481642,2.1593713760375977,0.25,-2.5187166077068266,28.30841875076294,10.0,2.3824786324786325,0.0,34.03927099653118,4.0
subject-04,1,35,1.50014209747314,dog,boat,16-3-10,16-3-10_boat_10_n02951358_1360.png,False,1.5475570809052712,1.990012288093567,0.25,-2.6654229460811756,2.202354431152344,0.25,-2.356142329566109,28.65844166278839,10.0,1.5844988344988344,10.0,31.979368976868354,3.0
subject-03,1,959,1.01380085945129,car,boat,16-3-10,16-3-10_boat_10_n02951358_1360.png,False,0.34353056582875985,1.990012288093567,0.25,-2.6654229460811756,2.202354431152344,0.25,-2.356142329566109,28.65844166278839,10.0,1.5844988344988344,10.0,31.979368976868354,3.0
subject-02,1,623,1.10627818107605,clock,boat,16-3-10,16-3-10_boat_10_n02951358_1360.png,False,0.9433820885019909,1.990012288093567,0.25,-2.6654229460811756,2.202354431152344,0.25,-2.356142329566109,28.65844166278839,10.0,1.5844988344988344,10.0,31.979368976868354,3.0
subject-01,1,624,0.878955125808716,boat,boat,16-3-10,16-3-10_boat_10_n02951358_1360.png,True,-0.26485166432051355,1.990012288093567,0.25,-2.6654229460811756,2.202354431152344,0.25,-2.356142329566109,28.65844166278839,10.0,1.5844988344988344,10.0,31.979368976868354,3.0
subject-04,1,36,1.21034002304077,car,oven,2-3-10,2-3-10_oven_10_n04111531_6298.png,False,0.5214329195454329,0.0716562196612358,0.0833333333333333,-8.519107606220436,2.0562610626220703,0.0625,-6.445835252072101,26.354153029620647,10.0,0.05251831501831479,9.0,62.78150022210768,6.0
subject-03,1,442,1.05352282524109,car,oven,2-3-10,2-3-10_oven_10_n04111531_6298.png,False,0.5437819022262645,0.0716562196612358,0.0833333333333333,-8.519107606220436,2.0562610626220703,0.0625,-6.445835252072101,26.354153029620647,10.0,0.05251831501831479,9.0,62.78150022210768,6.0
subject-02,1,263,0.953541994094849,car,oven,2-3-10,2-3-10_oven_10_n04111531_6298.png,False,0.09094770972600083,0.0716562196612358,0.0833333333333333,-8.519107606220436,2.0562610626220703,0.0625,-6.445835252072101,26.354153029620647,10.0,0.05251831501831479,9.0,62.78150022210768,6.0
subject-01,1,1274,0.929007053375244,truck,oven,2-3-10,2-3-10_oven_10_n04111531_6298.png,False,-0.019265515077893793,0.0716562196612358,0.0833333333333333,-8.519107606220436,2.0562610626220703,0.0625,-6.445835252072101,26.354153029620647,10.0,0.05251831501831479,9.0,62.78150022210768,6.0
subject-04,1,37,0.93608283996582,elephant,airplane,128-3-10,128-3-10_airplane_10_n02690373_4943.png,False,-0.44965026724993584,2.284800291061402,0.0714285714285714,-4.732077854710463,2.280238151550293,0.3333333333333333,-2.174220951875331,29.46246075630188,10.0,2.9797619047619044,0.0,30.284141260956766,9.0
subject-03,1,262,1.01449203491211,cat,airplane,128-3-10,128-3-10_airplane_10_n02690373_4943.png,False,0.34701500591027074,2.284800291061402,0.0714285714285714,-4.732077854710463,2.280238151550293,0.3333333333333333,-2.174220951875331,29.46246075630188,10.0,2.9797619047619044,0.0,30.284141260956766,9.0
subject-02,1,13,,na,airplane,128-3-10,128-3-10_airplane_10_n02690373_4943.png,False,,2.284800291061402,0.0714285714285714,-4.732077854710463,2.280238151550293,0.3333333333333333,-2.174220951875331,29.46246075630188,10.0,2.9797619047619044,0.0,30.284141260956766,9.0
subject-01,1,811,0.863377809524536,bottle,airplane,128-3-10,128-3-10_airplane_10_n02690373_4943.png,False,-0.34128374811351536,2.284800291061402,0.0714285714285714,-4.732077854710463,2.280238151550293,0.3333333333333333,-2.174220951875331,29.46246075630188,10.0,2.9797619047619044,0.0,30.284141260956766,9.0
subject-04,1,38,1.50000286102295,bottle,bottle,1-3-10,1-3-10_bottle_10_n03937543_2677.png,True,1.547064075857044,0.0021146547514945,1.0,-0.0001821087705844622,1.7186225652694702,0.5,-1.252802665976723,24.13831138727255,10.0,6.583333333333333,8.0,18.110944342562917,10.0
subject-03,1,797,0.762165069580078,bottle,bottle,1-3-10,1-3-10_bottle_10_n03937543_2677.png,True,-0.9250472148834757,0.0021146547514945,1.0,-0.0001821087705844622,1.7186225652694702,0.5,-1.252802665976723,24.13831138727255,10.0,6.583333333333333,8.0,18.110944342562917,10.0
subject-02,1,955,0.869388818740845,bottle,bottle,1-3-10,1-3-10_bottle_10_n03937543_2677.png,True,-0.3787187208216375,0.0021146547514945,1.0,-0.0001821087705844622,1.7186225652694702,0.5,-1.252802665976723,24.13831138727255,10.0,6.583333333333333,8.0,18.110944342562917,10.0
subject-01,1,802,0.711043119430542,bottle,bottle,1-3-10,1-3-10_bottle_10_n03937543_2677.png,True,-1.0887332821304727,0.0021146547514945,1.0,-0.0001821087705844622,1.7186225652694702,0.5,-1.252802665976723,24.13831138727255,10.0,6.583333333333333,8.0,18.110944342562917,10.0
subject-04,1,39,0.981834888458252,boat,boat,16-3-10,16-3-10_boat_10_n03344393_9712.png,True,-0.2876525228178224,1.8477675914764404,0.2,-2.731180999938513,2.206630229949951,0.25,-2.292381734668678,28.65306305885315,10.0,1.510851648351648,10.0,30.915845323175265,10.0
subject-03,1,843,1.11864805221558,car,boat,16-3-10,16-3-10_boat_10_n03344393_9712.png,False,0.8720993325328297,1.8477675914764404,0.2,-2.731180999938513,2.206630229949951,0.25,-2.292381734668678,28.65306305885315,10.0,1.510851648351648,10.0,30.915845323175265,10.0
subject-02,1,141,1.06654405593872,airplane,boat,16-3-10,16-3-10_boat_10_n03344393_9712.png,False,0.7216223670692685,1.8477675914764404,0.2,-2.731180999938513,2.206630229949951,0.25,-2.292381734668678,28.65306305885315,10.0,1.510851648351648,10.0,30.915845323175265,10.0
subject-01,1,222,0.918837070465088,boat,boat,16-3-10,16-3-10_boat_10_n03344393_9712.png,True,-0.06916582985495613,1.8477675914764404,0.2,-2.731180999938513,2.206630229949951,0.25,-2.292381734668678,28.65306305885315,10.0,1.510851648351648,10.0,30.915845323175265,10.0
subject-04,1,40,1.33154821395874,boat,airplane,128-3-10,128-3-10_airplane_10_n02690373_9531.png,False,0.9506039442844915,1.0059653520584106,0.0714285714285714,-5.690740204902766,1.9078030586242676,0.3333333333333333,-2.8016677459090875,27.234137773513794,10.0,2.4790043290043293,0.0,33.747518488882875,6.0
subject-03,1,328,1.0369119644165,cat,airplane,128-3-10,128-3-10_airplane_10_n02690373_9531.png,False,0.46004115544551805,1.0059653520584106,0.0714285714285714,-5.690740204902766,1.9078030586242676,0.3333333333333333,-2.8016677459090875,27.234137773513794,10.0,2.4790043290043293,0.0,33.747518488882875,6.0
subject-02,1,139,1.22107100486755,bicycle,airplane,128-3-10,128-3-10_airplane_10_n02690373_9531.png,False,1.584051149126719,1.0059653520584106,0.0714285714285714,-5.690740204902766,1.9078030586242676,0.3333333333333333,-2.8016677459090875,27.234137773513794,10.0,2.4790043290043293,0.0,33.747518488882875,6.0
subject-01,1,1164,0.828062057495117,keyboard,airplane,128-3-10,128-3-10_airplane_10_n02690373_9531.png,False,-0.5145649776322828,1.0059653520584106,0.0714285714285714,-5.690740204902766,1.9078030586242676,0.3333333333333333,-2.8016677459090875,27.234137773513794,10.0,2.4790043290043293,0.0,33.747518488882875,6.0
subject-04,1,41,1.50000309944153,knife,dog,128-3-10,128-3-10_dog_10_n02095889_1087.png,False,1.5470649200437736,2.0930428504943848,0.1666666666666666,-3.1291520584520716,2.1695923805236816,0.0833333333333333,-4.122183764548421,28.625739097595215,10.0,0.8885642135642133,9.0,38.95005137742702,6.0
subject-03,1,817,0.753431081771851,keyboard,dog,128-3-10,128-3-10_dog_10_n02095889_1087.png,False,-0.9690780853578187,2.0930428504943848,0.1666666666666666,-3.1291520584520716,2.1695923805236816,0.0833333333333333,-4.122183764548421,28.625739097595215,10.0,0.8885642135642133,9.0,38.95005137742702,6.0
subject-02,1,550,0.793526887893677,bottle,dog,128-3-10,128-3-10_dog_10_n02095889_1087.png,False,-0.8021109710315505,2.0930428504943848,0.1666666666666666,-3.1291520584520716,2.1695923805236816,0.0833333333333333,-4.122183764548421,28.625739097595215,10.0,0.8885642135642133,9.0,38.95005137742702,6.0
subject-01,1,669,0.772865772247314,cat,dog,128-3-10,128-3-10_dog_10_n02095889_1087.png,False,-0.7853925722036913,2.0930428504943848,0.1666666666666666,-3.1291520584520716,2.1695923805236816,0.0833333333333333,-4.122183764548421,28.625739097595215,10.0,0.8885642135642133,9.0,38.95005137742702,6.0
subject-04,1,42,1.30116820335388,chair,bird,8-3-10,8-3-10_bird_10_n02056570_9935.png,False,0.8430351390401737,2.027992248535156,0.1111111111111111,-4.204375957459672,1.9317375421524048,0.1,-4.06098148975078,27.644570469856262,10.0,0.5869769119769117,9.0,41.54403485686761,6.0
subject-03,1,1119,0.98528790473938,bottle,bird,8-3-10,8-3-10_bird_10_n02056570_9935.png,False,0.1997874964168308,2.027992248535156,0.1111111111111111,-4.204375957459672,1.9317375421524048,0.1,-4.06098148975078,27.644570469856262,10.0,0.5869769119769117,9.0,41.54403485686761,6.0
subject-02,1,734,1.19304013252258,oven,bird,8-3-10,8-3-10_bird_10_n02056570_9935.png,False,1.4276083327503053,2.027992248535156,0.1111111111111111,-4.204375957459672,1.9317375421524048,0.1,-4.06098148975078,27.644570469856262,10.0,0.5869769119769117,9.0,41.54403485686761,6.0
subject-01,1,1027,0.983690023422241,bottle,bird,8-3-10,8-3-10_bird_10_n02056570_9935.png,False,0.24904343316673566,2.027992248535156,0.1111111111111111,-4.204375957459672,1.9317375421524048,0.1,-4.06098148975078,27.644570469856262,10.0,0.5869769119769117,9.0,41.54403485686761,6.0
subject-04,1,43,1.27505803108215,oven,cat,128-3-10,128-3-10_cat_10_n02125311_2622.png,False,0.7505848738798312,2.2727627754211426,0.5,-1.8930069527706241,2.29091739654541,0.2,-2.583924783396627,29.340664625167847,10.0,4.855555555555555,6.0,31.389625575596444,0.0
subject-03,1,396,0.952160120010376,bird,cat,128-3-10,128-3-10_cat_10_n02125311_2622.png,False,0.03277956939285208,2.2727627754211426,0.5,-1.8930069527706241,2.29091739654541,0.2,-2.583924783396627,29.340664625167847,10.0,4.855555555555555,6.0,31.389625575596444,0.0
subject-02,1,162,0.970705986022949,keyboard,cat,128-3-10,128-3-10_cat_10_n02125311_2622.png,False,0.18674149039925333,2.2727627754211426,0.5,-1.8930069527706241,2.29091739654541,0.2,-2.583924783396627,29.340664625167847,10.0,4.855555555555555,6.0,31.389625575596444,0.0
subject-01,1,1141,0.712484121322632,bear,cat,128-3-10,128-3-10_cat_10_n02125311_2622.png,False,-1.0816628230505638,2.2727627754211426,0.5,-1.8930069527706241,2.29091739654541,0.2,-2.583924783396627,29.340664625167847,10.0,4.855555555555555,6.0,31.389625575596444,0.0
subject-04,1,44,1.06869983673096,cat,chair,8-3-10,8-3-10_chair_10_n04099969_72.png,False,0.019916780723167476,1.1834774017333984,0.125,-4.617553717159974,2.032618761062622,0.0666666666666666,-5.244119085213326,27.601091146469116,10.0,0.17170329670329618,10.0,51.07153037101785,7.0
subject-03,1,58,1.22372007369995,knife,chair,8-3-10,8-3-10_chair_10_n04099969_72.png,False,1.4018015338683787,1.1834774017333984,0.125,-4.617553717159974,2.032618761062622,0.0666666666666666,-5.244119085213326,27.601091146469116,10.0,0.17170329670329618,10.0,51.07153037101785,7.0
subject-02,1,222,0.907384872436523,cat,chair,8-3-10,8-3-10_chair_10_n04099969_72.png,False,-0.1666593322236953,1.1834774017333984,0.125,-4.617553717159974,2.032618761062622,0.0666666666666666,-5.244119085213326,27.601091146469116,10.0,0.17170329670329618,10.0,51.07153037101785,7.0
subject-01,1,360,0.981616973876953,dog,chair,8-3-10,8-3-10_chair_10_n04099969_72.png,False,0.23887175187954174,1.1834774017333984,0.125,-4.617553717159974,2.032618761062622,0.0666666666666666,-5.244119085213326,27.601091146469116,10.0,0.17170329670329618,10.0,51.07153037101785,7.0
subject-04,1,45,0.878635168075562,cat,cat,2-3-10,2-3-10_cat_10_n02123394_2553.png,True,-0.6530595915480015,0.0005635794368572,1.0,-4.530055608388293e-05,2.103971242904663,0.2,-2.9433067000520396,25.996491390105803,10.0,5.55,6.0,27.26337723938063,10.0
subject-03,1,539,0.891277074813843,cat,cat,2-3-10,2-3-10_cat_10_n02123394_2553.png,True,-0.274151644159678,0.0005635794368572,1.0,-4.530055608388293e-05,2.103971242904663,0.2,-2.9433067000520396,25.996491390105803,10.0,5.55,6.0,27.26337723938063,10.0
subject-02,1,160,0.685259103775024,cat,cat,2-3-10,2-3-10_cat_10_n02123394_2553.png,True,-1.4063631991429952,0.0005635794368572,1.0,-4.530055608388293e-05,2.103971242904663,0.2,-2.9433067000520396,25.996491390105803,10.0,5.55,6.0,27.26337723938063,10.0
subject-01,1,256,0.975976943969727,cat,cat,2-3-10,2-3-10_cat_10_n02123394_2553.png,True,0.21119822772429755,0.0005635794368572,1.0,-4.530055608388293e-05,2.103971242904663,0.2,-2.9433067000520396,25.996491390105803,10.0,5.55,6.0,27.26337723938063,10.0
subject-04,1,46,0.766386032104492,boat,airplane,8-3-10,8-3-10_airplane_10_n02690373_18864.png,False,-1.0505086116672833,0.5005654692649841,1.0,-0.11686084071240513,2.21042537689209,0.3333333333333333,-1.9168774805634845,27.150486171245575,10.0,7.333333333333333,8.0,22.16796350843366,10.0
subject-03,1,347,0.773483991622925,airplane,airplane,8-3-10,8-3-10_airplane_10_n02690373_18864.png,True,-0.8679848510102023,0.5005654692649841,1.0,-0.11686084071240513,2.21042537689209,0.3333333333333333,-1.9168774805634845,27.150486171245575,10.0,7.333333333333333,8.0,22.16796350843366,10.0
subject-02,1,1073,0.954040050506592,airplane,airplane,8-3-10,8-3-10_airplane_10_n02690373_18864.png,True,0.093727407296897,0.5005654692649841,1.0,-0.11686084071240513,2.21042537689209,0.3333333333333333,-1.9168774805634845,27.150486171245575,10.0,7.333333333333333,8.0,22.16796350843366,10.0
subject-01,1,1279,0.717759132385254,airplane,airplane,8-3-10,8-3-10_airplane_10_n02690373_18864.png,True,-1.0557803102870011,0.5005654692649841,1.0,-0.11686084071240513,2.21042537689209,0.3333333333333333,-1.9168774805634845,27.150486171245575,10.0,7.333333333333333,8.0,22.16796350843366,10.0
subject-04,1,47,0.858070135116577,chair,clock,1-3-10,1-3-10_clock_10_n04548280_5327.png,False,-0.7258757618245893,0.0670183897018432,1.0,-0.0093851429304479,2.0162100791931152,1.0,-0.9371112941039935,25.619701027870178,10.0,10.583333333333332,2.0,16.199664596375246,10.0
subject-03,1,756,1.3798680305481,keyboard,clock,1-3-10,1-3-10_clock_10_n04548280_5327.png,False,2.1889941214671333,0.0670183897018432,1.0,-0.0093851429304479,2.0162100791931152,1.0,-0.9371112941039935,25.619701027870178,10.0,10.583333333333332,2.0,16.199664596375246,10.0
subject-02,1,227,1.03030395507812,clock,clock,1-3-10,1-3-10_clock_10_n04548280_5327.png,True,0.5193631089689785,0.0670183897018432,1.0,-0.0093851429304479,2.0162100791931152,1.0,-0.9371112941039935,25.619701027870178,10.0,10.583333333333332,2.0,16.199664596375246,10.0
subject-01,1,169,0.804682016372681,clock,clock,1-3-10,1-3-10_clock_10_n04548280_5327.png,True,-0.6292821233558165,0.0670183897018432,1.0,-0.0093851429304479,2.0162100791931152,1.0,-0.9371112941039935,25.619701027870178,10.0,10.583333333333332,2.0,16.199664596375246,10.0
subject-04,1,48,0.853893995285034,airplane,airplane,4-3-10,4-3-10_airplane_10_n02690373_9605.png,True,-0.7406625365250706,0.0030039167031645,1.0,-0.00026593167703721905,2.006373643875122,0.3333333333333333,-1.9222156358863267,26.00424178596586,10.0,4.9,0.0,24.49034121101472,10.0
subject-03,1,271,0.620802879333496,airplane,airplane,4-3-10,4-3-10_airplane_10_n02690373_9605.png,True,-1.6376999487072734,0.0030039167031645,1.0,-0.00026593167703721905,2.006373643875122,0.3333333333333333,-1.9222156358863267,26.00424178596586,10.0,4.9,0.0,24.49034121101472,10.0
subject-02,1,70,1.02528786659241,airplane,airplane,4-3-10,4-3-10_airplane_10_n02690373_9605.png,True,0.4913678685697411,0.0030039167031645,1.0,-0.00026593167703721905,2.006373643875122,0.3333333333333333,-1.9222156358863267,26.00424178596586,10.0,4.9,0.0,24.49034121101472,10.0
subject-01,1,393,0.665278911590576,airplane,airplane,4-3-10,4-3-10_airplane_10_n02690373_9605.png,True,-1.313281189134003,0.0030039167031645,1.0,-0.00026593167703721905,2.006373643875122,0.3333333333333333,-1.9222156358863267,26.00424178596586,10.0,4.9,0.0,24.49034121101472,10.0
subject-04,1,49,1.2979109287262,dog,dog,2-3-10,2-3-10_dog_10_n02090721_2242.png,True,0.831501859983447,1.4395146369934082,0.3333333333333333,-1.8252245306544805,2.2361092567443848,0.0909090909090909,-3.7157454664086083,27.77975630760193,10.0,2.367929292929293,6.0,34.171582277424676,6.0
subject-03,1,783,1.07668209075928,cat,dog,2-3-10,2-3-10_dog_10_n02090721_2242.png,False,0.660535284839395,1.4395146369934082,0.3333333333333333,-1.8252245306544805,2.2361092567443848,0.0909090909090909,-3.7157454664086083,27.77975630760193,10.0,2.367929292929293,6.0,34.171582277424676,6.0
subject-02,1,832,0.770661115646362,cat,dog,2-3-10,2-3-10_dog_10_n02090721_2242.png,False,-0.9297268998177803,1.4395146369934082,0.3333333333333333,-1.8252245306544805,2.2361092567443848,0.0909090909090909,-3.7157454664086083,27.77975630760193,10.0,2.367929292929293,6.0,34.171582277424676,6.0
subject-01,1,707,1.02146792411804,bear,dog,2-3-10,2-3-10_dog_10_n02090721_2242.png,False,0.43440550830399377,1.4395146369934082,0.3333333333333333,-1.8252245306544805,2.2361092567443848,0.0909090909090909,-3.7157454664086083,27.77975630760193,10.0,2.367929292929293,6.0,34.171582277424676,6.0
subject-04,1,50,1.19958114624023,airplane,airplane,4-3-10,4-3-10_airplane_10_n02690373_1996.png,True,0.48333814932768465,0.11027292907238,1.0,-0.015072173200898684,2.202275276184082,0.3333333333333333,-1.9290993143962365,26.488487526774406,10.0,6.749999999999999,0.0,21.56944631812928,10.0
subject-03,1,847,0.909847974777222,airplane,airplane,4-3-10,4-3-10_airplane_10_n02690373_1996.png,True,-0.18052970320513545,0.11027292907238,1.0,-0.015072173200898684,2.202275276184082,0.3333333333333333,-1.9290993143962365,26.488487526774406,10.0,6.749999999999999,0.0,21.56944631812928,10.0
subject-02,1,95,0.845304012298584,airplane,airplane,4-3-10,4-3-10_airplane_10_n02690373_1996.png,True,-0.51313818894726,0.11027292907238,1.0,-0.015072173200898684,2.202275276184082,0.3333333333333333,-1.9290993143962365,26.488487526774406,10.0,6.749999999999999,0.0,21.56944631812928,10.0
subject-01,1,475,0.59876012802124,airplane,airplane,4-3-10,4-3-10_airplane_10_n02690373_1996.png,True,-1.639664061949098,0.11027292907238,1.0,-0.015072173200898684,2.202275276184082,0.3333333333333333,-1.9290993143962365,26.488487526774406,10.0,6.749999999999999,0.0,21.56944631812928,10.0
subject-04,1,51,1.25933504104614,keyboard,keyboard,8-3-10,8-3-10_keyboard_10_n03085013_15504.png,True,0.6949132918307007,1.669214963912964,0.3333333333333333,-2.1048771965188395,1.9718830585479736,0.0833333333333333,-4.269048689474692,27.60819911956787,10.0,1.2947802197802194,9.0,41.27295282421733,6.0
subject-03,1,1147,0.9583420753479,oven,keyboard,8-3-10,8-3-10_keyboard_10_n03085013_15504.png,False,0.06394481495093438,1.669214963912964,0.3333333333333333,-2.1048771965188395,1.9718830585479736,0.0833333333333333,-4.269048689474692,27.60819911956787,10.0,1.2947802197802194,9.0,41.27295282421733,6.0
subject-02,1,868,1.00593900680542,oven,keyboard,8-3-10,8-3-10_keyboard_10_n03085013_15504.png,False,0.3833801441244753,1.669214963912964,0.3333333333333333,-2.1048771965188395,1.9718830585479736,0.0833333333333333,-4.269048689474692,27.60819911956787,10.0,1.2947802197802194,9.0,41.27295282421733,6.0
subject-01,1,1117,0.920854091644287,oven,keyboard,8-3-10,8-3-10_keyboard_10_n03085013_15504.png,False,-0.05926905887282208,1.669214963912964,0.3333333333333333,-2.1048771965188395,1.9718830585479736,0.0833333333333333,-4.269048689474692,27.60819911956787,10.0,1.2947802197802194,9.0,41.27295282421733,6.0
subject-04,1,52,1.29520297050476,bottle,airplane,128-3-10,128-3-10_airplane_10_n02690373_845.png,False,0.8219135871444234,2.496102094650269,0.1,-3.251690853323012,2.18211030960083,0.3333333333333333,-2.4051755578947773,29.29952645301819,4.0,2.7685897435897435,0.0,30.09793158857272,8.0
subject-03,1,1229,0.66633415222168,cat,airplane,128-3-10,128-3-10_airplane_10_n02690373_845.png,False,-1.4081620076097154,2.496102094650269,0.1,-3.251690853323012,2.18211030960083,0.3333333333333333,-2.4051755578947773,29.29952645301819,4.0,2.7685897435897435,0.0,30.09793158857272,8.0
subject-02,1,510,,na,airplane,128-3-10,128-3-10_airplane_10_n02690373_845.png,False,,2.496102094650269,0.1,-3.251690853323012,2.18211030960083,0.3333333333333333,-2.4051755578947773,29.29952645301819,4.0,2.7685897435897435,0.0,30.09793158857272,8.0
subject-01,1,819,1.15577793121338,bicycle,airplane,128-3-10,128-3-10_airplane_10_n02690373_845.png,False,1.093414642436759,2.496102094650269,0.1,-3.251690853323012,2.18211030960083,0.3333333333333333,-2.4051755578947773,29.29952645301819,4.0,2.7685897435897435,0.0,30.09793158857272,8.0
subject-04,1,53,1.18310594558716,cat,oven,32-3-10,32-3-10_oven_10_n04111531_681.png,False,0.42500315815662715,1.3416354656219482,0.0833333333333333,-5.922938797031182,2.223891258239746,0.0625,-6.710998289046375,28.232321977615356,10.0,0.053113553113552994,10.0,63.05745221102661,6.0
subject-03,1,903,1.00048589706421,elephant,oven,32-3-10,32-3-10_oven_10_n04111531_681.png,False,0.2764055140071825,1.3416354656219482,0.0833333333333333,-5.922938797031182,2.223891258239746,0.0625,-6.710998289046375,28.232321977615356,10.0,0.053113553113552994,10.0,63.05745221102661,6.0
subject-02,1,828,0.731353044509888,bear,oven,32-3-10,32-3-10_oven_10_n04111531_681.png,False,-1.149108775602245,1.3416354656219482,0.0833333333333333,-5.922938797031182,2.223891258239746,0.0625,-6.710998289046375,28.232321977615356,10.0,0.053113553113552994,10.0,63.05745221102661,6.0
subject-01,1,1017,1.0117290019989,chair,oven,32-3-10,32-3-10_oven_10_n04111531_681.png,False,0.38662024812926227,1.3416354656219482,0.0833333333333333,-5.922938797031182,2.223891258239746,0.0625,-6.710998289046375,28.232321977615356,10.0,0.053113553113552994,10.0,63.05745221102661,6.0
subject-04,1,54,1.17890095710754,boat,car,16-3-10,16-3-10_car_10_n02814533_32337.png,False,0.4101142368622255,2.2272887229919434,0.0833333333333333,-4.488383169594028,2.201620578765869,0.0769230769230769,-4.181314120654575,28.815048456192017,10.0,0.32930402930402886,7.0,48.46981668817442,6.0
subject-03,1,950,0.965480089187622,car,car,16-3-10,16-3-10_car_10_n02814533_32337.png,True,0.09992986207051231,2.2272887229919434,0.0833333333333333,-4.488383169594028,2.201620578765869,0.0769230769230769,-4.181314120654575,28.815048456192017,10.0,0.32930402930402886,7.0,48.46981668817442,6.0
subject-02,1,163,1.13022899627686,elephant,car,16-3-10,16-3-10_car_10_n02814533_32337.png,False,1.0770537394735697,2.2272887229919434,0.0833333333333333,-4.488383169594028,2.201620578765869,0.0769230769230769,-4.181314120654575,28.815048456192017,10.0,0.32930402930402886,7.0,48.46981668817442,6.0
subject-01,1,60,1.08250021934509,bear,car,16-3-10,16-3-10_car_10_n02814533_32337.png,False,0.7338682281828097,2.2272887229919434,0.0833333333333333,-4.488383169594028,2.201620578765869,0.0769230769230769,-4.181314120654575,28.815048456192017,10.0,0.32930402930402886,7.0,48.46981668817442,6.0
subject-04,1,55,0.90293288230896,cat,bear,32-3-10,32-3-10_bear_10_n02134084_3479.png,False,-0.5670268338821316,2.124253511428833,0.1428571428571428,-3.208383944962838,2.1899280548095703,0.2,-2.620926376959404,29.042893648147583,10.0,1.935714285714285,6.0,31.559848692540186,0.0
subject-03,1,825,0.839869022369385,bear,bear,32-3-10,32-3-10_bear_10_n02134084_3479.png,True,-0.5333163405413258,2.124253511428833,0.1428571428571428,-3.208383944962838,2.1899280548095703,0.2,-2.620926376959404,29.042893648147583,10.0,1.935714285714285,6.0,31.559848692540186,0.0
subject-02,1,301,1.32445883750916,bear,bear,32-3-10,32-3-10_bear_10_n02134084_3479.png,True,2.1610679297125412,2.124253511428833,0.1428571428571428,-3.208383944962838,2.1899280548095703,0.2,-2.620926376959404,29.042893648147583,10.0,1.935714285714285,6.0,31.559848692540186,0.0
subject-01,1,829,1.38414001464844,truck,bear,32-3-10,32-3-10_bear_10_n02134084_3479.png,False,2.2139022526150964,2.124253511428833,0.1428571428571428,-3.208383944962838,2.1899280548095703,0.2,-2.620926376959404,29.042893648147583,10.0,1.935714285714285,6.0,31.559848692540186,0.0
subject-04,1,56,1.23449277877808,oven,bottle,4-3-10,4-3-10_bottle_10_n04579145_6678.png,False,0.6069524116816424,0.0375458002090454,1.0,-0.004495039063886873,1.6316884756088257,0.5,-1.4007221913447212,24.820132970809937,10.0,5.166666666666666,10.0,19.818154364811864,10.0
subject-03,1,51,0.824990034103394,bottle,bottle,4-3-10,4-3-10_bottle_10_n04579145_6678.png,True,-0.6083261550171387,0.0375458002090454,1.0,-0.004495039063886873,1.6316884756088257,0.5,-1.4007221913447212,24.820132970809937,10.0,5.166666666666666,10.0,19.818154364811864,10.0
subject-02,1,217,0.92622184753418,bottle,bottle,4-3-10,4-3-10_bottle_10_n04579145_6678.png,True,-0.061528482208653285,0.0375458002090454,1.0,-0.004495039063886873,1.6316884756088257,0.5,-1.4007221913447212,24.820132970809937,10.0,5.166666666666666,10.0,19.818154364811864,10.0
subject-01,1,1060,0.759520053863525,bottle,bottle,4-3-10,4-3-10_bottle_10_n04579145_6678.png,True,-0.8508750370377335,0.0375458002090454,1.0,-0.004495039063886873,1.6316884756088257,0.5,-1.4007221913447212,24.820132970809937,10.0,5.166666666666666,10.0,19.818154364811864,10.0
subject-04,1,57,0.84032416343689,knife,knife,8-3-10,8-3-10_knife_10_n03041632_44738.png,True,-0.7887102682476406,1.7513597413199022e-05,1.0,-9.5367477115389e-07,2.135469436645508,0.125,-3.3459421074495865,25.935094584787294,10.0,4.239393939393939,7.0,31.799835754496815,10.0
subject-03,1,1083,0.832136154174805,knife,knife,8-3-10,8-3-10_knife_10_n03041632_44738.png,True,-0.5723002417496601,1.7513597413199022e-05,1.0,-9.5367477115389e-07,2.135469436645508,0.125,-3.3459421074495865,25.935094584787294,10.0,4.239393939393939,7.0,31.799835754496815,10.0
subject-02,1,521,0.916893005371094,knife,knife,8-3-10,8-3-10_knife_10_n03041632_44738.png,True,-0.11359358826612143,1.7513597413199022e-05,1.0,-9.5367477115389e-07,2.135469436645508,0.125,-3.3459421074495865,25.935094584787294,10.0,4.239393939393939,7.0,31.799835754496815,10.0
subject-01,1,617,0.89226508140564,knife,knife,8-3-10,8-3-10_knife_10_n03041632_44738.png,True,-0.19954467414927463,1.7513597413199022e-05,1.0,-9.5367477115389e-07,2.135469436645508,0.125,-3.3459421074495865,25.935094584787294,10.0,4.239393939393939,7.0,31.799835754496815,10.0
subject-04,1,58,1.50008702278137,dog,boat,128-3-10,128-3-10_boat_10_n03344393_6352.png,False,1.5473620737714702,1.936927080154419,0.0833333333333333,-4.667816719421682,2.110460042953491,0.25,-2.6512117142101994,28.663766145706177,10.0,2.3242424242424238,1.0,33.95142726575443,3.0
subject-03,1,874,0.790966987609863,car,boat,128-3-10,128-3-10_boat_10_n03344393_6352.png,False,-0.7798473874933406,1.936927080154419,0.0833333333333333,-4.667816719421682,2.110460042953491,0.25,-2.6512117142101994,28.663766145706177,10.0,2.3242424242424238,1.0,33.95142726575443,3.0
subject-02,1,483,0.71402907371521,cat,boat,128-3-10,128-3-10_boat_10_n03344393_6352.png,False,-1.245795412699663,1.936927080154419,0.0833333333333333,-4.667816719421682,2.110460042953491,0.25,-2.6512117142101994,28.663766145706177,10.0,2.3242424242424238,1.0,33.95142726575443,3.0
subject-01,1,311,0.915360927581787,chair,boat,128-3-10,128-3-10_boat_10_n03344393_6352.png,False,-0.086221967079488,1.936927080154419,0.0833333333333333,-4.667816719421682,2.110460042953491,0.25,-2.6512117142101994,28.663766145706177,10.0,2.3242424242424238,1.0,33.95142726575443,3.0
subject-04,1,59,1.50006198883057,bear,chair,16-3-10,16-3-10_chair_10_n04429376_17917.png,False,1.5472734341652128,1.567051649093628,0.1666666666666666,-3.6499014667747898,2.259082555770874,0.0666666666666666,-5.236615084604253,28.466374397277832,10.0,0.2821428571428567,9.0,50.263850568378324,7.0
subject-03,1,558,1.28552412986755,oven,chair,16-3-10,16-3-10_chair_10_n04429376_17917.png,False,1.7133758629899842,1.567051649093628,0.1666666666666666,-3.6499014667747898,2.259082555770874,0.0666666666666666,-5.236615084604253,28.466374397277832,10.0,0.2821428571428567,9.0,50.263850568378324,7.0
subject-02,1,469,1.07336497306824,chair,chair,16-3-10,16-3-10_chair_10_n04429376_17917.png,True,0.759690518244867,1.567051649093628,0.1666666666666666,-3.6499014667747898,2.259082555770874,0.0666666666666666,-5.236615084604253,28.466374397277832,10.0,0.2821428571428567,9.0,50.263850568378324,7.0
subject-01,1,164,0.929602861404419,bear,chair,16-3-10,16-3-10_chair_10_n04429376_17917.png,False,-0.016342107195581695,1.567051649093628,0.1666666666666666,-3.6499014667747898,2.259082555770874,0.0666666666666666,-5.236615084604253,28.466374397277832,10.0,0.2821428571428567,9.0,50.263850568378324,7.0
subject-04,1,60,1.391597032547,oven,bird,128-3-10,128-3-10_bird_10_n01560419_5447.png,False,1.1632233457681296,2.323047637939453,0.125,-3.055602584200464,2.3390724658966064,0.125,-2.965490492431093,29.457576036453247,10.0,0.91031746031746,9.0,34.79428702319003,0.0
subject-03,1,531,0.798914909362793,bird,bird,128-3-10,128-3-10_bird_10_n01560419_5447.png,True,-0.73977933142005,2.323047637939453,0.125,-3.055602584200464,2.3390724658966064,0.125,-2.965490492431093,29.457576036453247,10.0,0.91031746031746,9.0,34.79428702319003,0.0
subject-02,1,745,0.867121934890747,cat,bird,128-3-10,128-3-10_bird_10_n01560419_5447.png,False,-0.3913704032075114,2.323047637939453,0.125,-3.055602584200464,2.3390724658966064,0.125,-2.965490492431093,29.457576036453247,10.0,0.91031746031746,9.0,34.79428702319003,0.0
subject-01,1,842,0.891485929489136,boat,bird,128-3-10,128-3-10_bird_10_n01560419_5447.png,False,-0.2033676821362276,2.323047637939453,0.125,-3.055602584200464,2.3390724658966064,0.125,-2.965490492431093,29.457576036453247,10.0,0.91031746031746,9.0,34.79428702319003,0.0
subject-04,1,61,1.02173590660095,elephant,car,64-3-10,64-3-10_car_10_n03100240_9101.png,False,-0.14637196483950318,1.8039920330047607,0.0833333333333333,-4.625401581797581,2.0942769050598145,0.0714285714285714,-4.570657625675466,28.354807138442993,10.0,0.2547008547008543,9.0,50.57431192230802,6.0
subject-03,1,1146,0.786665201187134,bear,car,64-3-10,64-3-10_car_10_n03100240_9101.png,False,-0.8015340906289974,1.8039920330047607,0.0833333333333333,-4.625401581797581,2.0942769050598145,0.0714285714285714,-4.570657625675466,28.354807138442993,10.0,0.2547008547008543,9.0,50.57431192230802,6.0
subject-02,1,961,0.683377027511597,cat,car,64-3-10,64-3-10_car_10_n03100240_9101.png,False,-1.4168672358230576,1.8039920330047607,0.0833333333333333,-4.625401581797581,2.0942769050598145,0.0714285714285714,-4.570657625675466,28.354807138442993,10.0,0.2547008547008543,9.0,50.57431192230802,6.0
subject-01,1,1003,1.22237706184387,bear,car,64-3-10,64-3-10_car_10_n03100240_9101.png,False,1.4201917483276048,1.8039920330047607,0.0833333333333333,-4.625401581797581,2.0942769050598145,0.0714285714285714,-4.570657625675466,28.354807138442993,10.0,0.2547008547008543,9.0,50.57431192230802,6.0
subject-04,1,62,1.28140711784363,cat,elephant,16-3-10,16-3-10_elephant_10_n02504013_4590.png,False,0.7730655664051873,1.7026898860931396,0.3333333333333333,-2.2524305900247787,2.071125030517578,0.1,-3.8775417561602445,28.02048349380493,10.0,1.0351953601953598,10.0,38.71596351419672,6.0
subject-03,1,679,0.832525968551636,cat,elephant,16-3-10,16-3-10_elephant_10_n02504013_4590.png,False,-0.5703350608137406,1.7026898860931396,0.3333333333333333,-2.2524305900247787,2.071125030517578,0.1,-3.8775417561602445,28.02048349380493,10.0,1.0351953601953598,10.0,38.71596351419672,6.0
subject-02,1,532,1.11088180541992,bird,elephant,16-3-10,16-3-10_elephant_10_n02504013_4590.png,False,0.9690753294768223,1.7026898860931396,0.3333333333333333,-2.2524305900247787,2.071125030517578,0.1,-3.8775417561602445,28.02048349380493,10.0,1.0351953601953598,10.0,38.71596351419672,6.0
subject-01,1,637,0.988660097122192,bear,elephant,16-3-10,16-3-10_elephant_10_n02504013_4590.png,False,0.2734297319721239,1.7026898860931396,0.3333333333333333,-2.2524305900247787,2.071125030517578,0.1,-3.8775417561602445,28.02048349380493,10.0,1.0351953601953598,10.0,38.71596351419672,6.0
subject-04,1,63,,na,bottle,16-3-10,16-3-10_bottle_10_n04557648_4470.png,False,,1.740227222442627,0.3333333333333333,-1.8661756586442444,2.175762176513672,1.0,-1.1991447399983266,28.3583881855011,10.0,4.629166666666666,3.0,25.472231635368473,10.0
subject-03,1,409,1.14801001548767,bicycle,bottle,16-3-10,16-3-10_bottle_10_n04557648_4470.png,False,1.0201225299648238,1.740227222442627,0.3333333333333333,-1.8661756586442444,2.175762176513672,1.0,-1.1991447399983266,28.3583881855011,10.0,4.629166666666666,3.0,25.472231635368473,10.0
subject-02,1,1,0.838385105133057,cat,bottle,16-3-10,16-3-10_bottle_10_n04557648_4470.png,False,-0.5517532313155803,1.740227222442627,0.3333333333333333,-1.8661756586442444,2.175762176513672,1.0,-1.1991447399983266,28.3583881855011,10.0,4.629166666666666,3.0,25.472231635368473,10.0
subject-01,1,324,1.2343008518219,bear,bottle,16-3-10,16-3-10_bottle_10_n04557648_4470.png,False,1.4786973405685804,1.740227222442627,0.3333333333333333,-1.8661756586442444,2.175762176513672,1.0,-1.1991447399983266,28.3583881855011,10.0,4.629166666666666,3.0,25.472231635368473,10.0
subject-04,1,64,1.42724013328552,keyboard,car,128-3-10,128-3-10_car_10_n02814533_5888.png,False,1.289427572998785,0.6714333295822144,0.0714285714285714,-6.091247579469646,2.0215935707092285,0.0714285714285714,-4.996148103797822,26.840194821357727,10.0,0.1471361971361967,8.0,53.93941744197133,6.0
subject-03,1,379,1.02128791809082,keyboard,car,128-3-10,128-3-10_car_10_n02814533_5888.png,False,0.3812752611992339,0.6714333295822144,0.0714285714285714,-6.091247579469646,2.0215935707092285,0.0714285714285714,-4.996148103797822,26.840194821357727,10.0,0.1471361971361967,8.0,53.93941744197133,6.0
subject-02,1,320,0.87296199798584,chair,car,128-3-10,128-3-10_car_10_n02814533_5888.png,False,-0.3587764865013747,0.6714333295822144,0.0714285714285714,-6.091247579469646,2.0215935707092285,0.0714285714285714,-4.996148103797822,26.840194821357727,10.0,0.1471361971361967,8.0,53.93941744197133,6.0
subject-01,1,1019,1.25109386444092,cat,car,128-3-10,128-3-10_car_10_n02814533_5888.png,False,1.5610943930658314,0.6714333295822144,0.0714285714285714,-6.091247579469646,2.0215935707092285,0.0714285714285714,-4.996148103797822,26.840194821357727,10.0,0.1471361971361967,8.0,53.93941744197133,6.0
subject-04,1,65,1.3828399181366,bottle,bear,16-3-10,16-3-10_bear_10_n02134084_9307.png,False,1.132216367305659,1.9619306325912476,1.0,-0.9161344905041949,2.2181363105773926,0.1666666666666666,-2.7906998945003805,28.681185126304626,10.0,2.1380952380952376,10.0,31.56972087476512,10.0
subject-03,1,246,0.833477973937988,cat,bear,16-3-10,16-3-10_bear_10_n02134084_9307.png,False,-0.5655356923262033,1.9619306325912476,1.0,-0.9161344905041949,2.2181363105773926,0.1666666666666666,-2.7906998945003805,28.681185126304626,10.0,2.1380952380952376,10.0,31.56972087476512,10.0
subject-02,1,338,1.00870585441589,bird,bear,16-3-10,16-3-10_bear_10_n02134084_9307.png,False,0.3988221691652679,1.9619306325912476,1.0,-0.9161344905041949,2.2181363105773926,0.1666666666666666,-2.7906998945003805,28.681185126304626,10.0,2.1380952380952376,10.0,31.56972087476512,10.0
subject-01,1,822,1.03128600120544,dog,bear,16-3-10,16-3-10_bear_10_n02134084_9307.png,False,0.4825791523990557,1.9619306325912476,1.0,-0.9161344905041949,2.2181363105773926,0.1666666666666666,-2.7906998945003805,28.681185126304626,10.0,2.1380952380952376,10.0,31.56972087476512,10.0
subject-04,1,66,1.2388858795166,bear,keyboard,64-3-10,64-3-10_keyboard_10_n03085013_24668.png,False,0.622507396303173,1.9085211753845217,0.0666666666666666,-5.448135764958228,2.068284034729004,0.0909090909090909,-3.8896587452010527,28.075737476348877,10.0,0.4369519369519367,7.0,44.02656535438938,7.0
subject-03,1,659,0.798038959503174,bear,keyboard,64-3-10,64-3-10_keyboard_10_n03085013_24668.png,False,-0.7441952792846177,1.9085211753845217,0.0666666666666666,-5.448135764958228,2.068284034729004,0.0909090909090909,-3.8896587452010527,28.075737476348877,10.0,0.4369519369519367,7.0,44.02656535438938,7.0
subject-02,1,127,0.773473978042603,cat,keyboard,64-3-10,64-3-10_keyboard_10_n03085013_24668.png,False,-0.9140280621244107,1.9085211753845217,0.0666666666666666,-5.448135764958228,2.068284034729004,0.0909090909090909,-3.8896587452010527,28.075737476348877,10.0,0.4369519369519367,7.0,44.02656535438938,7.0
subject-01,1,725,0.953419923782349,bicycle,keyboard,64-3-10,64-3-10_keyboard_10_n03085013_24668.png,False,0.10051933890741901,1.9085211753845217,0.0666666666666666,-5.448135764958228,2.068284034729004,0.0909090909090909,-3.8896587452010527,28.075737476348877,10.0,0.4369519369519367,7.0,44.02656535438938,7.0
subject-04,1,67,0.696424961090088,clock,clock,1-3-10,1-3-10_clock_10_n03196217_5399.png,True,-1.298225076303027,0.0064155170693993,1.0,-0.0006704789512848897,1.9555227756500244,1.0,-1.0541433497410697,25.28997626993805,10.0,9.5,2.0,16.969286849198507,10.0
subject-03,1,1202,0.771284103393555,clock,clock,1-3-10,1-3-10_clock_10_n03196217_5399.png,True,-0.8790752023837389,0.0064155170693993,1.0,-0.0006704789512848897,1.9555227756500244,1.0,-1.0541433497410697,25.28997626993805,10.0,9.5,2.0,16.969286849198507,10.0
subject-02,1,797,0.66123104095459,clock,clock,1-3-10,1-3-10_clock_10_n03196217_5399.png,True,-1.540465976018315,0.0064155170693993,1.0,-0.0006704789512848897,1.9555227756500244,1.0,-1.0541433497410697,25.28997626993805,10.0,9.5,2.0,16.969286849198507,10.0
subject-01,1,139,0.797302961349487,clock,clock,1-3-10,1-3-10_clock_10_n03196217_5399.png,True,-0.6654883954476735,0.0064155170693993,1.0,-0.0006704789512848897,1.9555227756500244,1.0,-1.0541433497410697,25.28997626993805,10.0,9.5,2.0,16.969286849198507,10.0
subject-04,1,68,1.17221117019653,clock,knife,8-3-10,8-3-10_knife_10_n03041632_94620.png,False,0.3864272015047958,1.3245253562927246,0.1428571428571428,-4.914003388520517,2.0503668785095215,0.1111111111111111,-3.63690611202456,27.400545358657837,10.0,1.4878066378066375,7.0,38.90446850552549,5.0
subject-03,1,786,1.34817695617676,knife,knife,8-3-10,8-3-10_knife_10_n03041632_94620.png,True,2.029229118186175,1.3245253562927246,0.1428571428571428,-4.914003388520517,2.0503668785095215,0.1111111111111111,-3.63690611202456,27.400545358657837,10.0,1.4878066378066375,7.0,38.90446850552549,5.0
subject-02,1,1260,1.34664607048035,knife,knife,8-3-10,8-3-10_knife_10_n03041632_94620.png,True,2.284896869850234,1.3245253562927246,0.1428571428571428,-4.914003388520517,2.0503668785095215,0.1111111111111111,-3.63690611202456,27.400545358657837,10.0,1.4878066378066375,7.0,38.90446850552549,5.0
subject-01,1,817,0.790612936019897,oven,knife,8-3-10,8-3-10_knife_10_n03041632_94620.png,False,-0.698313855702841,1.3245253562927246,0.1428571428571428,-4.914003388520517,2.0503668785095215,0.1111111111111111,-3.63690611202456,27.400545358657837,10.0,1.4878066378066375,7.0,38.90446850552549,5.0
subject-04,1,69,0.998054981231689,bear,dog,32-3-10,32-3-10_dog_10_n02108422_577.png,False,-0.23022081144404488,2.2675936222076416,0.1666666666666666,-2.8577763439432715,2.1641266345977783,0.0909090909090909,-3.8783184578151295,28.962491273880005,10.0,1.1607864357864355,9.0,37.23210179870875,5.0
subject-03,1,455,0.98110818862915,boat,dog,32-3-10,32-3-10_dog_10_n02108422_577.png,False,0.17871618939076528,2.2675936222076416,0.1666666666666666,-2.8577763439432715,2.1641266345977783,0.0909090909090909,-3.8783184578151295,28.962491273880005,10.0,1.1607864357864355,9.0,37.23210179870875,5.0
subject-02,1,34,0.864255905151367,bear,dog,32-3-10,32-3-10_dog_10_n02108422_577.png,False,-0.40736597261859403,2.2675936222076416,0.1666666666666666,-2.8577763439432715,2.1641266345977783,0.0909090909090909,-3.8783184578151295,28.962491273880005,10.0,1.1607864357864355,9.0,37.23210179870875,5.0
subject-01,1,888,0.799953937530518,boat,dog,32-3-10,32-3-10_dog_10_n02108422_577.png,False,-0.6524810436095656,2.2675936222076416,0.1666666666666666,-2.8577763439432715,2.1641266345977783,0.0909090909090909,-3.8783184578151295,28.962491273880005,10.0,1.1607864357864355,9.0,37.23210179870875,5.0
subject-04,1,70,0.965935945510864,bear,bear,1-3-10,1-3-10_bear_10_n02133161_2851.png,True,-0.34394711467107547,0.0013570480514317,1.0,-0.00011164573181720092,2.227509021759033,0.2,-2.9303548421306376,26.452004759805277,10.0,3.401190476190476,9.0,29.046362103875406,10.0
subject-03,1,213,1.20128798484802,bear,bear,1-3-10,1-3-10_bear_10_n02133161_2851.png,True,1.2887140851112466,0.0013570480514317,1.0,-0.00011164573181720092,2.227509021759033,0.2,-2.9303548421306376,26.452004759805277,10.0,3.401190476190476,9.0,29.046362103875406,10.0
subject-02,1,669,1.11152005195618,bear,bear,1-3-10,1-3-10_bear_10_n02133161_2851.png,True,0.9726374407249555,0.0013570480514317,1.0,-0.00011164573181720092,2.227509021759033,0.2,-2.9303548421306376,26.452004759805277,10.0,3.401190476190476,9.0,29.046362103875406,10.0
subject-01,1,589,1.02545213699341,bear,bear,1-3-10,1-3-10_bear_10_n02133161_2851.png,True,0.4539545555714426,0.0013570480514317,1.0,-0.00011164573181720092,2.227509021759033,0.2,-2.9303548421306376,26.452004759805277,10.0,3.401190476190476,9.0,29.046362103875406,10.0
subject-04,1,71,1.13208699226379,oven,elephant,4-3-10,4-3-10_elephant_10_n02504458_1933.png,False,0.24435648475050933,1.7431721687316897,0.5,-1.5384601410020025,2.327277660369873,0.1,-3.287490021522166,28.751959562301636,10.0,2.2580086580086576,6.0,34.249365119485844,2.0
subject-03,1,673,0.987445831298828,boat,elephant,4-3-10,4-3-10_elephant_10_n02504458_1933.png,False,0.21066630537769293,1.7431721687316897,0.5,-1.5384601410020025,2.327277660369873,0.1,-3.287490021522166,28.751959562301636,10.0,2.2580086580086576,6.0,34.249365119485844,2.0
subject-02,1,444,1.22402501106262,boat,elephant,4-3-10,4-3-10_elephant_10_n02504458_1933.png,False,1.600537723039324,1.7431721687316897,0.5,-1.5384601410020025,2.327277660369873,0.1,-3.287490021522166,28.751959562301636,10.0,2.2580086580086576,6.0,34.249365119485844,2.0
subject-01,1,357,0.800171852111816,boat,elephant,4-3-10,4-3-10_elephant_10_n02504458_1933.png,False,-0.6514118179975521,1.7431721687316897,0.5,-1.5384601410020025,2.327277660369873,0.1,-3.287490021522166,28.751959562301636,10.0,2.2580086580086576,6.0,34.249365119485844,2.0
subject-04,1,72,0.855453968048096,car,car,8-3-10,8-3-10_car_10_n02814533_3573.png,True,-0.7351390227739129,0.8265459537506104,1.0,-0.6029468595619148,2.2241475582122803,0.0909090909090909,-4.119843415070152,27.452967882156372,10.0,2.063528138528138,9.0,44.57922915788905,10.0
subject-03,1,897,0.681438207626343,car,car,8-3-10,8-3-10_car_10_n02814533_3573.png,True,-1.3320175565568326,0.8265459537506104,1.0,-0.6029468595619148,2.2241475582122803,0.0909090909090909,-4.119843415070152,27.452967882156372,10.0,2.063528138528138,9.0,44.57922915788905,10.0
subject-02,1,927,0.796700954437256,car,car,8-3-10,8-3-10_car_10_n02814533_3573.png,True,-0.7843962205474205,0.8265459537506104,1.0,-0.6029468595619148,2.2241475582122803,0.0909090909090909,-4.119843415070152,27.452967882156372,10.0,2.063528138528138,9.0,44.57922915788905,10.0
subject-01,1,674,0.667836904525757,car,car,8-3-10,8-3-10_car_10_n02814533_3573.png,True,-1.3007300714191872,0.8265459537506104,1.0,-0.6029468595619148,2.2241475582122803,0.0909090909090909,-4.119843415070152,27.452967882156372,10.0,2.063528138528138,9.0,44.57922915788905,10.0
subject-04,1,73,1.17930293083191,cat,oven,16-3-10,16-3-10_oven_10_n04111531_14758.png,False,0.4115375356830358,1.8392558097839355,0.25,-2.7317920576301704,2.2008628845214844,0.0625,-6.7610580103164235,28.595719575881958,10.0,0.302020202020202,10.0,58.72822719760752,7.0
subject-03,1,997,0.815768957138062,bear,oven,16-3-10,16-3-10_oven_10_n04111531_14758.png,False,-0.6548126002022394,1.8392558097839355,0.25,-2.7317920576301704,2.2008628845214844,0.0625,-6.7610580103164235,28.595719575881958,10.0,0.302020202020202,10.0,58.72822719760752,7.0
subject-02,1,418,0.856973886489868,bear,oven,16-3-10,16-3-10_oven_10_n04111531_14758.png,False,-0.44800757286172443,1.8392558097839355,0.25,-2.7317920576301704,2.2008628845214844,0.0625,-6.7610580103164235,28.595719575881958,10.0,0.302020202020202,10.0,58.72822719760752,7.0
subject-01,1,1230,0.892875194549561,boat,oven,16-3-10,16-3-10_oven_10_n04111531_14758.png,False,-0.196551076401841,1.8392558097839355,0.25,-2.7317920576301704,2.2008628845214844,0.0625,-6.7610580103164235,28.595719575881958,10.0,0.302020202020202,10.0,58.72822719760752,7.0
subject-04,1,74,0.763421058654785,chair,chair,1-3-10,1-3-10_chair_10_n04429376_18585.png,True,-1.0610069177974029,0.0032395180314779,1.0,-0.0003243614717177199,1.960598945617676,0.0666666666666666,-4.923295114414982,25.821163898333907,10.0,2.094780219780219,9.0,43.93841700720384,10.0
subject-03,1,346,0.82750391960144,chair,chair,1-3-10,1-3-10_chair_10_n04429376_18585.png,True,-0.595652841385131,0.0032395180314779,1.0,-0.0003243614717177199,1.960598945617676,0.0666666666666666,-4.923295114414982,25.821163898333907,10.0,2.094780219780219,9.0,43.93841700720384,10.0
subject-02,1,1020,0.852430820465088,chair,chair,1-3-10,1-3-10_chair_10_n04429376_18585.png,True,-0.47336283241818006,0.0032395180314779,1.0,-0.0003243614717177199,1.960598945617676,0.0666666666666666,-4.923295114414982,25.821163898333907,10.0,2.094780219780219,9.0,43.93841700720384,10.0
subject-01,1,1256,0.683874845504761,chair,chair,1-3-10,1-3-10_chair_10_n04429376_18585.png,True,-1.2220378739692734,0.0032395180314779,1.0,-0.0003243614717177199,1.960598945617676,0.0666666666666666,-4.923295114414982,25.821163898333907,10.0,2.094780219780219,9.0,43.93841700720384,10.0
subject-04,1,75,1.15487313270569,cat,oven,64-3-10,64-3-10_oven_10_n04111531_807.png,False,0.32503709857071383,0.9546489715576172,0.0666666666666666,-6.2951169019906,2.1283860206604004,0.0625,-6.640534781395474,27.85801410675049,10.0,0.02202380952380939,8.0,63.260312725016604,6.0
subject-03,1,503,0.942155122756958,car,oven,64-3-10,64-3-10_oven_10_n04111531_807.png,False,-0.017658872683566577,0.9546489715576172,0.0666666666666666,-6.2951169019906,2.1283860206604004,0.0625,-6.640534781395474,27.85801410675049,10.0,0.02202380952380939,8.0,63.260312725016604,6.0
subject-02,1,582,0.969722032546997,boat,oven,64-3-10,64-3-10_oven_10_n04111531_807.png,False,0.1812499576682386,0.9546489715576172,0.0666666666666666,-6.2951169019906,2.1283860206604004,0.0625,-6.640534781395474,27.85801410675049,10.0,0.02202380952380939,8.0,63.260312725016604,6.0
subject-01,1,916,1.03643798828125,airplane,oven,64-3-10,64-3-10_oven_10_n04111531_807.png,False,0.507858032322595,0.9546489715576172,0.0666666666666666,-6.2951169019906,2.1283860206604004,0.0625,-6.640534781395474,27.85801410675049,10.0,0.02202380952380939,8.0,63.260312725016604,6.0
subject-04,1,76,0.754781007766724,bicycle,bicycle,2-3-10,2-3-10_bicycle_10_n02835271_158.png,True,-1.091599400577187,0.0162717960774898,1.0,-0.001883849594336967,1.9931190013885496,0.1428571428571428,-3.4256907297025108,25.357780780643225,10.0,2.1039682539682536,10.0,33.187118405585785,10.0
subject-03,1,1022,0.603219032287598,bicycle,bicycle,2-3-10,2-3-10_bicycle_10_n02835271_158.png,True,-1.726345835181869,0.0162717960774898,1.0,-0.001883849594336967,1.9931190013885496,0.1428571428571428,-3.4256907297025108,25.357780780643225,10.0,2.1039682539682536,10.0,33.187118405585785,10.0
subject-02,1,991,0.829872846603394,bicycle,bicycle,2-3-10,2-3-10_bicycle_10_n02835271_158.png,True,-0.5992609107668617,0.0162717960774898,1.0,-0.001883849594336967,1.9931190013885496,0.1428571428571428,-3.4256907297025108,25.357780780643225,10.0,2.1039682539682536,10.0,33.187118405585785,10.0
subject-01,1,305,1.06243896484375,bicycle,bicycle,2-3-10,2-3-10_bicycle_10_n02835271_158.png,True,0.6354351311674804,0.0162717960774898,1.0,-0.001883849594336967,1.9931190013885496,0.1428571428571428,-3.4256907297025108,25.357780780643225,10.0,2.1039682539682536,10.0,33.187118405585785,10.0
subject-04,1,77,0.744683980941772,car,truck,4-3-10,4-3-10_truck_10_n04467665_58158.png,False,-1.1273507084423053,0.2584365010261535,1.0,-0.06992894912483771,2.020737648010254,0.0769230769230769,-4.293790279734585,26.168260514736176,10.0,1.892191142191142,10.0,40.082508884444046,10.0
subject-03,1,376,0.987818956375122,car,truck,4-3-10,4-3-10_truck_10_n04467665_58158.png,False,0.2125473501267539,0.2584365010261535,1.0,-0.06992894912483771,2.020737648010254,0.0769230769230769,-4.293790279734585,26.168260514736176,10.0,1.892191142191142,10.0,40.082508884444046,10.0
subject-02,1,329,1.11658596992493,truck,truck,4-3-10,4-3-10_truck_10_n04467665_58158.png,True,1.0009107839448765,0.2584365010261535,1.0,-0.06992894912483771,2.020737648010254,0.0769230769230769,-4.293790279734585,26.168260514736176,10.0,1.892191142191142,10.0,40.082508884444046,10.0
subject-01,1,1008,0.70746111869812,truck,truck,4-3-10,4-3-10_truck_10_n04467665_58158.png,True,-1.1063088243569033,0.2584365010261535,1.0,-0.06992894912483771,2.020737648010254,0.0769230769230769,-4.293790279734585,26.168260514736176,10.0,1.892191142191142,10.0,40.082508884444046,10.0
subject-04,1,78,1.09248900413513,truck,truck,8-3-10,8-3-10_truck_10_n03417042_25458.png,True,0.1041488881015068,0.1874696910381317,0.1111111111111111,-7.039690165434713,2.174260139465332,0.0769230769230769,-4.319498412619676,26.90588280558586,10.0,0.23858363858363835,10.0,49.49994557559565,6.0
subject-03,1,744,0.954100131988525,truck,truck,8-3-10,8-3-10_truck_10_n03417042_25458.png,True,0.04255980014244041,0.1874696910381317,0.1111111111111111,-7.039690165434713,2.174260139465332,0.0769230769230769,-4.319498412619676,26.90588280558586,10.0,0.23858363858363835,10.0,49.49994557559565,6.0
subject-02,1,1102,0.902628898620605,truck,truck,8-3-10,8-3-10_truck_10_n03417042_25458.png,True,-0.19320284928652404,0.1874696910381317,0.1111111111111111,-7.039690165434713,2.174260139465332,0.0769230769230769,-4.319498412619676,26.90588280558586,10.0,0.23858363858363835,10.0,49.49994557559565,6.0
subject-01,1,3,1.31108498573303,oven,truck,8-3-10,8-3-10_truck_10_n03417042_25458.png,False,1.8554484605948682,0.1874696910381317,0.1111111111111111,-7.039690165434713,2.174260139465332,0.0769230769230769,-4.319498412619676,26.90588280558586,10.0,0.23858363858363835,10.0,49.49994557559565,6.0
subject-04,1,79,1.10450196266174,car,car,8-3-10,8-3-10_car_10_n04285008_17059.png,True,0.14668408050036194,1.0498560667037964,0.1428571428571428,-4.9129122246457975,2.108794927597046,0.0833333333333333,-4.055631133865699,27.496066689491272,10.0,0.6221611721611715,9.0,48.53699521963124,6.0
subject-03,1,1138,0.808068037033081,car,car,8-3-10,8-3-10_car_10_n04285008_17059.png,True,-0.6936354407100179,1.0498560667037964,0.1428571428571428,-4.9129122246457975,2.108794927597046,0.0833333333333333,-4.055631133865699,27.496066689491272,10.0,0.6221611721611715,9.0,48.53699521963124,6.0
subject-02,1,210,0.763603925704956,car,car,8-3-10,8-3-10_car_10_n04285008_17059.png,True,-0.9691137107792649,1.0498560667037964,0.1428571428571428,-4.9129122246457975,2.108794927597046,0.0833333333333333,-4.055631133865699,27.496066689491272,10.0,0.6221611721611715,9.0,48.53699521963124,6.0
subject-01,1,983,0.862027883529663,car,car,8-3-10,8-3-10_car_10_n04285008_17059.png,True,-0.34790733171881666,1.0498560667037964,0.1428571428571428,-4.9129122246457975,2.108794927597046,0.0833333333333333,-4.055631133865699,27.496066689491272,10.0,0.6221611721611715,9.0,48.53699521963124,6.0
subject-04,1,80,1.50014400482178,oven,airplane,16-3-10,16-3-10_airplane_10_n02690373_7600.png,False,1.547563834399108,2.180981159210205,0.25,-2.4407010561906155,2.2902913093566895,0.3333333333333333,-2.14928490300677,29.22367548942566,10.0,3.49563492063492,0.0,27.550501984207248,10.0
subject-03,1,1278,0.94897198677063,boat,airplane,16-3-10,16-3-10_airplane_10_n02690373_7600.png,False,0.01670715381173858,2.180981159210205,0.25,-2.4407010561906155,2.2902913093566895,0.3333333333333333,-2.14928490300677,29.22367548942566,10.0,3.49563492063492,0.0,27.550501984207248,10.0
subject-02,1,1112,0.912868022918701,boat,airplane,16-3-10,16-3-10_airplane_10_n02690373_7600.png,False,-0.1360573768692257,2.180981159210205,0.25,-2.4407010561906155,2.2902913093566895,0.3333333333333333,-2.14928490300677,29.22367548942566,10.0,3.49563492063492,0.0,27.550501984207248,10.0
subject-01,1,163,1.50008893013,boat,airplane,16-3-10,16-3-10_airplane_10_n02690373_7600.png,False,2.7828203552021615,2.180981159210205,0.25,-2.4407010561906155,2.2902913093566895,0.3333333333333333,-2.14928490300677,29.22367548942566,10.0,3.49563492063492,0.0,27.550501984207248,10.0
subject-04,1,81,0.801291942596436,oven,chair,64-3-10,64-3-10_chair_10_n04099969_3430.png,False,-0.9269146097947871,0.6688085198402405,0.1428571428571428,-4.822354370290057,2.1191718578338623,0.0666666666666666,-5.870759983321372,27.15918928384781,10.0,0.15132783882783826,10.0,54.36483839813292,7.0
subject-03,1,1059,0.814555883407593,bear,chair,64-3-10,64-3-10_chair_10_n04099969_3430.png,False,-0.6609280990413602,0.6688085198402405,0.1428571428571428,-4.822354370290057,2.1191718578338623,0.0666666666666666,-5.870759983321372,27.15918928384781,10.0,0.15132783882783826,10.0,54.36483839813292,7.0
subject-02,1,1097,0.811903953552246,cat,chair,64-3-10,64-3-10_chair_10_n04099969_3430.png,False,-0.6995469169065386,0.6688085198402405,0.1428571428571428,-4.822354370290057,2.1191718578338623,0.0666666666666666,-5.870759983321372,27.15918928384781,10.0,0.15132783882783826,10.0,54.36483839813292,7.0
subject-01,1,1024,1.0485508441925,bear,chair,64-3-10,64-3-10_chair_10_n04099969_3430.png,False,0.5672913006142231,0.6688085198402405,0.1428571428571428,-4.822354370290057,2.1191718578338623,0.0666666666666666,-5.870759983321372,27.15918928384781,10.0,0.15132783882783826,10.0,54.36483839813292,7.0
subject-04,1,82,1.23715806007385,oven,bear,32-3-10,32-3-10_bear_10_n02132136_1795.png,False,0.6163895750965939,2.0867652893066406,0.25,-2.59221700454308,2.2347183227539062,0.2,-2.484785302094167,29.029491424560547,10.0,2.0023809523809524,6.0,30.88469516543752,0.0
subject-03,1,325,1.14942598342896,bear,bear,32-3-10,32-3-10_bear_10_n02132136_1795.png,True,1.0272608844470723,2.0867652893066406,0.25,-2.59221700454308,2.2347183227539062,0.2,-2.484785302094167,29.029491424560547,10.0,2.0023809523809524,6.0,30.88469516543752,0.0
subject-02,1,712,0.885508060455322,boat,bear,32-3-10,32-3-10_bear_10_n02132136_1795.png,False,-0.2887557849332909,2.0867652893066406,0.25,-2.59221700454308,2.2347183227539062,0.2,-2.484785302094167,29.029491424560547,10.0,2.0023809523809524,6.0,30.88469516543752,0.0
subject-01,1,244,0.951916933059692,bear,bear,32-3-10,32-3-10_bear_10_n02132136_1795.png,True,0.09314472374531409,2.0867652893066406,0.25,-2.59221700454308,2.2347183227539062,0.2,-2.484785302094167,29.029491424560547,10.0,2.0023809523809524,6.0,30.88469516543752,0.0
subject-04,1,83,1.49464797973633,oven,chair,64-3-10,64-3-10_chair_10_n04099969_13789.png,False,1.5281036419810023,2.1959686279296875,0.1,-3.801428028251826,2.084873914718628,0.0666666666666666,-5.534174150778692,28.840787410736084,10.0,0.10952380952380887,9.0,52.27496845000721,7.0
subject-03,1,975,0.870074987411499,bear,chair,64-3-10,64-3-10_chair_10_n04099969_13789.png,False,-0.38103825594529916,2.1959686279296875,0.1,-3.801428028251826,2.084873914718628,0.0666666666666666,-5.534174150778692,28.840787410736084,10.0,0.10952380952380887,9.0,52.27496845000721,7.0
subject-02,1,1140,1.00571608543396,clock,chair,64-3-10,64-3-10_chair_10_n04099969_13789.png,False,0.3821359999268743,2.1959686279296875,0.1,-3.801428028251826,2.084873914718628,0.0666666666666666,-5.534174150778692,28.840787410736084,10.0,0.10952380952380887,9.0,52.27496845000721,7.0
subject-01,1,1106,0.850929021835327,cat,chair,64-3-10,64-3-10_chair_10_n04099969_13789.png,False,-0.40236530840443785,2.1959686279296875,0.1,-3.801428028251826,2.084873914718628,0.0666666666666666,-5.534174150778692,28.840787410736084,10.0,0.10952380952380887,9.0,52.27496845000721,7.0
subject-04,1,84,0.766871929168701,boat,boat,2-3-10,2-3-10_boat_10_n03344393_10038.png,True,-1.0487881591187802,1.176661729812622,1.0,-0.3533626028556482,2.054363489151001,0.25,-2.386362144845778,27.027323484420776,10.0,2.3450396825396824,10.0,29.635342345154378,10.0
subject-03,1,594,0.832826852798462,boat,boat,2-3-10,2-3-10_boat_10_n03344393_10038.png,True,-0.5688182055592269,1.176661729812622,1.0,-0.3533626028556482,2.054363489151001,0.25,-2.386362144845778,27.027323484420776,10.0,2.3450396825396824,10.0,29.635342345154378,10.0
subject-02,1,106,1.21116018295288,car,boat,2-3-10,2-3-10_boat_10_n03344393_10038.png,False,1.5287379618004504,1.176661729812622,1.0,-0.3533626028556482,2.054363489151001,0.25,-2.386362144845778,27.027323484420776,10.0,2.3450396825396824,10.0,29.635342345154378,10.0
subject-01,1,142,0.936671018600464,boat,boat,2-3-10,2-3-10_boat_10_n03344393_10038.png,True,0.018338705160964763,1.176661729812622,1.0,-0.3533626028556482,2.054363489151001,0.25,-2.386362144845778,27.027323484420776,10.0,2.3450396825396824,10.0,29.635342345154378,10.0
subject-04,1,85,0.920841932296753,truck,truck,1-3-10,1-3-10_truck_10_n03417042_3845.png,True,-0.5036149037381873,0.043286170810461,1.0,-0.005863118491413449,2.0602681636810303,0.0833333333333333,-4.380323378297186,26.00226029381156,10.0,1.7037962037962036,10.0,41.512070459463715,10.0
subject-03,1,1195,0.907408952713013,truck,truck,1-3-10,1-3-10_truck_10_n03417042_3845.png,True,-0.19282560594180884,0.043286170810461,1.0,-0.005863118491413449,2.0602681636810303,0.0833333333333333,-4.380323378297186,26.00226029381156,10.0,1.7037962037962036,10.0,41.512070459463715,10.0
subject-02,1,580,1.20248293876648,truck,truck,1-3-10,1-3-10_truck_10_n03417042_3845.png,True,1.4803094825794005,0.043286170810461,1.0,-0.005863118491413449,2.0602681636810303,0.0833333333333333,-4.380323378297186,26.00226029381156,10.0,1.7037962037962036,10.0,41.512070459463715,10.0
subject-01,1,198,1.11120104789734,car,truck,1-3-10,1-3-10_truck_10_n03417042_3845.png,False,0.8746924942383163,0.043286170810461,1.0,-0.005863118491413449,2.0602681636810303,0.0833333333333333,-4.380323378297186,26.00226029381156,10.0,1.7037962037962036,10.0,41.512070459463715,10.0
subject-04,1,86,0.730173110961914,bicycle,airplane,64-3-10,64-3-10_airplane_10_n02690373_2162.png,False,-1.1787304451741702,2.29793643951416,0.1428571428571428,-3.0406647059486533,2.253502368927002,0.25,-2.3201481818448424,29.25010848045349,10.0,3.477380952380952,0.0,28.04503970370697,9.0
subject-03,1,510,0.900752067565918,bear,airplane,64-3-10,64-3-10_airplane_10_n02690373_2162.png,False,-0.22638512698879568,2.29793643951416,0.1428571428571428,-3.0406647059486533,2.253502368927002,0.25,-2.3201481818448424,29.25010848045349,10.0,3.477380952380952,0.0,28.04503970370697,9.0
subject-02,1,617,0.895295858383179,cat,airplane,64-3-10,64-3-10_airplane_10_n02690373_2162.png,False,-0.2341292055278182,2.29793643951416,0.1428571428571428,-3.0406647059486533,2.253502368927002,0.25,-2.3201481818448424,29.25010848045349,10.0,3.477380952380952,0.0,28.04503970370697,9.0
subject-01,1,788,0.827544927597046,oven,airplane,64-3-10,64-3-10_airplane_10_n02690373_2162.png,False,-0.5171023412564243,2.29793643951416,0.1428571428571428,-3.0406647059486533,2.253502368927002,0.25,-2.3201481818448424,29.25010848045349,10.0,3.477380952380952,0.0,28.04503970370697,9.0
subject-04,1,87,1.09441494941711,oven,cat,32-3-10,32-3-10_cat_10_n02123045_7240.png,False,0.11096822847775327,2.237488269805908,0.3333333333333333,-2.0054697924472453,2.064720392227173,0.25,-2.793219499545572,28.618300914764404,10.0,4.401190476190476,6.0,29.871255404201676,0.0
subject-03,1,177,1.11800408363342,bear,cat,32-3-10,32-3-10_cat_10_n02123045_7240.png,False,0.868852877665567,2.237488269805908,0.3333333333333333,-2.0054697924472453,2.064720392227173,0.25,-2.793219499545572,28.618300914764404,10.0,4.401190476190476,6.0,29.871255404201676,0.0
subject-02,1,1163,0.877047777175903,cat,cat,32-3-10,32-3-10_cat_10_n02123045_7240.png,True,-0.33597338584438424,2.237488269805908,0.3333333333333333,-2.0054697924472453,2.064720392227173,0.25,-2.793219499545572,28.618300914764404,10.0,4.401190476190476,6.0,29.871255404201676,0.0
subject-01,1,748,0.877254962921143,knife,cat,32-3-10,32-3-10_cat_10_n02123045_7240.png,False,-0.2731937297902058,2.237488269805908,0.3333333333333333,-2.0054697924472453,2.064720392227173,0.25,-2.793219499545572,28.618300914764404,10.0,4.401190476190476,6.0,29.871255404201676,0.0
subject-04,1,88,0.94380521774292,bear,elephant,64-3-10,64-3-10_elephant_10_n02504458_6132.png,False,-0.4223070591802508,2.0539209842681885,1.0,-1.1181562884987422,2.2612786293029785,0.1111111111111111,-3.162897369901716,29.05718445777893,10.0,4.085353535353535,8.0,32.117721489292585,10.0
subject-03,1,1114,0.800178050994873,cat,elephant,64-3-10,64-3-10_elephant_10_n02504458_6132.png,False,-0.7334114240203535,2.0539209842681885,1.0,-1.1181562884987422,2.2612786293029785,0.1111111111111111,-3.162897369901716,29.05718445777893,10.0,4.085353535353535,8.0,32.117721489292585,10.0
subject-02,1,826,0.904186964035034,bird,elephant,64-3-10,64-3-10_elephant_10_n02504458_6132.png,False,-0.1845071462583703,2.0539209842681885,1.0,-1.1181562884987422,2.2612786293029785,0.1111111111111111,-3.162897369901716,29.05718445777893,10.0,4.085353535353535,8.0,32.117721489292585,10.0
