subject_id,Session,trial,rt,object_response,category,condition,item_id,response_correct,rt_zscore,output_entropy,output_rank_correct,output_logprob_correct,midpoint_entropy,midpoint_rank_correct,midpoint_logprob_correct,auc_entropy,layer_biggest_change_entropy,auc_rank_correct,layer_biggest_change_rank_correct,auc_logprob_correct,layer_biggest_change_logprob_correct
subject-04,1,1,1.08663988113403,bear,dog,8-3-10,8-3-10_dog_10_n02113624_8833.png,False,0.0834384551415285,0.7186799049377441,0.25,-3.6813230716461427,2.4781494140625,0.25,-2.4063874597255057,28.023088455200195,10.0,2.144444444444444,6.0,32.34939048338932,2.0
subject-03,1,459,0.888329982757568,bear,dog,8-3-10,8-3-10_dog_10_n02113624_8833.png,False,-0.2890088928134462,0.7186799049377441,0.25,-3.6813230716461427,2.4781494140625,0.25,-2.4063874597255057,28.023088455200195,10.0,2.144444444444444,6.0,32.34939048338932,2.0
subject-02,1,49,0.717509031295776,cat,dog,8-3-10,8-3-10_dog_10_n02113624_8833.png,False,-1.2263734568620346,0.7186799049377441,0.25,-3.6813230716461427,2.4781494140625,0.25,-2.4063874597255057,28.023088455200195,10.0,2.144444444444444,6.0,32.34939048338932,2.0
subject-01,1,912,0.911444902420044,bear,dog,8-3-10,8-3-10_dog_10_n02113624_8833.png,False,-0.10543644265650515,0.7186799049377441,0.25,-3.6813230716461427,2.4781494140625,0.25,-2.4063874597255057,28.023088455200195,10.0,2.144444444444444,6.0,32.34939048338932,2.0
subject-04,1,2,1.24060893058777,bear,keyboard,64-3-10,64-3-10_keyboard_10_n03085013_20852.png,False,0.628608333775231,2.185930013656616,0.0909090909090909,-3.8059813326872867,2.481306791305542,0.0833333333333333,-3.799964671416653,30.415109634399414,10.0,1.043337218337218,6.0,38.41884682875389,6.0
subject-03,1,204,1.2787868976593,dog,keyboard,64-3-10,64-3-10_keyboard_10_n03085013_20852.png,False,1.6794112863005597,2.185930013656616,0.0909090909090909,-3.8059813326872867,2.481306791305542,0.0833333333333333,-3.799964671416653,30.415109634399414,10.0,1.043337218337218,6.0,38.41884682875389,6.0
subject-02,1,918,0.928431034088135,cat,keyboard,64-3-10,64-3-10_keyboard_10_n03085013_20852.png,False,-0.04919881361510212,2.185930013656616,0.0909090909090909,-3.8059813326872867,2.481306791305542,0.0833333333333333,-3.799964671416653,30.415109634399414,10.0,1.043337218337218,6.0,38.41884682875389,6.0
subject-01,1,803,0.73471212387085,cat,keyboard,64-3-10,64-3-10_keyboard_10_n03085013_20852.png,False,-0.9725983011314792,2.185930013656616,0.0909090909090909,-3.8059813326872867,2.481306791305542,0.0833333333333333,-3.799964671416653,30.415109634399414,10.0,1.043337218337218,6.0,38.41884682875389,6.0
subject-04,1,3,0.906409978866577,elephant,cat,64-3-10,64-3-10_cat_10_n02123394_2153.png,False,-0.5547152146635996,2.228487491607666,0.1666666666666666,-3.0823216357659,2.5005154609680176,0.3333333333333333,-2.2518623740789363,30.451412439346313,10.0,2.6401515151515147,4.0,32.004624603325176,4.0
subject-03,1,97,0.613754987716675,boat,cat,64-3-10,64-3-10_cat_10_n02123394_2153.png,False,-1.6732306604178095,2.228487491607666,0.1666666666666666,-3.0823216357659,2.5005154609680176,0.3333333333333333,-2.2518623740789363,30.451412439346313,10.0,2.6401515151515147,4.0,32.004624603325176,4.0
subject-02,1,1078,0.820978879928589,cat,cat,64-3-10,64-3-10_cat_10_n02123394_2153.png,True,-0.64889893766238,2.228487491607666,0.1666666666666666,-3.0823216357659,2.5005154609680176,0.3333333333333333,-2.2518623740789363,30.451412439346313,10.0,2.6401515151515147,4.0,32.004624603325176,4.0
subject-01,1,168,1.16495800018311,elephant,cat,64-3-10,64-3-10_cat_10_n02123394_2153.png,False,1.1384578185474292,2.228487491607666,0.1666666666666666,-3.0823216357659,2.5005154609680176,0.3333333333333333,-2.2518623740789363,30.451412439346313,10.0,2.6401515151515147,4.0,32.004624603325176,4.0
subject-04,1,4,1.24826312065125,oven,oven,64-3-10,64-3-10_oven_10_n04111531_2922.png,True,0.6557101044411618,1.8593237400054932,0.0625,-5.29644931845554,2.5129218101501465,0.0625,-4.603299628020739,29.585681915283203,9.0,0.26783216783216773,6.0,46.08506255761064,6.0
subject-03,1,1160,0.785953044891357,cat,oven,64-3-10,64-3-10_oven_10_n04111531_2922.png,False,-0.8051243019168252,1.8593237400054932,0.0625,-5.29644931845554,2.5129218101501465,0.0625,-4.603299628020739,29.585681915283203,9.0,0.26783216783216773,6.0,46.08506255761064,6.0
subject-02,1,899,0.765967130661011,cat,oven,64-3-10,64-3-10_oven_10_n04111531_2922.png,False,-0.9559244516491876,1.8593237400054932,0.0625,-5.29644931845554,2.5129218101501465,0.0625,-4.603299628020739,29.585681915283203,9.0,0.26783216783216773,6.0,46.08506255761064,6.0
subject-01,1,332,0.880831003189087,car,oven,64-3-10,64-3-10_oven_10_n04111531_2922.png,False,-0.25564743334091133,1.8593237400054932,0.0625,-5.29644931845554,2.5129218101501465,0.0625,-4.603299628020739,29.585681915283203,9.0,0.26783216783216773,6.0,46.08506255761064,6.0
subject-04,1,5,1.50001311302185,bottle,knife,1-3-10,1-3-10_knife_10_n03041632_29801.png,False,1.5471003758862758,0.5915579795837402,0.5,-2.9701155705979634,2.5404324531555176,0.1,-3.1337991375582086,27.884275674819946,10.0,3.603968253968254,5.0,28.884676666184482,5.0
subject-03,1,799,0.920106887817383,bottle,knife,1-3-10,1-3-10_knife_10_n03041632_29801.png,False,-0.12881118914293463,0.5915579795837402,0.5,-2.9701155705979634,2.5404324531555176,0.1,-3.1337991375582086,27.884275674819946,10.0,3.603968253968254,5.0,28.884676666184482,5.0
subject-02,1,1082,0.920855045318604,bottle,knife,1-3-10,1-3-10_knife_10_n03041632_29801.png,False,-0.09148108743645869,0.5915579795837402,0.5,-2.9701155705979634,2.5404324531555176,0.1,-3.1337991375582086,27.884275674819946,10.0,3.603968253968254,5.0,28.884676666184482,5.0
subject-01,1,988,0.70698881149292,bottle,knife,1-3-10,1-3-10_knife_10_n03041632_29801.png,False,-1.1086262597369978,0.5915579795837402,0.5,-2.9701155705979634,2.5404324531555176,0.1,-3.1337991375582086,27.884275674819946,10.0,3.603968253968254,5.0,28.884676666184482,5.0
subject-04,1,6,,na,knife,2-3-10,2-3-10_knife_10_n03041632_43436.png,False,,2.1023993492126465,1.0,-0.7847937150975566,2.60559606552124,0.0833333333333333,-3.326245918974422,29.446938514709473,9.0,4.7754329004329,8.0,26.4964108942567,5.0
subject-03,1,560,0.829296827316284,knife,knife,2-3-10,2-3-10_knife_10_n03041632_43436.png,True,-0.5866142110254247,2.1023993492126465,1.0,-0.7847937150975566,2.60559606552124,0.0833333333333333,-3.326245918974422,29.446938514709473,9.0,4.7754329004329,8.0,26.4964108942567,5.0
subject-02,1,737,0.920667886734009,knife,knife,2-3-10,2-3-10_knife_10_n03041632_43436.png,True,-0.09252563630824259,2.1023993492126465,1.0,-0.7847937150975566,2.60559606552124,0.0833333333333333,-3.326245918974422,29.446938514709473,9.0,4.7754329004329,8.0,26.4964108942567,5.0
subject-01,1,98,0.997018098831177,knife,knife,2-3-10,2-3-10_knife_10_n03041632_43436.png,True,0.31443933050046347,2.1023993492126465,1.0,-0.7847937150975566,2.60559606552124,0.0833333333333333,-3.326245918974422,29.446938514709473,9.0,4.7754329004329,8.0,26.4964108942567,5.0
subject-04,1,7,1.19963192939758,elephant,boat,32-3-10,32-3-10_boat_10_n03344393_2142.png,False,0.483517961100423,2.0917656421661377,0.0769230769230769,-3.8211323953598266,2.5258307456970215,0.5,-1.9081319132369003,30.19671869277954,10.0,1.804304029304029,4.0,32.414421411366604,2.0
subject-03,1,617,0.722490072250366,bear,boat,32-3-10,32-3-10_boat_10_n03344393_2142.png,False,-1.1250617680122237,2.0917656421661377,0.0769230769230769,-3.8211323953598266,2.5258307456970215,0.5,-1.9081319132369003,30.19671869277954,10.0,1.804304029304029,4.0,32.414421411366604,2.0
subject-02,1,647,1.10748600959778,dog,boat,32-3-10,32-3-10_boat_10_n03344393_2142.png,False,0.9501230879726377,2.0917656421661377,0.0769230769230769,-3.8211323953598266,2.5258307456970215,0.5,-1.9081319132369003,30.19671869277954,10.0,1.804304029304029,4.0,32.414421411366604,2.0
subject-01,1,666,0.827326059341431,cat,boat,32-3-10,32-3-10_boat_10_n03344393_2142.png,False,-0.5181762461927826,2.0917656421661377,0.0769230769230769,-3.8211323953598266,2.5258307456970215,0.5,-1.9081319132369003,30.19671869277954,10.0,1.804304029304029,4.0,32.414421411366604,2.0
subject-04,1,8,0.815458059310913,elephant,keyboard,32-3-10,32-3-10_keyboard_10_n04505470_5109.png,False,-0.8767555670693682,2.5667948722839355,0.0909090909090909,-3.0559101829115756,2.5674188137054443,0.0909090909090909,-3.3648321440317104,30.977994680404663,10.0,0.8528360528360527,6.0,37.284025593721886,6.0
subject-03,1,926,0.690138101577759,bear,keyboard,32-3-10,32-3-10_keyboard_10_n04505470_5109.png,False,-1.2881585642927846,2.5667948722839355,0.0909090909090909,-3.0559101829115756,2.5674188137054443,0.0909090909090909,-3.3648321440317104,30.977994680404663,10.0,0.8528360528360527,6.0,37.284025593721886,6.0
subject-02,1,445,1.06573700904846,dog,keyboard,32-3-10,32-3-10_keyboard_10_n04505470_5109.png,False,0.7171181658832938,2.5667948722839355,0.0909090909090909,-3.0559101829115756,2.5674188137054443,0.0909090909090909,-3.3648321440317104,30.977994680404663,10.0,0.8528360528360527,6.0,37.284025593721886,6.0
subject-01,1,616,1.03628587722778,bicycle,keyboard,32-3-10,32-3-10_keyboard_10_n04505470_5109.png,False,0.5071116800901209,2.5667948722839355,0.0909090909090909,-3.0559101829115756,2.5674188137054443,0.0909090909090909,-3.3648321440317104,30.977994680404663,10.0,0.8528360528360527,6.0,37.284025593721886,6.0
subject-04,1,9,0.871419191360474,bicycle,bicycle,4-3-10,4-3-10_bicycle_10_n03792782_6152.png,True,-0.6786097470107078,0.74284428358078,1.0,-0.1482451785205352,2.4006810188293457,0.2,-2.3843919807485543,28.249036967754364,10.0,5.949999999999999,7.0,22.57316649991259,10.0
subject-03,1,326,0.859444856643677,bicycle,bicycle,4-3-10,4-3-10_bicycle_10_n03792782_6152.png,True,-0.43462819919234796,0.74284428358078,1.0,-0.1482451785205352,2.4006810188293457,0.2,-2.3843919807485543,28.249036967754364,10.0,5.949999999999999,7.0,22.57316649991259,10.0
subject-02,1,808,1.23319578170776,bicycle,bicycle,4-3-10,4-3-10_bicycle_10_n03792782_6152.png,True,1.6517206177566646,0.74284428358078,1.0,-0.1482451785205352,2.4006810188293457,0.2,-2.3843919807485543,28.249036967754364,10.0,5.949999999999999,7.0,22.57316649991259,10.0
subject-01,1,861,0.960108995437622,bicycle,bicycle,4-3-10,4-3-10_bicycle_10_n03792782_6152.png,True,0.13334011983824232,0.74284428358078,1.0,-0.1482451785205352,2.4006810188293457,0.2,-2.3843919807485543,28.249036967754364,10.0,5.949999999999999,7.0,22.57316649991259,10.0
subject-04,1,10,1.03110218048096,boat,boat,1-3-10,1-3-10_boat_10_n03662601_34796.png,True,-0.11320808929093572,0.0743753314018249,1.0,-0.009078821136890599,2.53570556640625,1.0,-1.8423856463107677,25.430697068572044,9.0,7.367857142857143,3.0,21.45229446116838,9.0
subject-03,1,458,0.670536994934082,boat,boat,1-3-10,1-3-10_boat_10_n03662601_34796.png,True,-1.3869741118675785,0.0743753314018249,1.0,-0.009078821136890599,2.53570556640625,1.0,-1.8423856463107677,25.430697068572044,9.0,7.367857142857143,3.0,21.45229446116838,9.0
subject-02,1,326,0.765283107757568,boat,boat,1-3-10,1-3-10_boat_10_n03662601_34796.png,True,-0.9597420449143428,0.0743753314018249,1.0,-0.009078821136890599,2.53570556640625,1.0,-1.8423856463107677,25.430697068572044,9.0,7.367857142857143,3.0,21.45229446116838,9.0
subject-01,1,66,0.773398160934448,boat,boat,1-3-10,1-3-10_boat_10_n03662601_34796.png,True,-0.7827803393900841,0.0743753314018249,1.0,-0.009078821136890599,2.53570556640625,1.0,-1.8423856463107677,25.430697068572044,9.0,7.367857142857143,3.0,21.45229446116838,9.0
subject-04,1,11,1.16304612159729,bear,chair,16-3-10,16-3-10_chair_10_n03376595_6986.png,False,0.3539758195533804,2.1431775093078613,0.0714285714285714,-4.306927115844814,2.5256497859954834,0.0714285714285714,-3.8260502110280745,30.242107391357422,10.0,0.8093253968253966,0.0,39.722642596800526,6.0
subject-03,1,102,1.03680896759033,dog,chair,16-3-10,16-3-10_chair_10_n03376595_6986.png,False,0.4595219149780557,2.1431775093078613,0.0714285714285714,-4.306927115844814,2.5256497859954834,0.0714285714285714,-3.8260502110280745,30.242107391357422,10.0,0.8093253968253966,0.0,39.722642596800526,6.0
subject-02,1,428,1.10707402229309,bottle,chair,16-3-10,16-3-10_chair_10_n03376595_6986.png,False,0.9478237498191955,2.1431775093078613,0.0714285714285714,-4.306927115844814,2.5256497859954834,0.0714285714285714,-3.8260502110280745,30.242107391357422,10.0,0.8093253968253966,0.0,39.722642596800526,6.0
subject-01,1,973,1.09815907478333,bottle,chair,16-3-10,16-3-10_chair_10_n03376595_6986.png,False,0.8107003942070397,2.1431775093078613,0.0714285714285714,-4.306927115844814,2.5256497859954834,0.0714285714285714,-3.8260502110280745,30.242107391357422,10.0,0.8093253968253966,0.0,39.722642596800526,6.0
subject-04,1,12,1.37870502471924,cat,car,64-3-10,64-3-10_car_10_n04285008_8113.png,False,1.1175756369088483,2.4517362117767334,0.0625,-4.302301294144867,2.5213205814361572,0.0714285714285714,-3.922789404372878,30.703561305999756,10.0,0.05847069597069568,4.0,47.739221008226714,7.0
subject-03,1,563,1.12452101707458,keyboard,car,64-3-10,64-3-10_car_10_n04285008_8113.png,False,0.9017068566884533,2.4517362117767334,0.0625,-4.302301294144867,2.5213205814361572,0.0714285714285714,-3.922789404372878,30.703561305999756,10.0,0.05847069597069568,4.0,47.739221008226714,7.0
subject-02,1,1054,0.893860101699829,cat,car,64-3-10,64-3-10_car_10_n04285008_8113.png,False,-0.24214229254167444,2.4517362117767334,0.0625,-4.302301294144867,2.5213205814361572,0.0714285714285714,-3.922789404372878,30.703561305999756,10.0,0.05847069597069568,4.0,47.739221008226714,7.0
subject-01,1,1,0.969465970993042,oven,car,64-3-10,64-3-10_car_10_n04285008_8113.png,False,0.17925131061423288,2.4517362117767334,0.0625,-4.302301294144867,2.5213205814361572,0.0714285714285714,-3.922789404372878,30.703561305999756,10.0,0.05847069597069568,4.0,47.739221008226714,7.0
subject-04,1,13,1.43067502975464,dog,dog,64-3-10,64-3-10_dog_10_n02087046_15420.png,True,1.3015897711667492,1.6128616333007812,1.0,-0.490935949427898,2.533637046813965,0.2,-2.5883852914296095,29.260624885559082,9.0,3.7261904761904763,8.0,28.571855674667795,9.0
subject-03,1,220,1.27405691146851,dog,dog,64-3-10,64-3-10_dog_10_n02087046_15420.png,True,1.6555658889992346,1.6128616333007812,1.0,-0.490935949427898,2.533637046813965,0.2,-2.5883852914296095,29.260624885559082,9.0,3.7261904761904763,8.0,28.571855674667795,9.0
subject-02,1,932,0.799807071685791,cat,dog,64-3-10,64-3-10_dog_10_n02087046_15420.png,False,-0.7670607011823453,1.6128616333007812,1.0,-0.490935949427898,2.533637046813965,0.2,-2.5883852914296095,29.260624885559082,9.0,3.7261904761904763,8.0,28.571855674667795,9.0
subject-01,1,626,0.806489944458008,truck,dog,64-3-10,64-3-10_dog_10_n02087046_15420.png,False,-0.6204112942355415,1.6128616333007812,1.0,-0.490935949427898,2.533637046813965,0.2,-2.5883852914296095,29.260624885559082,9.0,3.7261904761904763,8.0,28.571855674667795,9.0
subject-04,1,14,1.40647506713867,bottle,bottle,4-3-10,4-3-10_bottle_10_n04557648_11642.png,True,1.2159031300587109,0.5289292931556702,1.0,-0.11890596175844616,2.587048053741455,0.1666666666666666,-2.7669910912230717,28.917241156101227,10.0,3.5285464535464532,8.0,30.344722059335442,10.0
subject-03,1,596,1.42424702644348,bottle,bottle,4-3-10,4-3-10_bottle_10_n04557648_11642.png,True,2.4127230598348124,0.5289292931556702,1.0,-0.11890596175844616,2.587048053741455,0.1666666666666666,-2.7669910912230717,28.917241156101227,10.0,3.5285464535464532,8.0,30.344722059335442,10.0
subject-02,1,816,0.685971975326538,cat,bottle,4-3-10,4-3-10_bottle_10_n04557648_11642.png,False,-1.402384598981681,0.5289292931556702,1.0,-0.11890596175844616,2.587048053741455,0.1666666666666666,-2.7669910912230717,28.917241156101227,10.0,3.5285464535464532,8.0,30.344722059335442,10.0
subject-01,1,494,1.06423497200012,bear,bottle,4-3-10,4-3-10_bottle_10_n04557648_11642.png,False,0.6442474687334782,0.5289292931556702,1.0,-0.11890596175844616,2.587048053741455,0.1666666666666666,-2.7669910912230717,28.917241156101227,10.0,3.5285464535464532,8.0,30.344722059335442,10.0
subject-04,1,15,0.860095024108887,oven,truck,128-3-10,128-3-10_truck_10_n03417042_13871.png,False,-0.7187060839568564,1.0965499877929688,0.125,-4.252321070620799,2.560506820678711,0.1428571428571428,-2.774958786696905,29.389538288116455,10.0,1.1749389499389498,2.0,36.09558483196008,0.0
subject-03,1,621,0.85785984992981,oven,truck,128-3-10,128-3-10_truck_10_n03417042_13871.png,False,-0.44261873305289473,1.0965499877929688,0.125,-4.252321070620799,2.560506820678711,0.1428571428571428,-2.774958786696905,29.389538288116455,10.0,1.1749389499389498,2.0,36.09558483196008,0.0
subject-02,1,88,0.918731927871704,cat,truck,128-3-10,128-3-10_truck_10_n03417042_13871.png,False,-0.10333039661254409,1.0965499877929688,0.125,-4.252321070620799,2.560506820678711,0.1428571428571428,-2.774958786696905,29.389538288116455,10.0,1.1749389499389498,2.0,36.09558483196008,0.0
subject-01,1,1100,0.84640097618103,bicycle,truck,128-3-10,128-3-10_truck_10_n03417042_13871.png,False,-0.42458274037757204,1.0965499877929688,0.125,-4.252321070620799,2.560506820678711,0.1428571428571428,-2.774958786696905,29.389538288116455,10.0,1.1749389499389498,2.0,36.09558483196008,0.0
subject-04,1,16,0.780023097991943,knife,knife,1-3-10,1-3-10_knife_10_n03041632_23129.png,True,-1.0022228192878533,0.5052408576011658,1.0,-0.14876488937496665,2.542132616043091,0.25,-2.765539627140385,28.503242433071136,10.0,5.426190476190476,5.0,23.354898867802834,9.0
subject-03,1,1087,0.709291934967041,knife,knife,1-3-10,1-3-10_knife_10_n03041632_23129.png,True,-1.191597866525813,0.5052408576011658,1.0,-0.14876488937496665,2.542132616043091,0.25,-2.765539627140385,28.503242433071136,10.0,5.426190476190476,5.0,23.354898867802834,9.0
subject-02,1,947,0.820844888687134,knife,knife,1-3-10,1-3-10_knife_10_n03041632_23129.png,True,-0.6496467548164455,0.5052408576011658,1.0,-0.14876488937496665,2.542132616043091,0.25,-2.765539627140385,28.503242433071136,10.0,5.426190476190476,5.0,23.354898867802834,9.0
subject-01,1,981,0.784394025802612,knife,knife,1-3-10,1-3-10_knife_10_n03041632_23129.png,True,-0.7288277297333384,0.5052408576011658,1.0,-0.14876488937496665,2.542132616043091,0.25,-2.765539627140385,28.503242433071136,10.0,5.426190476190476,5.0,23.354898867802834,9.0
subject-04,1,17,1.24389100074768,elephant,keyboard,32-3-10,32-3-10_keyboard_10_n03085013_24336.png,False,0.6402294082515202,2.476982355117798,0.0625,-4.209130781493498,2.504704475402832,0.0714285714285714,-3.9109601155995137,30.7958505153656,10.0,0.5225649350649348,6.0,40.363669009844955,6.0
subject-03,1,561,0.935084104537964,bear,keyboard,32-3-10,32-3-10_keyboard_10_n03085013_24336.png,False,-0.05330617311017989,2.476982355117798,0.0625,-4.209130781493498,2.504704475402832,0.0714285714285714,-3.9109601155995137,30.7958505153656,10.0,0.5225649350649348,6.0,40.363669009844955,6.0
subject-02,1,739,0.926208972930908,cat,keyboard,32-3-10,32-3-10_keyboard_10_n03085013_24336.png,False,-0.06160033652595099,2.476982355117798,0.0625,-4.209130781493498,2.504704475402832,0.0714285714285714,-3.9109601155995137,30.7958505153656,10.0,0.5225649350649348,6.0,40.363669009844955,6.0
subject-01,1,276,0.83638596534729,cat,keyboard,32-3-10,32-3-10_keyboard_10_n03085013_24336.png,False,-0.47372266494915116,2.476982355117798,0.0625,-4.209130781493498,2.504704475402832,0.0714285714285714,-3.9109601155995137,30.7958505153656,10.0,0.5225649350649348,6.0,40.363669009844955,6.0
subject-04,1,18,0.71769905090332,airplane,airplane,2-3-10,2-3-10_airplane_10_n02690373_6978.png,True,-1.2228982947019833,0.0165870822966098,1.0,-0.0016472786796693747,2.5683035850524902,1.0,-1.802396410945272,24.773229201557115,9.0,7.687301587301587,3.0,21.919771881488614,8.0
subject-03,1,796,0.672456026077271,airplane,airplane,2-3-10,2-3-10_airplane_10_n02690373_6978.png,True,-1.3772996523243226,0.0165870822966098,1.0,-0.0016472786796693747,2.5683035850524902,1.0,-1.802396410945272,24.773229201557115,9.0,7.687301587301587,3.0,21.919771881488614,8.0
subject-02,1,888,0.660160779953003,airplane,airplane,2-3-10,2-3-10_airplane_10_n02690373_6978.png,True,-1.5464391988023054,0.0165870822966098,1.0,-0.0016472786796693747,2.5683035850524902,1.0,-1.802396410945272,24.773229201557115,9.0,7.687301587301587,3.0,21.919771881488614,8.0
subject-01,1,462,0.761192798614502,airplane,airplane,2-3-10,2-3-10_airplane_10_n02690373_6978.png,True,-0.8426675021428541,0.0165870822966098,1.0,-0.0016472786796693747,2.5683035850524902,1.0,-1.802396410945272,24.773229201557115,9.0,7.687301587301587,3.0,21.919771881488614,8.0
subject-04,1,19,0.893533945083618,keyboard,clock,128-3-10,128-3-10_clock_10_n04548280_4364.png,False,-0.6003063630122049,2.517122745513916,1.0,-1.6182613917470332,2.5367915630340576,0.1111111111111111,-3.007820429217118,30.724443674087524,10.0,1.8275183150183147,10.0,38.55734348478351,8.0
subject-03,1,905,0.791965007781982,keyboard,clock,128-3-10,128-3-10_clock_10_n04548280_4364.png,False,-0.7748160435191754,2.517122745513916,1.0,-1.6182613917470332,2.5367915630340576,0.1111111111111111,-3.007820429217118,30.724443674087524,10.0,1.8275183150183147,10.0,38.55734348478351,8.0
subject-02,1,16,1.06348896026611,knife,clock,128-3-10,128-3-10_clock_10_n04548280_4364.png,False,0.7045716037023453,2.517122745513916,1.0,-1.6182613917470332,2.5367915630340576,0.1111111111111111,-3.007820429217118,30.724443674087524,10.0,1.8275183150183147,10.0,38.55734348478351,8.0
subject-01,1,414,1.04649496078491,keyboard,clock,128-3-10,128-3-10_clock_10_n04548280_4364.png,False,0.5572038471651886,2.517122745513916,1.0,-1.6182613917470332,2.5367915630340576,0.1111111111111111,-3.007820429217118,30.724443674087524,10.0,1.8275183150183147,10.0,38.55734348478351,8.0
subject-04,1,20,0.695158004760742,bottle,bottle,1-3-10,1-3-10_bottle_10_n04560804_32760.png,True,-1.3027110845673782,0.3061136603355407,1.0,-0.046971659693004535,2.530496120452881,0.1666666666666666,-2.82005652607821,26.689671218395233,9.0,4.562637362637362,7.0,25.929639617429903,9.0
subject-03,1,175,0.96036696434021,bottle,bottle,1-3-10,1-3-10_bottle_10_n04560804_32760.png,True,0.07415293830798131,0.3061136603355407,1.0,-0.046971659693004535,2.530496120452881,0.1666666666666666,-2.82005652607821,26.689671218395233,9.0,4.562637362637362,7.0,25.929639617429903,9.0
subject-02,1,1044,0.735865831375122,bottle,bottle,1-3-10,1-3-10_bottle_10_n04560804_32760.png,True,-1.1239225067549834,0.3061136603355407,1.0,-0.046971659693004535,2.530496120452881,0.1666666666666666,-2.82005652607821,26.689671218395233,9.0,4.562637362637362,7.0,25.929639617429903,9.0
subject-01,1,396,0.648754835128784,bottle,bottle,1-3-10,1-3-10_bottle_10_n04560804_32760.png,True,-1.394358672166963,0.3061136603355407,1.0,-0.046971659693004535,2.530496120452881,0.1666666666666666,-2.82005652607821,26.689671218395233,9.0,4.562637362637362,7.0,25.929639617429903,9.0
subject-04,1,21,0.791264057159424,oven,clock,64-3-10,64-3-10_clock_10_n02708093_4893.png,False,-0.9624211035092333,2.5026044845581055,1.0,-1.4544266096977456,2.5593152046203613,0.1,-3.2320979699859165,30.981175422668457,10.0,1.8492424242424241,10.0,38.505230902043465,10.0
subject-03,1,1008,0.776132822036743,car,clock,64-3-10,64-3-10_clock_10_n02708093_4893.png,False,-0.8546312362101608,2.5026044845581055,1.0,-1.4544266096977456,2.5593152046203613,0.1,-3.2320979699859165,30.981175422668457,10.0,1.8492424242424241,10.0,38.505230902043465,10.0
subject-02,1,1137,0.745920896530151,cat,clock,64-3-10,64-3-10_clock_10_n02708093_4893.png,False,-1.0678042849478993,2.5026044845581055,1.0,-1.4544266096977456,2.5593152046203613,0.1,-3.2320979699859165,30.981175422668457,10.0,1.8492424242424241,10.0,38.505230902043465,10.0
subject-01,1,526,1.24449181556702,keyboard,clock,64-3-10,64-3-10_clock_10_n02708093_4893.png,False,1.5287006004811683,2.5026044845581055,1.0,-1.4544266096977456,2.5593152046203613,0.1,-3.2320979699859165,30.981175422668457,10.0,1.8492424242424241,10.0,38.505230902043465,10.0
subject-04,1,22,0.701092004776001,oven,clock,128-3-10,128-3-10_clock_10_n02708093_3638.png,False,-1.2817001211327879,1.6190803050994873,0.5,-2.487405983242271,2.5646414756774902,0.1111111111111111,-2.9248303601408425,29.855522871017456,10.0,1.3297008547008544,9.0,39.377104629953635,4.0
subject-03,1,381,1.0989670753479,keyboard,clock,128-3-10,128-3-10_clock_10_n02708093_3638.png,False,0.7728811332066191,1.6190803050994873,0.5,-2.487405983242271,2.5646414756774902,0.1111111111111111,-2.9248303601408425,29.855522871017456,10.0,1.3297008547008544,9.0,39.377104629953635,4.0
subject-02,1,643,0.772248983383179,oven,clock,128-3-10,128-3-10_clock_10_n02708093_3638.png,False,-0.9208648673514422,1.6190803050994873,0.5,-2.487405983242271,2.5646414756774902,0.1111111111111111,-2.9248303601408425,29.855522871017456,10.0,1.3297008547008544,9.0,39.377104629953635,4.0
subject-01,1,245,0.999743938446045,car,clock,128-3-10,128-3-10_clock_10_n02708093_3638.png,False,0.32781400929936966,1.6190803050994873,0.5,-2.487405983242271,2.5646414756774902,0.1111111111111111,-2.9248303601408425,29.855522871017456,10.0,1.3297008547008544,9.0,39.377104629953635,4.0
subject-04,1,23,0.813020944595337,cat,bear,8-3-10,8-3-10_bear_10_n02133161_13556.png,False,-0.8853848437871292,0.55275559425354,1.0,-0.13516364334147726,2.454378843307495,1.0,-1.5423167481510576,27.334227800369263,10.0,9.25,4.0,17.880305331414135,9.0
subject-03,1,1203,0.789031982421875,bear,bear,8-3-10,8-3-10_bear_10_n02133161_13556.png,True,-0.7896023773868718,0.55275559425354,1.0,-0.13516364334147726,2.454378843307495,1.0,-1.5423167481510576,27.334227800369263,10.0,9.25,4.0,17.880305331414135,9.0
subject-02,1,46,1.3897819519043,dog,bear,8-3-10,8-3-10_bear_10_n02133161_13556.png,False,2.525642098674791,0.55275559425354,1.0,-0.13516364334147726,2.454378843307495,1.0,-1.5423167481510576,27.334227800369263,10.0,9.25,4.0,17.880305331414135,9.0
subject-01,1,316,0.804476022720337,bear,bear,8-3-10,8-3-10_bear_10_n02133161_13556.png,True,-0.6302928574135676,0.55275559425354,1.0,-0.13516364334147726,2.454378843307495,1.0,-1.5423167481510576,27.334227800369263,10.0,9.25,4.0,17.880305331414135,9.0
subject-04,1,24,1.1863968372345,bear,truck,64-3-10,64-3-10_truck_10_n04467665_64792.png,False,0.43665546754180673,2.4188032150268555,0.1,-3.624197588492059,2.527162551879883,0.125,-2.86980161045649,30.946847677230835,10.0,0.8527888777888775,0.0,35.370063173899496,0.0
subject-03,1,896,0.75751805305481,bear,truck,64-3-10,64-3-10_truck_10_n04467665_64792.png,False,-0.9484743351415864,2.4188032150268555,0.1,-3.624197588492059,2.527162551879883,0.125,-2.86980161045649,30.946847677230835,10.0,0.8527888777888775,0.0,35.370063173899496,0.0
subject-02,1,692,1.02299404144287,oven,truck,64-3-10,64-3-10_truck_10_n04467665_64792.png,False,0.47856582437173145,2.4188032150268555,0.1,-3.624197588492059,2.527162551879883,0.125,-2.86980161045649,30.946847677230835,10.0,0.8527888777888775,0.0,35.370063173899496,0.0
subject-01,1,715,0.854011058807373,boat,truck,64-3-10,64-3-10_truck_10_n04467665_64792.png,False,-0.38724290196400457,2.4188032150268555,0.1,-3.624197588492059,2.527162551879883,0.125,-2.86980161045649,30.946847677230835,10.0,0.8527888777888775,0.0,35.370063173899496,0.0
subject-04,1,25,1.1666259765625,boat,airplane,32-3-10,32-3-10_airplane_10_n02690373_2619.png,False,0.3666512832510123,2.607475519180298,0.125,-2.7995930574492385,2.45194149017334,0.25,-2.437761666169562,30.498864889144897,4.0,0.7144993894993892,9.0,37.69443102591037,3.0
subject-03,1,603,1.01089787483215,boat,airplane,32-3-10,32-3-10_airplane_10_n02690373_2619.png,False,0.32889567709741074,2.607475519180298,0.125,-2.7995930574492385,2.45194149017334,0.25,-2.437761666169562,30.498864889144897,4.0,0.7144993894993892,9.0,37.69443102591037,3.0
subject-02,1,957,0.891561031341553,airplane,airplane,32-3-10,32-3-10_airplane_10_n02690373_2619.png,True,-0.2549736107207811,2.607475519180298,0.125,-2.7995930574492385,2.45194149017334,0.25,-2.437761666169562,30.498864889144897,4.0,0.7144993894993892,9.0,37.69443102591037,3.0
subject-01,1,134,0.912348985671997,airplane,airplane,32-3-10,32-3-10_airplane_10_n02690373_2619.png,True,-0.10100044318082525,2.607475519180298,0.125,-2.7995930574492385,2.45194149017334,0.25,-2.437761666169562,30.498864889144897,4.0,0.7144993894993892,9.0,37.69443102591037,3.0
subject-04,1,26,0.778120040893555,knife,knife,4-3-10,4-3-10_knife_10_n03041632_15431.png,True,-1.0089611177383668,0.1369570642709732,1.0,-0.021343733567033566,2.523179054260254,0.1111111111111111,-3.080081709451893,25.982235565781593,9.0,4.894444444444444,5.0,24.57756086649572,9.0
subject-03,1,47,0.695703983306885,knife,knife,4-3-10,4-3-10_knife_10_n03041632_15431.png,True,-1.2600991459753221,0.1369570642709732,1.0,-0.021343733567033566,2.523179054260254,0.1111111111111111,-3.080081709451893,25.982235565781593,9.0,4.894444444444444,5.0,24.57756086649572,9.0
subject-02,1,701,0.953794002532959,knife,knife,4-3-10,4-3-10_knife_10_n03041632_15431.png,True,0.09235419145526556,0.1369570642709732,1.0,-0.021343733567033566,2.523179054260254,0.1111111111111111,-3.080081709451893,25.982235565781593,9.0,4.894444444444444,5.0,24.57756086649572,9.0
subject-01,1,704,0.738202095031738,knife,knife,4-3-10,4-3-10_knife_10_n03041632_15431.png,True,-0.9554743137040014,0.1369570642709732,1.0,-0.021343733567033566,2.523179054260254,0.1111111111111111,-3.080081709451893,25.982235565781593,9.0,4.894444444444444,5.0,24.57756086649572,9.0
subject-04,1,27,0.877846002578735,chair,chair,1-3-10,1-3-10_chair_10_n03376595_1149.png,True,-0.6558538496125506,0.0444525554776191,1.0,-0.005666604851367512,2.569517135620117,0.0833333333333333,-3.391153556147172,27.33693505078554,10.0,4.488095238095238,7.0,27.92672240966969,9.0
subject-03,1,712,0.794256925582886,chair,chair,1-3-10,1-3-10_chair_10_n03376595_1149.png,True,-0.7632617411723841,0.0444525554776191,1.0,-0.005666604851367512,2.569517135620117,0.0833333333333333,-3.391153556147172,27.33693505078554,10.0,4.488095238095238,7.0,27.92672240966969,9.0
subject-02,1,561,0.743912935256958,chair,chair,1-3-10,1-3-10_chair_10_n03376595_1149.png,True,-1.0790108971748447,0.0444525554776191,1.0,-0.005666604851367512,2.569517135620117,0.0833333333333333,-3.391153556147172,27.33693505078554,10.0,4.488095238095238,7.0,27.92672240966969,9.0
subject-01,1,1246,0.677828073501587,chair,chair,1-3-10,1-3-10_chair_10_n03376595_1149.png,True,-1.2517071299561429,0.0444525554776191,1.0,-0.005666604851367512,2.569517135620117,0.0833333333333333,-3.391153556147172,27.33693505078554,10.0,4.488095238095238,7.0,27.92672240966969,9.0
subject-04,1,28,1.07975506782532,elephant,keyboard,128-3-10,128-3-10_keyboard_10_n03085013_7879.png,False,0.059060875041880866,2.062145471572876,0.25,-3.2109839365812105,2.520183801651001,0.1111111111111111,-3.103730502129849,30.124693155288696,10.0,2.276262626262626,6.0,34.88956027878425,6.0
subject-03,1,86,1.19378089904785,keyboard,keyboard,128-3-10,128-3-10_keyboard_10_n03085013_7879.png,True,1.2508684263165655,2.062145471572876,0.25,-3.2109839365812105,2.520183801651001,0.1111111111111111,-3.103730502129849,30.124693155288696,10.0,2.276262626262626,6.0,34.88956027878425,6.0
subject-02,1,654,0.874370813369751,cat,keyboard,128-3-10,128-3-10_keyboard_10_n03085013_7879.png,False,-0.3509137612996381,2.062145471572876,0.25,-3.2109839365812105,2.520183801651001,0.1111111111111111,-3.103730502129849,30.124693155288696,10.0,2.276262626262626,6.0,34.88956027878425,6.0
subject-01,1,902,1.36118292808533,keyboard,keyboard,128-3-10,128-3-10_keyboard_10_n03085013_7879.png,True,2.1012603872369886,2.062145471572876,0.25,-3.2109839365812105,2.520183801651001,0.1111111111111111,-3.103730502129849,30.124693155288696,10.0,2.276262626262626,6.0,34.88956027878425,6.0
subject-04,1,29,0.795512914657593,cat,bottle,64-3-10,64-3-10_bottle_10_n03937543_2232.png,False,-0.9473768518571855,2.508225202560425,0.3333333333333333,-2.221914455008459,2.420886993408203,0.1111111111111111,-3.206798571758283,30.335813760757446,4.0,2.6551337551337553,8.0,34.65392935534966,0.0
subject-03,1,785,0.816340923309326,cat,bottle,64-3-10,64-3-10_bottle_10_n03937543_2232.png,False,-0.6519291328840336,2.508225202560425,0.3333333333333333,-2.221914455008459,2.420886993408203,0.1111111111111111,-3.206798571758283,30.335813760757446,4.0,2.6551337551337553,8.0,34.65392935534966,0.0
subject-02,1,332,1.00784087181091,boat,bottle,64-3-10,64-3-10_bottle_10_n03937543_2232.png,False,0.3939946235514774,2.508225202560425,0.3333333333333333,-2.221914455008459,2.420886993408203,0.1111111111111111,-3.206798571758283,30.335813760757446,4.0,2.6551337551337553,8.0,34.65392935534966,0.0
subject-01,1,1265,1.02214813232422,bear,bottle,64-3-10,64-3-10_bottle_10_n03937543_2232.png,False,0.4377430363905387,2.508225202560425,0.3333333333333333,-2.221914455008459,2.420886993408203,0.1111111111111111,-3.206798571758283,30.335813760757446,4.0,2.6551337551337553,8.0,34.65392935534966,0.0
subject-04,1,30,1.10134506225586,cat,clock,128-3-10,128-3-10_clock_10_n04548280_1535.png,False,0.13550620405546396,2.3813955783843994,1.0,-1.6302794711207875,2.5005486011505127,0.1111111111111111,-3.1574506194986265,30.55013084411621,10.0,2.87057387057387,6.0,35.650714021038816,6.0
subject-03,1,165,0.774282932281494,keyboard,clock,128-3-10,128-3-10_clock_10_n04548280_1535.png,False,-0.863957131550713,2.3813955783843994,1.0,-1.6302794711207875,2.5005486011505127,0.1111111111111111,-3.1574506194986265,30.55013084411621,10.0,2.87057387057387,6.0,35.650714021038816,6.0
subject-02,1,207,0.780210018157959,boat,clock,128-3-10,128-3-10_clock_10_n04548280_1535.png,False,-0.8764336171887754,2.3813955783843994,1.0,-1.6302794711207875,2.5005486011505127,0.1111111111111111,-3.1574506194986265,30.55013084411621,10.0,2.87057387057387,6.0,35.650714021038816,6.0
subject-01,1,903,1.02100396156311,car,clock,128-3-10,128-3-10_clock_10_n04548280_1535.png,False,0.43212901701189327,2.3813955783843994,1.0,-1.6302794711207875,2.5005486011505127,0.1111111111111111,-3.1574506194986265,30.55013084411621,10.0,2.87057387057387,6.0,35.650714021038816,6.0
subject-04,1,31,1.20905017852783,dog,cat,128-3-10,128-3-10_cat_10_n02123045_9492.png,False,0.5168658693553422,2.2254152297973633,0.25,-2.4803387169204467,2.51789927482605,0.3333333333333333,-2.410421811012604,30.562256336212158,10.0,2.192857142857142,7.0,32.012779540095934,5.0
subject-03,1,390,0.719342947006226,cat,cat,128-3-10,128-3-10_cat_10_n02123045_9492.png,True,-1.1409274489627665,2.2254152297973633,0.25,-2.4803387169204467,2.51789927482605,0.3333333333333333,-2.410421811012604,30.562256336212158,10.0,2.192857142857142,7.0,32.012779540095934,5.0
subject-02,1,1051,0.82203197479248,cat,cat,128-3-10,128-3-10_cat_10_n02123045_9492.png,True,-0.6430215206347857,2.2254152297973633,0.25,-2.4803387169204467,2.51789927482605,0.3333333333333333,-2.410421811012604,30.562256336212158,10.0,2.192857142857142,7.0,32.012779540095934,5.0
subject-01,1,609,1.2816150188446,bear,cat,128-3-10,128-3-10_cat_10_n02123045_9492.png,False,1.7108503194580018,2.2254152297973633,0.25,-2.4803387169204467,2.51789927482605,0.3333333333333333,-2.410421811012604,30.562256336212158,10.0,2.192857142857142,7.0,32.012779540095934,5.0
subject-04,1,32,1.37508583068848,bear,bottle,64-3-10,64-3-10_bottle_10_n02823428_6793.png,False,1.104760882401358,2.0157485008239746,0.1428571428571428,-3.84283081103993,2.479524612426758,0.1111111111111111,-3.286378462903998,30.172663688659668,10.0,0.6217032967032964,0.0,38.66242538901247,0.0
subject-03,1,1091,1.11241698265076,bear,bottle,64-3-10,64-3-10_bottle_10_n02823428_6793.png,False,0.8406864861962712,2.0157485008239746,0.1428571428571428,-3.84283081103993,2.479524612426758,0.1111111111111111,-3.286378462903998,30.172663688659668,10.0,0.6217032967032964,0.0,38.66242538901247,0.0
subject-02,1,83,1.45154500007629,elephant,bottle,64-3-10,64-3-10_bottle_10_n02823428_6793.png,False,2.870347218269546,2.0157485008239746,0.1428571428571428,-3.84283081103993,2.479524612426758,0.1111111111111111,-3.286378462903998,30.172663688659668,10.0,0.6217032967032964,0.0,38.66242538901247,0.0
subject-01,1,287,0.825841188430786,bear,bottle,64-3-10,64-3-10_bottle_10_n02823428_6793.png,False,-0.5254619541923992,2.0157485008239746,0.1428571428571428,-3.84283081103993,2.479524612426758,0.1111111111111111,-3.286378462903998,30.172663688659668,10.0,0.6217032967032964,0.0,38.66242538901247,0.0
subject-04,1,33,0.932920932769775,cat,boat,16-3-10,16-3-10_boat_10_n04273569_10665.png,False,-0.460845871616103,2.5386199951171875,1.0,-1.8450759836274113,2.4729623794555664,1.0,-1.6952898441273916,30.737830638885498,4.0,4.392857142857142,10.0,27.884108283271452,2.0
subject-03,1,669,0.858206033706665,boat,boat,16-3-10,16-3-10_boat_10_n04273569_10665.png,True,-0.44087350814833687,2.5386199951171875,1.0,-1.8450759836274113,2.4729623794555664,1.0,-1.6952898441273916,30.737830638885498,4.0,4.392857142857142,10.0,27.884108283271452,2.0
subject-02,1,382,0.924374103546143,airplane,boat,16-3-10,16-3-10_boat_10_n04273569_10665.png,False,-0.07184090737593372,2.5386199951171875,1.0,-1.8450759836274113,2.4729623794555664,1.0,-1.6952898441273916,30.737830638885498,4.0,4.392857142857142,10.0,27.884108283271452,2.0
subject-01,1,347,0.804037094116211,boat,boat,16-3-10,16-3-10_boat_10_n04273569_10665.png,True,-0.632446516441713,2.5386199951171875,1.0,-1.8450759836274113,2.4729623794555664,1.0,-1.6952898441273916,30.737830638885498,4.0,4.392857142857142,10.0,27.884108283271452,2.0
subject-04,1,34,1.5001208782196,oven,airplane,128-3-10,128-3-10_airplane_10_n02690373_8740.png,False,1.5474819482866173,2.228708267211914,0.1,-3.6393381590638,2.5246381759643555,0.2,-2.6076475052616037,30.512731790542603,10.0,0.4894230769230766,3.0,39.34908509507183,7.0
subject-03,1,120,1.18735909461975,bear,airplane,128-3-10,128-3-10_airplane_10_n02690373_8740.png,False,1.2184940235587682,2.228708267211914,0.1,-3.6393381590638,2.5246381759643555,0.2,-2.6076475052616037,30.512731790542603,10.0,0.4894230769230766,3.0,39.34908509507183,7.0
subject-02,1,672,0.936787128448486,cat,airplane,128-3-10,128-3-10_airplane_10_n02690373_8740.png,False,-0.0025627004198966277,2.228708267211914,0.1,-3.6393381590638,2.5246381759643555,0.2,-2.6076475052616037,30.512731790542603,10.0,0.4894230769230766,3.0,39.34908509507183,7.0
subject-01,1,1226,1.04561614990234,chair,airplane,128-3-10,128-3-10_airplane_10_n02690373_8740.png,False,0.5528918497845474,2.228708267211914,0.1,-3.6393381590638,2.5246381759643555,0.2,-2.6076475052616037,30.512731790542603,10.0,0.4894230769230766,3.0,39.34908509507183,7.0
subject-04,1,35,1.50014209747314,dog,boat,16-3-10,16-3-10_boat_10_n02951358_1360.png,False,1.5475570809052712,2.6687264442443848,0.5,-2.124911647756452,2.419885635375977,1.0,-1.6376136769936125,30.551106214523315,4.0,4.125,4.0,27.618536630089807,0.0
subject-03,1,959,1.01380085945129,car,boat,16-3-10,16-3-10_boat_10_n02951358_1360.png,False,0.34353056582875985,2.6687264442443848,0.5,-2.124911647756452,2.419885635375977,1.0,-1.6376136769936125,30.551106214523315,4.0,4.125,4.0,27.618536630089807,0.0
subject-02,1,623,1.10627818107605,clock,boat,16-3-10,16-3-10_boat_10_n02951358_1360.png,False,0.9433820885019909,2.6687264442443848,0.5,-2.124911647756452,2.419885635375977,1.0,-1.6376136769936125,30.551106214523315,4.0,4.125,4.0,27.618536630089807,0.0
subject-01,1,624,0.878955125808716,boat,boat,16-3-10,16-3-10_boat_10_n02951358_1360.png,True,-0.26485166432051355,2.6687264442443848,0.5,-2.124911647756452,2.419885635375977,1.0,-1.6376136769936125,30.551106214523315,4.0,4.125,4.0,27.618536630089807,0.0
subject-04,1,36,1.21034002304077,car,oven,2-3-10,2-3-10_oven_10_n04111531_6298.png,False,0.5214329195454329,0.5027358531951904,0.2,-4.837644115015449,2.496958494186402,0.0625,-4.548629172522476,27.573578000068665,9.0,0.6451520701520699,9.0,41.56144384336602,6.0
subject-03,1,442,1.05352282524109,car,oven,2-3-10,2-3-10_oven_10_n04111531_6298.png,False,0.5437819022262645,0.5027358531951904,0.2,-4.837644115015449,2.496958494186402,0.0625,-4.548629172522476,27.573578000068665,9.0,0.6451520701520699,9.0,41.56144384336602,6.0
subject-02,1,263,0.953541994094849,car,oven,2-3-10,2-3-10_oven_10_n04111531_6298.png,False,0.09094770972600083,0.5027358531951904,0.2,-4.837644115015449,2.496958494186402,0.0625,-4.548629172522476,27.573578000068665,9.0,0.6451520701520699,9.0,41.56144384336602,6.0
subject-01,1,1274,0.929007053375244,truck,oven,2-3-10,2-3-10_oven_10_n04111531_6298.png,False,-0.019265515077893793,0.5027358531951904,0.2,-4.837644115015449,2.496958494186402,0.0625,-4.548629172522476,27.573578000068665,9.0,0.6451520701520699,9.0,41.56144384336602,6.0
subject-04,1,37,0.93608283996582,elephant,airplane,128-3-10,128-3-10_airplane_10_n02690373_4943.png,False,-0.44965026724993584,2.558870315551758,0.1,-3.2476305038658886,2.563385486602783,0.1666666666666666,-2.5670552820493855,31.070816040039062,10.0,0.7281746031746029,3.0,35.545623982564734,7.0
subject-03,1,262,1.01449203491211,cat,airplane,128-3-10,128-3-10_airplane_10_n02690373_4943.png,False,0.34701500591027074,2.558870315551758,0.1,-3.2476305038658886,2.563385486602783,0.1666666666666666,-2.5670552820493855,31.070816040039062,10.0,0.7281746031746029,3.0,35.545623982564734,7.0
subject-02,1,13,,na,airplane,128-3-10,128-3-10_airplane_10_n02690373_4943.png,False,,2.558870315551758,0.1,-3.2476305038658886,2.563385486602783,0.1666666666666666,-2.5670552820493855,31.070816040039062,10.0,0.7281746031746029,3.0,35.545623982564734,7.0
subject-01,1,811,0.863377809524536,bottle,airplane,128-3-10,128-3-10_airplane_10_n02690373_4943.png,False,-0.34128374811351536,2.558870315551758,0.1,-3.2476305038658886,2.563385486602783,0.1666666666666666,-2.5670552820493855,31.070816040039062,10.0,0.7281746031746029,3.0,35.545623982564734,7.0
subject-04,1,38,1.50000286102295,bottle,bottle,1-3-10,1-3-10_bottle_10_n03937543_2677.png,True,1.547064075857044,0.1309264302253723,1.0,-0.01730238783896558,2.6073148250579834,0.2,-2.4415301186761407,25.28112694621086,9.0,5.461446886446886,6.0,23.035075597878773,0.0
subject-03,1,797,0.762165069580078,bottle,bottle,1-3-10,1-3-10_bottle_10_n03937543_2677.png,True,-0.9250472148834757,0.1309264302253723,1.0,-0.01730238783896558,2.6073148250579834,0.2,-2.4415301186761407,25.28112694621086,9.0,5.461446886446886,6.0,23.035075597878773,0.0
subject-02,1,955,0.869388818740845,bottle,bottle,1-3-10,1-3-10_bottle_10_n03937543_2677.png,True,-0.3787187208216375,0.1309264302253723,1.0,-0.01730238783896558,2.6073148250579834,0.2,-2.4415301186761407,25.28112694621086,9.0,5.461446886446886,6.0,23.035075597878773,0.0
subject-01,1,802,0.711043119430542,bottle,bottle,1-3-10,1-3-10_bottle_10_n03937543_2677.png,True,-1.0887332821304727,0.1309264302253723,1.0,-0.01730238783896558,2.6073148250579834,0.2,-2.4415301186761407,25.28112694621086,9.0,5.461446886446886,6.0,23.035075597878773,0.0
subject-04,1,39,0.981834888458252,boat,boat,16-3-10,16-3-10_boat_10_n03344393_9712.png,True,-0.2876525228178224,2.1554811000823975,0.5,-1.6214523933759146,2.4965734481811523,0.5,-1.852809723386524,29.92065954208374,9.0,5.0,3.0,26.84226581769299,2.0
subject-03,1,843,1.11864805221558,car,boat,16-3-10,16-3-10_boat_10_n03344393_9712.png,False,0.8720993325328297,2.1554811000823975,0.5,-1.6214523933759146,2.4965734481811523,0.5,-1.852809723386524,29.92065954208374,9.0,5.0,3.0,26.84226581769299,2.0
subject-02,1,141,1.06654405593872,airplane,boat,16-3-10,16-3-10_boat_10_n03344393_9712.png,False,0.7216223670692685,2.1554811000823975,0.5,-1.6214523933759146,2.4965734481811523,0.5,-1.852809723386524,29.92065954208374,9.0,5.0,3.0,26.84226581769299,2.0
subject-01,1,222,0.918837070465088,boat,boat,16-3-10,16-3-10_boat_10_n03344393_9712.png,True,-0.06916582985495613,2.1554811000823975,0.5,-1.6214523933759146,2.4965734481811523,0.5,-1.852809723386524,29.92065954208374,9.0,5.0,3.0,26.84226581769299,2.0
subject-04,1,40,1.33154821395874,boat,airplane,128-3-10,128-3-10_airplane_10_n02690373_9531.png,False,0.9506039442844915,2.4290928840637207,0.0769230769230769,-3.9923221148602095,2.5479989051818848,0.2,-2.6468521787330923,30.625269412994385,10.0,0.45421800421800396,3.0,40.05527133924742,3.0
subject-03,1,328,1.0369119644165,cat,airplane,128-3-10,128-3-10_airplane_10_n02690373_9531.png,False,0.46004115544551805,2.4290928840637207,0.0769230769230769,-3.9923221148602095,2.5479989051818848,0.2,-2.6468521787330923,30.625269412994385,10.0,0.45421800421800396,3.0,40.05527133924742,3.0
subject-02,1,139,1.22107100486755,bicycle,airplane,128-3-10,128-3-10_airplane_10_n02690373_9531.png,False,1.584051149126719,2.4290928840637207,0.0769230769230769,-3.9923221148602095,2.5479989051818848,0.2,-2.6468521787330923,30.625269412994385,10.0,0.45421800421800396,3.0,40.05527133924742,3.0
subject-01,1,1164,0.828062057495117,keyboard,airplane,128-3-10,128-3-10_airplane_10_n02690373_9531.png,False,-0.5145649776322828,2.4290928840637207,0.0769230769230769,-3.9923221148602095,2.5479989051818848,0.2,-2.6468521787330923,30.625269412994385,10.0,0.45421800421800396,3.0,40.05527133924742,3.0
subject-04,1,41,1.50000309944153,knife,dog,128-3-10,128-3-10_dog_10_n02095889_1087.png,False,1.5470649200437736,2.275085926055908,0.25,-2.469390168264894,2.5328457355499268,0.1428571428571428,-2.7894875995499087,30.371031522750854,10.0,1.484126984126984,7.0,33.60067521087154,0.0
subject-03,1,817,0.753431081771851,keyboard,dog,128-3-10,128-3-10_dog_10_n02095889_1087.png,False,-0.9690780853578187,2.275085926055908,0.25,-2.469390168264894,2.5328457355499268,0.1428571428571428,-2.7894875995499087,30.371031522750854,10.0,1.484126984126984,7.0,33.60067521087154,0.0
subject-02,1,550,0.793526887893677,bottle,dog,128-3-10,128-3-10_dog_10_n02095889_1087.png,False,-0.8021109710315505,2.275085926055908,0.25,-2.469390168264894,2.5328457355499268,0.1428571428571428,-2.7894875995499087,30.371031522750854,10.0,1.484126984126984,7.0,33.60067521087154,0.0
subject-01,1,669,0.772865772247314,cat,dog,128-3-10,128-3-10_dog_10_n02095889_1087.png,False,-0.7853925722036913,2.275085926055908,0.25,-2.469390168264894,2.5328457355499268,0.1428571428571428,-2.7894875995499087,30.371031522750854,10.0,1.484126984126984,7.0,33.60067521087154,0.0
subject-04,1,42,1.30116820335388,chair,bird,8-3-10,8-3-10_bird_10_n02056570_9935.png,False,0.8430351390401737,2.1690006256103516,0.1428571428571428,-3.27642067023236,2.5329184532165527,0.0714285714285714,-3.544148530845428,30.708393573760986,10.0,0.5505341880341876,8.0,40.35205796171214,6.0
subject-03,1,1119,0.98528790473938,bottle,bird,8-3-10,8-3-10_bird_10_n02056570_9935.png,False,0.1997874964168308,2.1690006256103516,0.1428571428571428,-3.27642067023236,2.5329184532165527,0.0714285714285714,-3.544148530845428,30.708393573760986,10.0,0.5505341880341876,8.0,40.35205796171214,6.0
subject-02,1,734,1.19304013252258,oven,bird,8-3-10,8-3-10_bird_10_n02056570_9935.png,False,1.4276083327503053,2.1690006256103516,0.1428571428571428,-3.27642067023236,2.5329184532165527,0.0714285714285714,-3.544148530845428,30.708393573760986,10.0,0.5505341880341876,8.0,40.35205796171214,6.0
subject-01,1,1027,0.983690023422241,bottle,bird,8-3-10,8-3-10_bird_10_n02056570_9935.png,False,0.24904343316673566,2.1690006256103516,0.1428571428571428,-3.27642067023236,2.5329184532165527,0.0714285714285714,-3.544148530845428,30.708393573760986,10.0,0.5505341880341876,8.0,40.35205796171214,6.0
subject-04,1,43,1.27505803108215,oven,cat,128-3-10,128-3-10_cat_10_n02125311_2622.png,False,0.7505848738798312,2.534060001373291,0.2,-2.5624978604666286,2.5294575691223145,0.5,-2.087688798236145,30.879987716674805,10.0,4.390909090909091,7.0,30.480623015772096,4.0
subject-03,1,396,0.952160120010376,bird,cat,128-3-10,128-3-10_cat_10_n02125311_2622.png,False,0.03277956939285208,2.534060001373291,0.2,-2.5624978604666286,2.5294575691223145,0.5,-2.087688798236145,30.879987716674805,10.0,4.390909090909091,7.0,30.480623015772096,4.0
subject-02,1,162,0.970705986022949,keyboard,cat,128-3-10,128-3-10_cat_10_n02125311_2622.png,False,0.18674149039925333,2.534060001373291,0.2,-2.5624978604666286,2.5294575691223145,0.5,-2.087688798236145,30.879987716674805,10.0,4.390909090909091,7.0,30.480623015772096,4.0
subject-01,1,1141,0.712484121322632,bear,cat,128-3-10,128-3-10_cat_10_n02125311_2622.png,False,-1.0816628230505638,2.534060001373291,0.2,-2.5624978604666286,2.5294575691223145,0.5,-2.087688798236145,30.879987716674805,10.0,4.390909090909091,7.0,30.480623015772096,4.0
subject-04,1,44,1.06869983673096,cat,chair,8-3-10,8-3-10_chair_10_n04099969_72.png,False,0.019916780723167476,1.697807788848877,0.1,-4.348584298164789,2.454423189163208,0.0666666666666666,-4.043269889902686,29.341788291931152,10.0,0.8990440115440113,0.0,39.72954516168447,6.0
subject-03,1,58,1.22372007369995,knife,chair,8-3-10,8-3-10_chair_10_n04099969_72.png,False,1.4018015338683787,1.697807788848877,0.1,-4.348584298164789,2.454423189163208,0.0666666666666666,-4.043269889902686,29.341788291931152,10.0,0.8990440115440113,0.0,39.72954516168447,6.0
subject-02,1,222,0.907384872436523,cat,chair,8-3-10,8-3-10_chair_10_n04099969_72.png,False,-0.1666593322236953,1.697807788848877,0.1,-4.348584298164789,2.454423189163208,0.0666666666666666,-4.043269889902686,29.341788291931152,10.0,0.8990440115440113,0.0,39.72954516168447,6.0
subject-01,1,360,0.981616973876953,dog,chair,8-3-10,8-3-10_chair_10_n04099969_72.png,False,0.23887175187954174,1.697807788848877,0.1,-4.348584298164789,2.454423189163208,0.0666666666666666,-4.043269889902686,29.341788291931152,10.0,0.8990440115440113,0.0,39.72954516168447,6.0
subject-04,1,45,0.878635168075562,cat,cat,2-3-10,2-3-10_cat_10_n02123394_2553.png,True,-0.6530595915480015,0.0049120420590043,1.0,-0.00044856593794930655,2.45400333404541,0.1111111111111111,-3.1847216906755045,23.72125172195956,9.0,4.565873015873016,7.0,26.624724990387087,8.0
subject-03,1,539,0.891277074813843,cat,cat,2-3-10,2-3-10_cat_10_n02123394_2553.png,True,-0.274151644159678,0.0049120420590043,1.0,-0.00044856593794930655,2.45400333404541,0.1111111111111111,-3.1847216906755045,23.72125172195956,9.0,4.565873015873016,7.0,26.624724990387087,8.0
subject-02,1,160,0.685259103775024,cat,cat,2-3-10,2-3-10_cat_10_n02123394_2553.png,True,-1.4063631991429952,0.0049120420590043,1.0,-0.00044856593794930655,2.45400333404541,0.1111111111111111,-3.1847216906755045,23.72125172195956,9.0,4.565873015873016,7.0,26.624724990387087,8.0
subject-01,1,256,0.975976943969727,cat,cat,2-3-10,2-3-10_cat_10_n02123394_2553.png,True,0.21119822772429755,0.0049120420590043,1.0,-0.00044856593794930655,2.45400333404541,0.1111111111111111,-3.1847216906755045,23.72125172195956,9.0,4.565873015873016,7.0,26.624724990387087,8.0
subject-04,1,46,0.766386032104492,boat,airplane,8-3-10,8-3-10_airplane_10_n02690373_18864.png,False,-1.0505086116672833,2.260842800140381,1.0,-1.318216959053817,2.4605460166931152,0.3333333333333333,-1.9504464116485252,29.892021656036377,9.0,4.245609945609946,8.0,28.65398914778552,3.0
subject-03,1,347,0.773483991622925,airplane,airplane,8-3-10,8-3-10_airplane_10_n02690373_18864.png,True,-0.8679848510102023,2.260842800140381,1.0,-1.318216959053817,2.4605460166931152,0.3333333333333333,-1.9504464116485252,29.892021656036377,9.0,4.245609945609946,8.0,28.65398914778552,3.0
subject-02,1,1073,0.954040050506592,airplane,airplane,8-3-10,8-3-10_airplane_10_n02690373_18864.png,True,0.093727407296897,2.260842800140381,1.0,-1.318216959053817,2.4605460166931152,0.3333333333333333,-1.9504464116485252,29.892021656036377,9.0,4.245609945609946,8.0,28.65398914778552,3.0
subject-01,1,1279,0.717759132385254,airplane,airplane,8-3-10,8-3-10_airplane_10_n02690373_18864.png,True,-1.0557803102870011,2.260842800140381,1.0,-1.318216959053817,2.4605460166931152,0.3333333333333333,-1.9504464116485252,29.892021656036377,9.0,4.245609945609946,8.0,28.65398914778552,3.0
subject-04,1,47,0.858070135116577,chair,clock,1-3-10,1-3-10_clock_10_n04548280_5327.png,False,-0.7258757618245893,0.681176483631134,1.0,-0.19570592667730122,2.553821325302124,0.125,-2.9979417086423505,28.1870259642601,10.0,4.88568931068931,6.0,31.632528951723778,9.0
subject-03,1,756,1.3798680305481,keyboard,clock,1-3-10,1-3-10_clock_10_n04548280_5327.png,False,2.1889941214671333,0.681176483631134,1.0,-0.19570592667730122,2.553821325302124,0.125,-2.9979417086423505,28.1870259642601,10.0,4.88568931068931,6.0,31.632528951723778,9.0
subject-02,1,227,1.03030395507812,clock,clock,1-3-10,1-3-10_clock_10_n04548280_5327.png,True,0.5193631089689785,0.681176483631134,1.0,-0.19570592667730122,2.553821325302124,0.125,-2.9979417086423505,28.1870259642601,10.0,4.88568931068931,6.0,31.632528951723778,9.0
subject-01,1,169,0.804682016372681,clock,clock,1-3-10,1-3-10_clock_10_n04548280_5327.png,True,-0.6292821233558165,0.681176483631134,1.0,-0.19570592667730122,2.553821325302124,0.125,-2.9979417086423505,28.1870259642601,10.0,4.88568931068931,6.0,31.632528951723778,9.0
subject-04,1,48,0.853893995285034,airplane,airplane,4-3-10,4-3-10_airplane_10_n02690373_9605.png,True,-0.7406625365250706,0.123820386826992,1.0,-0.01617454340217239,2.4522175788879395,0.25,-2.5309761643142052,26.42283471673727,9.0,3.363629426129426,8.0,31.837056552541917,9.0
subject-03,1,271,0.620802879333496,airplane,airplane,4-3-10,4-3-10_airplane_10_n02690373_9605.png,True,-1.6376999487072734,0.123820386826992,1.0,-0.01617454340217239,2.4522175788879395,0.25,-2.5309761643142052,26.42283471673727,9.0,3.363629426129426,8.0,31.837056552541917,9.0
subject-02,1,70,1.02528786659241,airplane,airplane,4-3-10,4-3-10_airplane_10_n02690373_9605.png,True,0.4913678685697411,0.123820386826992,1.0,-0.01617454340217239,2.4522175788879395,0.25,-2.5309761643142052,26.42283471673727,9.0,3.363629426129426,8.0,31.837056552541917,9.0
subject-01,1,393,0.665278911590576,airplane,airplane,4-3-10,4-3-10_airplane_10_n02690373_9605.png,True,-1.313281189134003,0.123820386826992,1.0,-0.01617454340217239,2.4522175788879395,0.25,-2.5309761643142052,26.42283471673727,9.0,3.363629426129426,8.0,31.837056552541917,9.0
subject-04,1,49,1.2979109287262,dog,dog,2-3-10,2-3-10_dog_10_n02090721_2242.png,True,0.831501859983447,1.039999008178711,1.0,-0.23850556317283755,2.460503339767456,0.25,-2.396947047529256,28.333553314208984,10.0,3.5861111111111112,9.0,27.302747651003084,10.0
subject-03,1,783,1.07668209075928,cat,dog,2-3-10,2-3-10_dog_10_n02090721_2242.png,False,0.660535284839395,1.039999008178711,1.0,-0.23850556317283755,2.460503339767456,0.25,-2.396947047529256,28.333553314208984,10.0,3.5861111111111112,9.0,27.302747651003084,10.0
subject-02,1,832,0.770661115646362,cat,dog,2-3-10,2-3-10_dog_10_n02090721_2242.png,False,-0.9297268998177803,1.039999008178711,1.0,-0.23850556317283755,2.460503339767456,0.25,-2.396947047529256,28.333553314208984,10.0,3.5861111111111112,9.0,27.302747651003084,10.0
subject-01,1,707,1.02146792411804,bear,dog,2-3-10,2-3-10_dog_10_n02090721_2242.png,False,0.43440550830399377,1.039999008178711,1.0,-0.23850556317283755,2.460503339767456,0.25,-2.396947047529256,28.333553314208984,10.0,3.5861111111111112,9.0,27.302747651003084,10.0
subject-04,1,50,1.19958114624023,airplane,airplane,4-3-10,4-3-10_airplane_10_n02690373_1996.png,True,0.48333814932768465,0.026052214205265,1.0,-0.002767873221529449,2.449260711669922,1.0,-1.704985108392162,25.31341341882944,9.0,7.684498834498834,3.0,22.09592532167706,9.0
subject-03,1,847,0.909847974777222,airplane,airplane,4-3-10,4-3-10_airplane_10_n02690373_1996.png,True,-0.18052970320513545,0.026052214205265,1.0,-0.002767873221529449,2.449260711669922,1.0,-1.704985108392162,25.31341341882944,9.0,7.684498834498834,3.0,22.09592532167706,9.0
subject-02,1,95,0.845304012298584,airplane,airplane,4-3-10,4-3-10_airplane_10_n02690373_1996.png,True,-0.51313818894726,0.026052214205265,1.0,-0.002767873221529449,2.449260711669922,1.0,-1.704985108392162,25.31341341882944,9.0,7.684498834498834,3.0,22.09592532167706,9.0
subject-01,1,475,0.59876012802124,airplane,airplane,4-3-10,4-3-10_airplane_10_n02690373_1996.png,True,-1.639664061949098,0.026052214205265,1.0,-0.002767873221529449,2.449260711669922,1.0,-1.704985108392162,25.31341341882944,9.0,7.684498834498834,3.0,22.09592532167706,9.0
subject-04,1,51,1.25933504104614,keyboard,keyboard,8-3-10,8-3-10_keyboard_10_n03085013_15504.png,True,0.6949132918307007,2.366382837295532,0.1111111111111111,-3.4314637464678643,2.4740028381347656,0.1111111111111111,-3.2847924206957733,30.246037483215332,10.0,1.0989177489177488,6.0,37.248402132952144,6.0
subject-03,1,1147,0.9583420753479,oven,keyboard,8-3-10,8-3-10_keyboard_10_n03085013_15504.png,False,0.06394481495093438,2.366382837295532,0.1111111111111111,-3.4314637464678643,2.4740028381347656,0.1111111111111111,-3.2847924206957733,30.246037483215332,10.0,1.0989177489177488,6.0,37.248402132952144,6.0
subject-02,1,868,1.00593900680542,oven,keyboard,8-3-10,8-3-10_keyboard_10_n03085013_15504.png,False,0.3833801441244753,2.366382837295532,0.1111111111111111,-3.4314637464678643,2.4740028381347656,0.1111111111111111,-3.2847924206957733,30.246037483215332,10.0,1.0989177489177488,6.0,37.248402132952144,6.0
subject-01,1,1117,0.920854091644287,oven,keyboard,8-3-10,8-3-10_keyboard_10_n03085013_15504.png,False,-0.05926905887282208,2.366382837295532,0.1111111111111111,-3.4314637464678643,2.4740028381347656,0.1111111111111111,-3.2847924206957733,30.246037483215332,10.0,1.0989177489177488,6.0,37.248402132952144,6.0
subject-04,1,52,1.29520297050476,bottle,airplane,128-3-10,128-3-10_airplane_10_n02690373_845.png,False,0.8219135871444234,2.676213264465332,0.1111111111111111,-2.9498814172339975,2.592076301574707,0.1428571428571428,-2.66083387519956,31.32703709602356,4.0,0.6555916305916303,7.0,35.99176010605282,7.0
subject-03,1,1229,0.66633415222168,cat,airplane,128-3-10,128-3-10_airplane_10_n02690373_845.png,False,-1.4081620076097154,2.676213264465332,0.1111111111111111,-2.9498814172339975,2.592076301574707,0.1428571428571428,-2.66083387519956,31.32703709602356,4.0,0.6555916305916303,7.0,35.99176010605282,7.0
subject-02,1,510,,na,airplane,128-3-10,128-3-10_airplane_10_n02690373_845.png,False,,2.676213264465332,0.1111111111111111,-2.9498814172339975,2.592076301574707,0.1428571428571428,-2.66083387519956,31.32703709602356,4.0,0.6555916305916303,7.0,35.99176010605282,7.0
subject-01,1,819,1.15577793121338,bicycle,airplane,128-3-10,128-3-10_airplane_10_n02690373_845.png,False,1.093414642436759,2.676213264465332,0.1111111111111111,-2.9498814172339975,2.592076301574707,0.1428571428571428,-2.66083387519956,31.32703709602356,4.0,0.6555916305916303,7.0,35.99176010605282,7.0
subject-04,1,53,1.18310594558716,cat,oven,32-3-10,32-3-10_oven_10_n04111531_681.png,False,0.42500315815662715,1.6169253587722778,0.0714285714285714,-4.5765433020201725,2.438455820083618,0.0625,-4.779639587353497,29.52654278278351,10.0,0.2968614718614716,6.0,44.04365793287217,6.0
subject-03,1,903,1.00048589706421,elephant,oven,32-3-10,32-3-10_oven_10_n04111531_681.png,False,0.2764055140071825,1.6169253587722778,0.0714285714285714,-4.5765433020201725,2.438455820083618,0.0625,-4.779639587353497,29.52654278278351,10.0,0.2968614718614716,6.0,44.04365793287217,6.0
subject-02,1,828,0.731353044509888,bear,oven,32-3-10,32-3-10_oven_10_n04111531_681.png,False,-1.149108775602245,1.6169253587722778,0.0714285714285714,-4.5765433020201725,2.438455820083618,0.0625,-4.779639587353497,29.52654278278351,10.0,0.2968614718614716,6.0,44.04365793287217,6.0
subject-01,1,1017,1.0117290019989,chair,oven,32-3-10,32-3-10_oven_10_n04111531_681.png,False,0.38662024812926227,1.6169253587722778,0.0714285714285714,-4.5765433020201725,2.438455820083618,0.0625,-4.779639587353497,29.52654278278351,10.0,0.2968614718614716,6.0,44.04365793287217,6.0
subject-04,1,54,1.17890095710754,boat,car,16-3-10,16-3-10_car_10_n02814533_32337.png,False,0.4101142368622255,2.432033061981201,0.0666666666666666,-4.007897030877132,2.4485530853271484,0.0769230769230769,-3.6907742021268763,30.430720806121826,10.0,0.07795121545121518,4.0,46.739605838147114,7.0
subject-03,1,950,0.965480089187622,car,car,16-3-10,16-3-10_car_10_n02814533_32337.png,True,0.09992986207051231,2.432033061981201,0.0666666666666666,-4.007897030877132,2.4485530853271484,0.0769230769230769,-3.6907742021268763,30.430720806121826,10.0,0.07795121545121518,4.0,46.739605838147114,7.0
subject-02,1,163,1.13022899627686,elephant,car,16-3-10,16-3-10_car_10_n02814533_32337.png,False,1.0770537394735697,2.432033061981201,0.0666666666666666,-4.007897030877132,2.4485530853271484,0.0769230769230769,-3.6907742021268763,30.430720806121826,10.0,0.07795121545121518,4.0,46.739605838147114,7.0
subject-01,1,60,1.08250021934509,bear,car,16-3-10,16-3-10_car_10_n02814533_32337.png,False,0.7338682281828097,2.432033061981201,0.0666666666666666,-4.007897030877132,2.4485530853271484,0.0769230769230769,-3.6907742021268763,30.430720806121826,10.0,0.07795121545121518,4.0,46.739605838147114,7.0
subject-04,1,55,0.90293288230896,cat,bear,32-3-10,32-3-10_bear_10_n02134084_3479.png,False,-0.5670268338821316,1.382269024848938,0.25,-3.5552689804286604,2.432429313659668,1.0,-1.438177425985637,28.391252040863037,9.0,8.333333333333332,3.0,23.130481288824107,4.0
subject-03,1,825,0.839869022369385,bear,bear,32-3-10,32-3-10_bear_10_n02134084_3479.png,True,-0.5333163405413258,1.382269024848938,0.25,-3.5552689804286604,2.432429313659668,1.0,-1.438177425985637,28.391252040863037,9.0,8.333333333333332,3.0,23.130481288824107,4.0
subject-02,1,301,1.32445883750916,bear,bear,32-3-10,32-3-10_bear_10_n02134084_3479.png,True,2.1610679297125412,1.382269024848938,0.25,-3.5552689804286604,2.432429313659668,1.0,-1.438177425985637,28.391252040863037,9.0,8.333333333333332,3.0,23.130481288824107,4.0
subject-01,1,829,1.38414001464844,truck,bear,32-3-10,32-3-10_bear_10_n02134084_3479.png,False,2.2139022526150964,1.382269024848938,0.25,-3.5552689804286604,2.432429313659668,1.0,-1.438177425985637,28.391252040863037,9.0,8.333333333333332,3.0,23.130481288824107,4.0
subject-04,1,56,1.23449277877808,oven,bottle,4-3-10,4-3-10_bottle_10_n04579145_6678.png,False,0.6069524116816424,0.0083168968558311,1.0,-0.0008271776494466176,2.526080846786499,0.25,-2.5266051458211845,23.98985681589693,8.0,4.572557997557998,7.0,23.93332773772568,8.0
subject-03,1,51,0.824990034103394,bottle,bottle,4-3-10,4-3-10_bottle_10_n04579145_6678.png,True,-0.6083261550171387,0.0083168968558311,1.0,-0.0008271776494466176,2.526080846786499,0.25,-2.5266051458211845,23.98985681589693,8.0,4.572557997557998,7.0,23.93332773772568,8.0
subject-02,1,217,0.92622184753418,bottle,bottle,4-3-10,4-3-10_bottle_10_n04579145_6678.png,True,-0.061528482208653285,0.0083168968558311,1.0,-0.0008271776494466176,2.526080846786499,0.25,-2.5266051458211845,23.98985681589693,8.0,4.572557997557998,7.0,23.93332773772568,8.0
subject-01,1,1060,0.759520053863525,bottle,bottle,4-3-10,4-3-10_bottle_10_n04579145_6678.png,True,-0.8508750370377335,0.0083168968558311,1.0,-0.0008271776494466176,2.526080846786499,0.25,-2.5266051458211845,23.98985681589693,8.0,4.572557997557998,7.0,23.93332773772568,8.0
subject-04,1,57,0.84032416343689,knife,knife,8-3-10,8-3-10_knife_10_n03041632_44738.png,True,-0.7887102682476406,0.0294193401932716,1.0,-0.003119620883155805,2.5526137351989746,0.25,-2.741953130365501,25.693742593750358,9.0,6.476190476190476,5.0,21.198029537208814,9.0
subject-03,1,1083,0.832136154174805,knife,knife,8-3-10,8-3-10_knife_10_n03041632_44738.png,True,-0.5723002417496601,0.0294193401932716,1.0,-0.003119620883155805,2.5526137351989746,0.25,-2.741953130365501,25.693742593750358,9.0,6.476190476190476,5.0,21.198029537208814,9.0
subject-02,1,521,0.916893005371094,knife,knife,8-3-10,8-3-10_knife_10_n03041632_44738.png,True,-0.11359358826612143,0.0294193401932716,1.0,-0.003119620883155805,2.5526137351989746,0.25,-2.741953130365501,25.693742593750358,9.0,6.476190476190476,5.0,21.198029537208814,9.0
subject-01,1,617,0.89226508140564,knife,knife,8-3-10,8-3-10_knife_10_n03041632_44738.png,True,-0.19954467414927463,0.0294193401932716,1.0,-0.003119620883155805,2.5526137351989746,0.25,-2.741953130365501,25.693742593750358,9.0,6.476190476190476,5.0,21.198029537208814,9.0
subject-04,1,58,1.50008702278137,dog,boat,128-3-10,128-3-10_boat_10_n03344393_6352.png,False,1.5473620737714702,2.5048041343688965,0.0909090909090909,-3.313607796333967,2.5836305618286133,0.5,-2.0513012059372278,30.96113657951355,10.0,1.9698773448773443,2.0,31.620963195018547,2.0
subject-03,1,874,0.790966987609863,car,boat,128-3-10,128-3-10_boat_10_n03344393_6352.png,False,-0.7798473874933406,2.5048041343688965,0.0909090909090909,-3.313607796333967,2.5836305618286133,0.5,-2.0513012059372278,30.96113657951355,10.0,1.9698773448773443,2.0,31.620963195018547,2.0
subject-02,1,483,0.71402907371521,cat,boat,128-3-10,128-3-10_boat_10_n03344393_6352.png,False,-1.245795412699663,2.5048041343688965,0.0909090909090909,-3.313607796333967,2.5836305618286133,0.5,-2.0513012059372278,30.96113657951355,10.0,1.9698773448773443,2.0,31.620963195018547,2.0
subject-01,1,311,0.915360927581787,chair,boat,128-3-10,128-3-10_boat_10_n03344393_6352.png,False,-0.086221967079488,2.5048041343688965,0.0909090909090909,-3.313607796333967,2.5836305618286133,0.5,-2.0513012059372278,30.96113657951355,10.0,1.9698773448773443,2.0,31.620963195018547,2.0
subject-04,1,59,1.50006198883057,bear,chair,16-3-10,16-3-10_chair_10_n04429376_17917.png,False,1.5472734341652128,1.7241721153259275,0.125,-3.7893654905280627,2.491037368774414,0.0666666666666666,-3.8251733492263384,29.18214511871338,10.0,1.0081709956709952,0.0,38.79326344068909,6.0
subject-03,1,558,1.28552412986755,oven,chair,16-3-10,16-3-10_chair_10_n04429376_17917.png,False,1.7133758629899842,1.7241721153259275,0.125,-3.7893654905280627,2.491037368774414,0.0666666666666666,-3.8251733492263384,29.18214511871338,10.0,1.0081709956709952,0.0,38.79326344068909,6.0
subject-02,1,469,1.07336497306824,chair,chair,16-3-10,16-3-10_chair_10_n04429376_17917.png,True,0.759690518244867,1.7241721153259275,0.125,-3.7893654905280627,2.491037368774414,0.0666666666666666,-3.8251733492263384,29.18214511871338,10.0,1.0081709956709952,0.0,38.79326344068909,6.0
subject-01,1,164,0.929602861404419,bear,chair,16-3-10,16-3-10_chair_10_n04429376_17917.png,False,-0.016342107195581695,1.7241721153259275,0.125,-3.7893654905280627,2.491037368774414,0.0666666666666666,-3.8251733492263384,29.18214511871338,10.0,1.0081709956709952,0.0,38.79326344068909,6.0
subject-04,1,60,1.391597032547,oven,bird,128-3-10,128-3-10_bird_10_n01560419_5447.png,False,1.1632233457681296,2.429356813430786,0.0909090909090909,-3.4919765473828153,2.4990954399108887,0.1111111111111111,-3.2050674428784354,30.680537700653076,10.0,0.3924714174714172,7.0,40.37348536990641,6.0
subject-03,1,531,0.798914909362793,bird,bird,128-3-10,128-3-10_bird_10_n01560419_5447.png,True,-0.73977933142005,2.429356813430786,0.0909090909090909,-3.4919765473828153,2.4990954399108887,0.1111111111111111,-3.2050674428784354,30.680537700653076,10.0,0.3924714174714172,7.0,40.37348536990641,6.0
subject-02,1,745,0.867121934890747,cat,bird,128-3-10,128-3-10_bird_10_n01560419_5447.png,False,-0.3913704032075114,2.429356813430786,0.0909090909090909,-3.4919765473828153,2.4990954399108887,0.1111111111111111,-3.2050674428784354,30.680537700653076,10.0,0.3924714174714172,7.0,40.37348536990641,6.0
subject-01,1,842,0.891485929489136,boat,bird,128-3-10,128-3-10_bird_10_n01560419_5447.png,False,-0.2033676821362276,2.429356813430786,0.0909090909090909,-3.4919765473828153,2.4990954399108887,0.1111111111111111,-3.2050674428784354,30.680537700653076,10.0,0.3924714174714172,7.0,40.37348536990641,6.0
subject-04,1,61,1.02173590660095,elephant,car,64-3-10,64-3-10_car_10_n03100240_9101.png,False,-0.14637196483950318,2.143796443939209,0.0833333333333333,-3.6469626687760814,2.5321390628814697,0.0666666666666666,-3.887214342786496,30.58980441093445,10.0,0.04226190476190449,10.0,46.9240331632808,7.0
subject-03,1,1146,0.786665201187134,bear,car,64-3-10,64-3-10_car_10_n03100240_9101.png,False,-0.8015340906289974,2.143796443939209,0.0833333333333333,-3.6469626687760814,2.5321390628814697,0.0666666666666666,-3.887214342786496,30.58980441093445,10.0,0.04226190476190449,10.0,46.9240331632808,7.0
subject-02,1,961,0.683377027511597,cat,car,64-3-10,64-3-10_car_10_n03100240_9101.png,False,-1.4168672358230576,2.143796443939209,0.0833333333333333,-3.6469626687760814,2.5321390628814697,0.0666666666666666,-3.887214342786496,30.58980441093445,10.0,0.04226190476190449,10.0,46.9240331632808,7.0
subject-01,1,1003,1.22237706184387,bear,car,64-3-10,64-3-10_car_10_n03100240_9101.png,False,1.4201917483276048,2.143796443939209,0.0833333333333333,-3.6469626687760814,2.5321390628814697,0.0666666666666666,-3.887214342786496,30.58980441093445,10.0,0.04226190476190449,10.0,46.9240331632808,7.0
subject-04,1,62,1.28140711784363,cat,elephant,16-3-10,16-3-10_elephant_10_n02504013_4590.png,False,0.7730655664051873,2.606355905532837,0.1428571428571428,-2.7639797554034877,2.476245164871216,0.25,-2.4989425848021174,30.678000450134277,5.0,3.3975579975579975,1.0,30.17579051945367,0.0
subject-03,1,679,0.832525968551636,cat,elephant,16-3-10,16-3-10_elephant_10_n02504013_4590.png,False,-0.5703350608137406,2.606355905532837,0.1428571428571428,-2.7639797554034877,2.476245164871216,0.25,-2.4989425848021174,30.678000450134277,5.0,3.3975579975579975,1.0,30.17579051945367,0.0
subject-02,1,532,1.11088180541992,bird,elephant,16-3-10,16-3-10_elephant_10_n02504013_4590.png,False,0.9690753294768223,2.606355905532837,0.1428571428571428,-2.7639797554034877,2.476245164871216,0.25,-2.4989425848021174,30.678000450134277,5.0,3.3975579975579975,1.0,30.17579051945367,0.0
subject-01,1,637,0.988660097122192,bear,elephant,16-3-10,16-3-10_elephant_10_n02504013_4590.png,False,0.2734297319721239,2.606355905532837,0.1428571428571428,-2.7639797554034877,2.476245164871216,0.25,-2.4989425848021174,30.678000450134277,5.0,3.3975579975579975,1.0,30.17579051945367,0.0
subject-04,1,63,,na,bottle,16-3-10,16-3-10_bottle_10_n04557648_4470.png,False,,2.6115732192993164,0.5,-2.0888180206464533,2.5251946449279785,0.1111111111111111,-3.1369959532345293,30.991138696670532,4.0,1.3348595848595846,10.0,35.01831351740179,0.0
subject-03,1,409,1.14801001548767,bicycle,bottle,16-3-10,16-3-10_bottle_10_n04557648_4470.png,False,1.0201225299648238,2.6115732192993164,0.5,-2.0888180206464533,2.5251946449279785,0.1111111111111111,-3.1369959532345293,30.991138696670532,4.0,1.3348595848595846,10.0,35.01831351740179,0.0
subject-02,1,1,0.838385105133057,cat,bottle,16-3-10,16-3-10_bottle_10_n04557648_4470.png,False,-0.5517532313155803,2.6115732192993164,0.5,-2.0888180206464533,2.5251946449279785,0.1111111111111111,-3.1369959532345293,30.991138696670532,4.0,1.3348595848595846,10.0,35.01831351740179,0.0
subject-01,1,324,1.2343008518219,bear,bottle,16-3-10,16-3-10_bottle_10_n04557648_4470.png,False,1.4786973405685804,2.6115732192993164,0.5,-2.0888180206464533,2.5251946449279785,0.1111111111111111,-3.1369959532345293,30.991138696670532,4.0,1.3348595848595846,10.0,35.01831351740179,0.0
subject-04,1,64,1.42724013328552,keyboard,car,128-3-10,128-3-10_car_10_n02814533_5888.png,False,1.289427572998785,2.15523099899292,0.0625,-4.559152297384061,2.5375847816467285,0.0714285714285714,-3.938365581467079,30.45002508163452,10.0,0.04610805860805839,8.0,47.91175727510127,1.0
subject-03,1,379,1.02128791809082,keyboard,car,128-3-10,128-3-10_car_10_n02814533_5888.png,False,0.3812752611992339,2.15523099899292,0.0625,-4.559152297384061,2.5375847816467285,0.0714285714285714,-3.938365581467079,30.45002508163452,10.0,0.04610805860805839,8.0,47.91175727510127,1.0
subject-02,1,320,0.87296199798584,chair,car,128-3-10,128-3-10_car_10_n02814533_5888.png,False,-0.3587764865013747,2.15523099899292,0.0625,-4.559152297384061,2.5375847816467285,0.0714285714285714,-3.938365581467079,30.45002508163452,10.0,0.04610805860805839,8.0,47.91175727510127,1.0
subject-01,1,1019,1.25109386444092,cat,car,128-3-10,128-3-10_car_10_n02814533_5888.png,False,1.5610943930658314,2.15523099899292,0.0625,-4.559152297384061,2.5375847816467285,0.0714285714285714,-3.938365581467079,30.45002508163452,10.0,0.04610805860805839,8.0,47.91175727510127,1.0
subject-04,1,65,1.3828399181366,bottle,bear,16-3-10,16-3-10_bear_10_n02134084_9307.png,False,1.132216367305659,1.978548526763916,0.5,-2.221931019417393,2.4369874000549316,1.0,-1.5695611696688188,29.59561514854431,10.0,9.583333333333334,2.0,21.05199147482386,5.0
subject-03,1,246,0.833477973937988,cat,bear,16-3-10,16-3-10_bear_10_n02134084_9307.png,False,-0.5655356923262033,1.978548526763916,0.5,-2.221931019417393,2.4369874000549316,1.0,-1.5695611696688188,29.59561514854431,10.0,9.583333333333334,2.0,21.05199147482386,5.0
subject-02,1,338,1.00870585441589,bird,bear,16-3-10,16-3-10_bear_10_n02134084_9307.png,False,0.3988221691652679,1.978548526763916,0.5,-2.221931019417393,2.4369874000549316,1.0,-1.5695611696688188,29.59561514854431,10.0,9.583333333333334,2.0,21.05199147482386,5.0
subject-01,1,822,1.03128600120544,dog,bear,16-3-10,16-3-10_bear_10_n02134084_9307.png,False,0.4825791523990557,1.978548526763916,0.5,-2.221931019417393,2.4369874000549316,1.0,-1.5695611696688188,29.59561514854431,10.0,9.583333333333334,2.0,21.05199147482386,5.0
subject-04,1,66,1.2388858795166,bear,keyboard,64-3-10,64-3-10_keyboard_10_n03085013_24668.png,False,0.622507396303173,1.9043618440628052,0.0769230769230769,-4.264718323599521,2.508098840713501,0.0833333333333333,-3.80795805702378,30.03338325023651,10.0,0.8639110889110886,6.0,40.08173103749907,6.0
subject-03,1,659,0.798038959503174,bear,keyboard,64-3-10,64-3-10_keyboard_10_n03085013_24668.png,False,-0.7441952792846177,1.9043618440628052,0.0769230769230769,-4.264718323599521,2.508098840713501,0.0833333333333333,-3.80795805702378,30.03338325023651,10.0,0.8639110889110886,6.0,40.08173103749907,6.0
subject-02,1,127,0.773473978042603,cat,keyboard,64-3-10,64-3-10_keyboard_10_n03085013_24668.png,False,-0.9140280621244107,1.9043618440628052,0.0769230769230769,-4.264718323599521,2.508098840713501,0.0833333333333333,-3.80795805702378,30.03338325023651,10.0,0.8639110889110886,6.0,40.08173103749907,6.0
subject-01,1,725,0.953419923782349,bicycle,keyboard,64-3-10,64-3-10_keyboard_10_n03085013_24668.png,False,0.10051933890741901,1.9043618440628052,0.0769230769230769,-4.264718323599521,2.508098840713501,0.0833333333333333,-3.80795805702378,30.03338325023651,10.0,0.8639110889110886,6.0,40.08173103749907,6.0
subject-04,1,67,0.696424961090088,clock,clock,1-3-10,1-3-10_clock_10_n03196217_5399.png,True,-1.298225076303027,0.3810044229030609,1.0,-0.06230046501561932,2.581470012664795,0.1,-3.126549483285268,26.330241054296494,9.0,3.3986013986013983,8.0,31.577994497023045,6.0
subject-03,1,1202,0.771284103393555,clock,clock,1-3-10,1-3-10_clock_10_n03196217_5399.png,True,-0.8790752023837389,0.3810044229030609,1.0,-0.06230046501561932,2.581470012664795,0.1,-3.126549483285268,26.330241054296494,9.0,3.3986013986013983,8.0,31.577994497023045,6.0
subject-02,1,797,0.66123104095459,clock,clock,1-3-10,1-3-10_clock_10_n03196217_5399.png,True,-1.540465976018315,0.3810044229030609,1.0,-0.06230046501561932,2.581470012664795,0.1,-3.126549483285268,26.330241054296494,9.0,3.3986013986013983,8.0,31.577994497023045,6.0
subject-01,1,139,0.797302961349487,clock,clock,1-3-10,1-3-10_clock_10_n03196217_5399.png,True,-0.6654883954476735,0.3810044229030609,1.0,-0.06230046501561932,2.581470012664795,0.1,-3.126549483285268,26.330241054296494,9.0,3.3986013986013983,8.0,31.577994497023045,6.0
subject-04,1,68,1.17221117019653,clock,knife,8-3-10,8-3-10_knife_10_n03041632_94620.png,False,0.3864272015047958,1.1137763261795044,1.0,-0.27358213225070255,2.4452128410339355,0.0909090909090909,-3.420941705394502,28.68151032924652,10.0,4.033766233766234,9.0,26.546839579910625,5.0
subject-03,1,786,1.34817695617676,knife,knife,8-3-10,8-3-10_knife_10_n03041632_94620.png,True,2.029229118186175,1.1137763261795044,1.0,-0.27358213225070255,2.4452128410339355,0.0909090909090909,-3.420941705394502,28.68151032924652,10.0,4.033766233766234,9.0,26.546839579910625,5.0
subject-02,1,1260,1.34664607048035,knife,knife,8-3-10,8-3-10_knife_10_n03041632_94620.png,True,2.284896869850234,1.1137763261795044,1.0,-0.27358213225070255,2.4452128410339355,0.0909090909090909,-3.420941705394502,28.68151032924652,10.0,4.033766233766234,9.0,26.546839579910625,5.0
subject-01,1,817,0.790612936019897,oven,knife,8-3-10,8-3-10_knife_10_n03041632_94620.png,False,-0.698313855702841,1.1137763261795044,1.0,-0.27358213225070255,2.4452128410339355,0.0909090909090909,-3.420941705394502,28.68151032924652,10.0,4.033766233766234,9.0,26.546839579910625,5.0
subject-04,1,69,0.998054981231689,bear,dog,32-3-10,32-3-10_dog_10_n02108422_577.png,False,-0.23022081144404488,2.3040380477905273,0.3333333333333333,-2.0724379024334034,2.509671688079834,0.1666666666666666,-2.676849134411237,30.599706411361694,10.0,1.9301587301587297,8.0,32.567954310180994,0.0
subject-03,1,455,0.98110818862915,boat,dog,32-3-10,32-3-10_dog_10_n02108422_577.png,False,0.17871618939076528,2.3040380477905273,0.3333333333333333,-2.0724379024334034,2.509671688079834,0.1666666666666666,-2.676849134411237,30.599706411361694,10.0,1.9301587301587297,8.0,32.567954310180994,0.0
subject-02,1,34,0.864255905151367,bear,dog,32-3-10,32-3-10_dog_10_n02108422_577.png,False,-0.40736597261859403,2.3040380477905273,0.3333333333333333,-2.0724379024334034,2.509671688079834,0.1666666666666666,-2.676849134411237,30.599706411361694,10.0,1.9301587301587297,8.0,32.567954310180994,0.0
subject-01,1,888,0.799953937530518,boat,dog,32-3-10,32-3-10_dog_10_n02108422_577.png,False,-0.6524810436095656,2.3040380477905273,0.3333333333333333,-2.0724379024334034,2.509671688079834,0.1666666666666666,-2.676849134411237,30.599706411361694,10.0,1.9301587301587297,8.0,32.567954310180994,0.0
subject-04,1,70,0.965935945510864,bear,bear,1-3-10,1-3-10_bear_10_n02133161_2851.png,True,-0.34394711467107547,0.0488136075437068,1.0,-0.005525148528318827,2.345996618270874,1.0,-1.387144326845066,24.270387288182974,9.0,8.916666666666666,4.0,15.043031543822465,9.0
subject-03,1,213,1.20128798484802,bear,bear,1-3-10,1-3-10_bear_10_n02133161_2851.png,True,1.2887140851112466,0.0488136075437068,1.0,-0.005525148528318827,2.345996618270874,1.0,-1.387144326845066,24.270387288182974,9.0,8.916666666666666,4.0,15.043031543822465,9.0
subject-02,1,669,1.11152005195618,bear,bear,1-3-10,1-3-10_bear_10_n02133161_2851.png,True,0.9726374407249555,0.0488136075437068,1.0,-0.005525148528318827,2.345996618270874,1.0,-1.387144326845066,24.270387288182974,9.0,8.916666666666666,4.0,15.043031543822465,9.0
subject-01,1,589,1.02545213699341,bear,bear,1-3-10,1-3-10_bear_10_n02133161_2851.png,True,0.4539545555714426,0.0488136075437068,1.0,-0.005525148528318827,2.345996618270874,1.0,-1.387144326845066,24.270387288182974,9.0,8.916666666666666,4.0,15.043031543822465,9.0
subject-04,1,71,1.13208699226379,oven,elephant,4-3-10,4-3-10_elephant_10_n02504458_1933.png,False,0.24435648475050933,1.957943081855774,1.0,-1.163416061809276,2.480130195617676,0.25,-2.3198675136920723,29.796830773353577,10.0,4.208333333333333,1.0,27.26772551425015,0.0
subject-03,1,673,0.987445831298828,boat,elephant,4-3-10,4-3-10_elephant_10_n02504458_1933.png,False,0.21066630537769293,1.957943081855774,1.0,-1.163416061809276,2.480130195617676,0.25,-2.3198675136920723,29.796830773353577,10.0,4.208333333333333,1.0,27.26772551425015,0.0
subject-02,1,444,1.22402501106262,boat,elephant,4-3-10,4-3-10_elephant_10_n02504458_1933.png,False,1.600537723039324,1.957943081855774,1.0,-1.163416061809276,2.480130195617676,0.25,-2.3198675136920723,29.796830773353577,10.0,4.208333333333333,1.0,27.26772551425015,0.0
subject-01,1,357,0.800171852111816,boat,elephant,4-3-10,4-3-10_elephant_10_n02504458_1933.png,False,-0.6514118179975521,1.957943081855774,1.0,-1.163416061809276,2.480130195617676,0.25,-2.3198675136920723,29.796830773353577,10.0,4.208333333333333,1.0,27.26772551425015,0.0
subject-04,1,72,0.855453968048096,car,car,8-3-10,8-3-10_car_10_n02814533_3573.png,True,-0.7351390227739129,1.0959386825561523,1.0,-0.3469325943904272,2.463771343231201,0.0769230769230769,-3.6525906625463045,28.787779092788696,10.0,2.278683816183816,9.0,38.44779510160465,9.0
subject-03,1,897,0.681438207626343,car,car,8-3-10,8-3-10_car_10_n02814533_3573.png,True,-1.3320175565568326,1.0959386825561523,1.0,-0.3469325943904272,2.463771343231201,0.0769230769230769,-3.6525906625463045,28.787779092788696,10.0,2.278683816183816,9.0,38.44779510160465,9.0
subject-02,1,927,0.796700954437256,car,car,8-3-10,8-3-10_car_10_n02814533_3573.png,True,-0.7843962205474205,1.0959386825561523,1.0,-0.3469325943904272,2.463771343231201,0.0769230769230769,-3.6525906625463045,28.787779092788696,10.0,2.278683816183816,9.0,38.44779510160465,9.0
subject-01,1,674,0.667836904525757,car,car,8-3-10,8-3-10_car_10_n02814533_3573.png,True,-1.3007300714191872,1.0959386825561523,1.0,-0.3469325943904272,2.463771343231201,0.0769230769230769,-3.6525906625463045,28.787779092788696,10.0,2.278683816183816,9.0,38.44779510160465,9.0
subject-04,1,73,1.17930293083191,cat,oven,16-3-10,16-3-10_oven_10_n04111531_14758.png,False,0.4115375356830358,2.5367367267608643,0.0909090909090909,-3.57834814902499,2.495368242263794,0.0625,-4.5618695668075855,30.514761924743652,5.0,0.4794774669774668,6.0,40.41075515347674,6.0
subject-03,1,997,0.815768957138062,bear,oven,16-3-10,16-3-10_oven_10_n04111531_14758.png,False,-0.6548126002022394,2.5367367267608643,0.0909090909090909,-3.57834814902499,2.495368242263794,0.0625,-4.5618695668075855,30.514761924743652,5.0,0.4794774669774668,6.0,40.41075515347674,6.0
subject-02,1,418,0.856973886489868,bear,oven,16-3-10,16-3-10_oven_10_n04111531_14758.png,False,-0.44800757286172443,2.5367367267608643,0.0909090909090909,-3.57834814902499,2.495368242263794,0.0625,-4.5618695668075855,30.514761924743652,5.0,0.4794774669774668,6.0,40.41075515347674,6.0
subject-01,1,1230,0.892875194549561,boat,oven,16-3-10,16-3-10_oven_10_n04111531_14758.png,False,-0.196551076401841,2.5367367267608643,0.0909090909090909,-3.57834814902499,2.495368242263794,0.0625,-4.5618695668075855,30.514761924743652,5.0,0.4794774669774668,6.0,40.41075515347674,6.0
subject-04,1,74,0.763421058654785,chair,chair,1-3-10,1-3-10_chair_10_n04429376_18585.png,True,-1.0610069177974029,0.0351391434669494,1.0,-0.003832402756961347,2.5478944778442383,0.0666666666666666,-4.007421323897098,26.152597039937973,9.0,3.7164682539682534,8.0,29.325807318257443,9.0
subject-03,1,346,0.82750391960144,chair,chair,1-3-10,1-3-10_chair_10_n04429376_18585.png,True,-0.595652841385131,0.0351391434669494,1.0,-0.003832402756961347,2.5478944778442383,0.0666666666666666,-4.007421323897098,26.152597039937973,9.0,3.7164682539682534,8.0,29.325807318257443,9.0
subject-02,1,1020,0.852430820465088,chair,chair,1-3-10,1-3-10_chair_10_n04429376_18585.png,True,-0.47336283241818006,0.0351391434669494,1.0,-0.003832402756961347,2.5478944778442383,0.0666666666666666,-4.007421323897098,26.152597039937973,9.0,3.7164682539682534,8.0,29.325807318257443,9.0
subject-01,1,1256,0.683874845504761,chair,chair,1-3-10,1-3-10_chair_10_n04429376_18585.png,True,-1.2220378739692734,0.0351391434669494,1.0,-0.003832402756961347,2.5478944778442383,0.0666666666666666,-4.007421323897098,26.152597039937973,9.0,3.7164682539682534,8.0,29.325807318257443,9.0
subject-04,1,75,1.15487313270569,cat,oven,64-3-10,64-3-10_oven_10_n04111531_807.png,False,0.32503709857071383,2.4069607257843018,0.0625,-4.361782494045921,2.5263028144836426,0.0625,-4.629349447061377,30.876911878585815,10.0,0.2040043290043288,6.0,44.26987414637366,6.0
subject-03,1,503,0.942155122756958,car,oven,64-3-10,64-3-10_oven_10_n04111531_807.png,False,-0.017658872683566577,2.4069607257843018,0.0625,-4.361782494045921,2.5263028144836426,0.0625,-4.629349447061377,30.876911878585815,10.0,0.2040043290043288,6.0,44.26987414637366,6.0
subject-02,1,582,0.969722032546997,boat,oven,64-3-10,64-3-10_oven_10_n04111531_807.png,False,0.1812499576682386,2.4069607257843018,0.0625,-4.361782494045921,2.5263028144836426,0.0625,-4.629349447061377,30.876911878585815,10.0,0.2040043290043288,6.0,44.26987414637366,6.0
subject-01,1,916,1.03643798828125,airplane,oven,64-3-10,64-3-10_oven_10_n04111531_807.png,False,0.507858032322595,2.4069607257843018,0.0625,-4.361782494045921,2.5263028144836426,0.0625,-4.629349447061377,30.876911878585815,10.0,0.2040043290043288,6.0,44.26987414637366,6.0
subject-04,1,76,0.754781007766724,bicycle,bicycle,2-3-10,2-3-10_bicycle_10_n02835271_158.png,True,-1.091599400577187,0.0410180613398551,1.0,-0.004541801105367945,2.547821521759033,0.25,-2.2563155789639406,25.28723218291998,9.0,6.601190476190476,2.0,20.278486053223766,8.0
subject-03,1,1022,0.603219032287598,bicycle,bicycle,2-3-10,2-3-10_bicycle_10_n02835271_158.png,True,-1.726345835181869,0.0410180613398551,1.0,-0.004541801105367945,2.547821521759033,0.25,-2.2563155789639406,25.28723218291998,9.0,6.601190476190476,2.0,20.278486053223766,8.0
subject-02,1,991,0.829872846603394,bicycle,bicycle,2-3-10,2-3-10_bicycle_10_n02835271_158.png,True,-0.5992609107668617,0.0410180613398551,1.0,-0.004541801105367945,2.547821521759033,0.25,-2.2563155789639406,25.28723218291998,9.0,6.601190476190476,2.0,20.278486053223766,8.0
subject-01,1,305,1.06243896484375,bicycle,bicycle,2-3-10,2-3-10_bicycle_10_n02835271_158.png,True,0.6354351311674804,0.0410180613398551,1.0,-0.004541801105367945,2.547821521759033,0.25,-2.2563155789639406,25.28723218291998,9.0,6.601190476190476,2.0,20.278486053223766,8.0
subject-04,1,77,0.744683980941772,car,truck,4-3-10,4-3-10_truck_10_n04467665_58158.png,False,-1.1273507084423053,0.2546369135379791,1.0,-0.044750591753575736,2.5499956607818604,0.25,-2.523393496182792,26.559136539697647,9.0,4.602380952380952,7.0,24.32025753734483,9.0
subject-03,1,376,0.987818956375122,car,truck,4-3-10,4-3-10_truck_10_n04467665_58158.png,False,0.2125473501267539,0.2546369135379791,1.0,-0.044750591753575736,2.5499956607818604,0.25,-2.523393496182792,26.559136539697647,9.0,4.602380952380952,7.0,24.32025753734483,9.0
subject-02,1,329,1.11658596992493,truck,truck,4-3-10,4-3-10_truck_10_n04467665_58158.png,True,1.0009107839448765,0.2546369135379791,1.0,-0.044750591753575736,2.5499956607818604,0.25,-2.523393496182792,26.559136539697647,9.0,4.602380952380952,7.0,24.32025753734483,9.0
subject-01,1,1008,0.70746111869812,truck,truck,4-3-10,4-3-10_truck_10_n04467665_58158.png,True,-1.1063088243569033,0.2546369135379791,1.0,-0.044750591753575736,2.5499956607818604,0.25,-2.523393496182792,26.559136539697647,9.0,4.602380952380952,7.0,24.32025753734483,9.0
subject-04,1,78,1.09248900413513,truck,truck,8-3-10,8-3-10_truck_10_n03417042_25458.png,True,0.1041488881015068,1.8780677318573,0.25,-3.222772259012218,2.480313777923584,0.1428571428571428,-2.984188753434801,30.00580406188965,10.0,1.0794011544011541,10.0,35.168134693957505,0.0
subject-03,1,744,0.954100131988525,truck,truck,8-3-10,8-3-10_truck_10_n03417042_25458.png,True,0.04255980014244041,1.8780677318573,0.25,-3.222772259012218,2.480313777923584,0.1428571428571428,-2.984188753434801,30.00580406188965,10.0,1.0794011544011541,10.0,35.168134693957505,0.0
subject-02,1,1102,0.902628898620605,truck,truck,8-3-10,8-3-10_truck_10_n03417042_25458.png,True,-0.19320284928652404,1.8780677318573,0.25,-3.222772259012218,2.480313777923584,0.1428571428571428,-2.984188753434801,30.00580406188965,10.0,1.0794011544011541,10.0,35.168134693957505,0.0
subject-01,1,3,1.31108498573303,oven,truck,8-3-10,8-3-10_truck_10_n03417042_25458.png,False,1.8554484605948682,1.8780677318573,0.25,-3.222772259012218,2.480313777923584,0.1428571428571428,-2.984188753434801,30.00580406188965,10.0,1.0794011544011541,10.0,35.168134693957505,0.0
subject-04,1,79,1.10450196266174,car,car,8-3-10,8-3-10_car_10_n04285008_17059.png,True,0.14668408050036194,1.3034253120422363,1.0,-0.45986764184803003,2.4692625999450684,0.1,-3.5157307972491183,29.197805166244507,10.0,1.6716783216783215,10.0,39.61695644264764,10.0
subject-03,1,1138,0.808068037033081,car,car,8-3-10,8-3-10_car_10_n04285008_17059.png,True,-0.6936354407100179,1.3034253120422363,1.0,-0.45986764184803003,2.4692625999450684,0.1,-3.5157307972491183,29.197805166244507,10.0,1.6716783216783215,10.0,39.61695644264764,10.0
subject-02,1,210,0.763603925704956,car,car,8-3-10,8-3-10_car_10_n04285008_17059.png,True,-0.9691137107792649,1.3034253120422363,1.0,-0.45986764184803003,2.4692625999450684,0.1,-3.5157307972491183,29.197805166244507,10.0,1.6716783216783215,10.0,39.61695644264764,10.0
subject-01,1,983,0.862027883529663,car,car,8-3-10,8-3-10_car_10_n04285008_17059.png,True,-0.34790733171881666,1.3034253120422363,1.0,-0.45986764184803003,2.4692625999450684,0.1,-3.5157307972491183,29.197805166244507,10.0,1.6716783216783215,10.0,39.61695644264764,10.0
subject-04,1,80,1.50014400482178,oven,airplane,16-3-10,16-3-10_airplane_10_n02690373_7600.png,False,1.547563834399108,2.519968032836914,1.0,-1.4711954693108809,2.5056047439575195,0.25,-2.2815470358353753,30.762251138687134,9.0,2.5976301476301478,9.0,33.14483330146259,9.0
subject-03,1,1278,0.94897198677063,boat,airplane,16-3-10,16-3-10_airplane_10_n02690373_7600.png,False,0.01670715381173858,2.519968032836914,1.0,-1.4711954693108809,2.5056047439575195,0.25,-2.2815470358353753,30.762251138687134,9.0,2.5976301476301478,9.0,33.14483330146259,9.0
subject-02,1,1112,0.912868022918701,boat,airplane,16-3-10,16-3-10_airplane_10_n02690373_7600.png,False,-0.1360573768692257,2.519968032836914,1.0,-1.4711954693108809,2.5056047439575195,0.25,-2.2815470358353753,30.762251138687134,9.0,2.5976301476301478,9.0,33.14483330146259,9.0
subject-01,1,163,1.50008893013,boat,airplane,16-3-10,16-3-10_airplane_10_n02690373_7600.png,False,2.7828203552021615,2.519968032836914,1.0,-1.4711954693108809,2.5056047439575195,0.25,-2.2815470358353753,30.762251138687134,9.0,2.5976301476301478,9.0,33.14483330146259,9.0
subject-04,1,81,0.801291942596436,oven,chair,64-3-10,64-3-10_chair_10_n04099969_3430.png,False,-0.9269146097947871,2.416381597518921,0.1,-3.270962855135502,2.5425617694854736,0.0666666666666666,-3.9211885114668155,30.779765129089355,10.0,0.7400183150183145,0.0,39.282289462427315,7.0
subject-03,1,1059,0.814555883407593,bear,chair,64-3-10,64-3-10_chair_10_n04099969_3430.png,False,-0.6609280990413602,2.416381597518921,0.1,-3.270962855135502,2.5425617694854736,0.0666666666666666,-3.9211885114668155,30.779765129089355,10.0,0.7400183150183145,0.0,39.282289462427315,7.0
subject-02,1,1097,0.811903953552246,cat,chair,64-3-10,64-3-10_chair_10_n04099969_3430.png,False,-0.6995469169065386,2.416381597518921,0.1,-3.270962855135502,2.5425617694854736,0.0666666666666666,-3.9211885114668155,30.779765129089355,10.0,0.7400183150183145,0.0,39.282289462427315,7.0
subject-01,1,1024,1.0485508441925,bear,chair,64-3-10,64-3-10_chair_10_n04099969_3430.png,False,0.5672913006142231,2.416381597518921,0.1,-3.270962855135502,2.5425617694854736,0.0666666666666666,-3.9211885114668155,30.779765129089355,10.0,0.7400183150183145,0.0,39.282289462427315,7.0
subject-04,1,82,1.23715806007385,oven,bear,32-3-10,32-3-10_bear_10_n02132136_1795.png,False,0.6163895750965939,2.21084976196289,0.5,-2.174324757287461,2.490877151489258,1.0,-1.6569600321350324,30.110065937042236,10.0,9.75,2.0,21.393112584032554,9.0
subject-03,1,325,1.14942598342896,bear,bear,32-3-10,32-3-10_bear_10_n02132136_1795.png,True,1.0272608844470723,2.21084976196289,0.5,-2.174324757287461,2.490877151489258,1.0,-1.6569600321350324,30.110065937042236,10.0,9.75,2.0,21.393112584032554,9.0
subject-02,1,712,0.885508060455322,boat,bear,32-3-10,32-3-10_bear_10_n02132136_1795.png,False,-0.2887557849332909,2.21084976196289,0.5,-2.174324757287461,2.490877151489258,1.0,-1.6569600321350324,30.110065937042236,10.0,9.75,2.0,21.393112584032554,9.0
subject-01,1,244,0.951916933059692,bear,bear,32-3-10,32-3-10_bear_10_n02132136_1795.png,True,0.09314472374531409,2.21084976196289,0.5,-2.174324757287461,2.490877151489258,1.0,-1.6569600321350324,30.110065937042236,10.0,9.75,2.0,21.393112584032554,9.0
subject-04,1,83,1.49464797973633,oven,chair,64-3-10,64-3-10_chair_10_n04099969_13789.png,False,1.5281036419810023,2.455573081970215,0.1111111111111111,-3.2543433490828226,2.490018129348755,0.0714285714285714,-4.001347044761145,30.692346334457397,10.0,1.0979548229548228,0.0,38.204992522961795,6.0
subject-03,1,975,0.870074987411499,bear,chair,64-3-10,64-3-10_chair_10_n04099969_13789.png,False,-0.38103825594529916,2.455573081970215,0.1111111111111111,-3.2543433490828226,2.490018129348755,0.0714285714285714,-4.001347044761145,30.692346334457397,10.0,1.0979548229548228,0.0,38.204992522961795,6.0
subject-02,1,1140,1.00571608543396,clock,chair,64-3-10,64-3-10_chair_10_n04099969_13789.png,False,0.3821359999268743,2.455573081970215,0.1111111111111111,-3.2543433490828226,2.490018129348755,0.0714285714285714,-4.001347044761145,30.692346334457397,10.0,1.0979548229548228,0.0,38.204992522961795,6.0
subject-01,1,1106,0.850929021835327,cat,chair,64-3-10,64-3-10_chair_10_n04099969_13789.png,False,-0.40236530840443785,2.455573081970215,0.1111111111111111,-3.2543433490828226,2.490018129348755,0.0714285714285714,-4.001347044761145,30.692346334457397,10.0,1.0979548229548228,0.0,38.204992522961795,6.0
subject-04,1,84,0.766871929168701,boat,boat,2-3-10,2-3-10_boat_10_n03344393_10038.png,True,-1.0487881591187802,0.0492502525448799,1.0,-0.005725710750573185,2.349554538726806,1.0,-1.5016986204193727,25.11674329638481,9.0,7.642857142857142,4.0,21.008308606948297,9.0
subject-03,1,594,0.832826852798462,boat,boat,2-3-10,2-3-10_boat_10_n03344393_10038.png,True,-0.5688182055592269,0.0492502525448799,1.0,-0.005725710750573185,2.349554538726806,1.0,-1.5016986204193727,25.11674329638481,9.0,7.642857142857142,4.0,21.008308606948297,9.0
subject-02,1,106,1.21116018295288,car,boat,2-3-10,2-3-10_boat_10_n03344393_10038.png,False,1.5287379618004504,0.0492502525448799,1.0,-0.005725710750573185,2.349554538726806,1.0,-1.5016986204193727,25.11674329638481,9.0,7.642857142857142,4.0,21.008308606948297,9.0
subject-01,1,142,0.936671018600464,boat,boat,2-3-10,2-3-10_boat_10_n03344393_10038.png,True,0.018338705160964763,0.0492502525448799,1.0,-0.005725710750573185,2.349554538726806,1.0,-1.5016986204193727,25.11674329638481,9.0,7.642857142857142,4.0,21.008308606948297,9.0
subject-04,1,85,0.920841932296753,truck,truck,1-3-10,1-3-10_truck_10_n03417042_3845.png,True,-0.5036149037381873,0.2906391620635986,1.0,-0.04495126043165458,2.459691286087036,0.1666666666666666,-2.6724686330420204,26.868163108825684,9.0,4.026190476190476,8.0,25.38488746515915,9.0
subject-03,1,1195,0.907408952713013,truck,truck,1-3-10,1-3-10_truck_10_n03417042_3845.png,True,-0.19282560594180884,0.2906391620635986,1.0,-0.04495126043165458,2.459691286087036,0.1666666666666666,-2.6724686330420204,26.868163108825684,9.0,4.026190476190476,8.0,25.38488746515915,9.0
subject-02,1,580,1.20248293876648,truck,truck,1-3-10,1-3-10_truck_10_n03417042_3845.png,True,1.4803094825794005,0.2906391620635986,1.0,-0.04495126043165458,2.459691286087036,0.1666666666666666,-2.6724686330420204,26.868163108825684,9.0,4.026190476190476,8.0,25.38488746515915,9.0
subject-01,1,198,1.11120104789734,car,truck,1-3-10,1-3-10_truck_10_n03417042_3845.png,False,0.8746924942383163,0.2906391620635986,1.0,-0.04495126043165458,2.459691286087036,0.1666666666666666,-2.6724686330420204,26.868163108825684,9.0,4.026190476190476,8.0,25.38488746515915,9.0
subject-04,1,86,0.730173110961914,bicycle,airplane,64-3-10,64-3-10_airplane_10_n02690373_2162.png,False,-1.1787304451741702,2.6458964347839355,0.0909090909090909,-3.211292878035934,2.5571975708007812,0.2,-2.339138482487636,31.200862407684326,10.0,0.7504329004329003,3.0,35.473865168561304,7.0
subject-03,1,510,0.900752067565918,bear,airplane,64-3-10,64-3-10_airplane_10_n02690373_2162.png,False,-0.22638512698879568,2.6458964347839355,0.0909090909090909,-3.211292878035934,2.5571975708007812,0.2,-2.339138482487636,31.200862407684326,10.0,0.7504329004329003,3.0,35.473865168561304,7.0
subject-02,1,617,0.895295858383179,cat,airplane,64-3-10,64-3-10_airplane_10_n02690373_2162.png,False,-0.2341292055278182,2.6458964347839355,0.0909090909090909,-3.211292878035934,2.5571975708007812,0.2,-2.339138482487636,31.200862407684326,10.0,0.7504329004329003,3.0,35.473865168561304,7.0
subject-01,1,788,0.827544927597046,oven,airplane,64-3-10,64-3-10_airplane_10_n02690373_2162.png,False,-0.5171023412564243,2.6458964347839355,0.0909090909090909,-3.211292878035934,2.5571975708007812,0.2,-2.339138482487636,31.200862407684326,10.0,0.7504329004329003,3.0,35.473865168561304,7.0
subject-04,1,87,1.09441494941711,oven,cat,32-3-10,32-3-10_cat_10_n02123045_7240.png,False,0.11096822847775327,1.6326888799667358,0.25,-3.338402744113456,2.4205923080444336,0.125,-3.045075900773296,29.01770842075348,9.0,2.0194444444444444,7.0,35.04532296985253,5.0
subject-03,1,177,1.11800408363342,bear,cat,32-3-10,32-3-10_cat_10_n02123045_7240.png,False,0.868852877665567,1.6326888799667358,0.25,-3.338402744113456,2.4205923080444336,0.125,-3.045075900773296,29.01770842075348,9.0,2.0194444444444444,7.0,35.04532296985253,5.0
subject-02,1,1163,0.877047777175903,cat,cat,32-3-10,32-3-10_cat_10_n02123045_7240.png,True,-0.33597338584438424,1.6326888799667358,0.25,-3.338402744113456,2.4205923080444336,0.125,-3.045075900773296,29.01770842075348,9.0,2.0194444444444444,7.0,35.04532296985253,5.0
subject-01,1,748,0.877254962921143,knife,cat,32-3-10,32-3-10_cat_10_n02123045_7240.png,False,-0.2731937297902058,1.6326888799667358,0.25,-3.338402744113456,2.4205923080444336,0.125,-3.045075900773296,29.01770842075348,9.0,2.0194444444444444,7.0,35.04532296985253,5.0
subject-04,1,88,0.94380521774292,bear,elephant,64-3-10,64-3-10_elephant_10_n02504458_6132.png,False,-0.4223070591802508,1.8043118715286257,0.0769230769230769,-4.329918132106697,2.4618639945983887,0.3333333333333333,-2.1650907428124277,29.483822226524353,10.0,3.103943278943279,1.0,31.808062248201864,0.0
subject-03,1,1114,0.800178050994873,cat,elephant,64-3-10,64-3-10_elephant_10_n02504458_6132.png,False,-0.7334114240203535,1.8043118715286257,0.0769230769230769,-4.329918132106697,2.4618639945983887,0.3333333333333333,-2.1650907428124277,29.483822226524353,10.0,3.103943278943279,1.0,31.808062248201864,0.0
subject-02,1,826,0.904186964035034,bird,elephant,64-3-10,64-3-10_elephant_10_n02504458_6132.png,False,-0.1845071462583703,1.8043118715286257,0.0769230769230769,-4.329918132106697,2.4618639945983887,0.3333333333333333,-2.1650907428124277,29.483822226524353,10.0,3.103943278943279,1.0,31.808062248201864,0.0
subject-01,1,724,0.877650022506714,boat,elephant,64-3-10,64-3-10_elephant_10_n02504458_6132.png,False,-0.2712553196817679,1.8043118715286257,0.0769230769230769,-4.329918132106697,2.4618639945983887,0.3333333333333333,-2.1650907428124277,29.483822226524353,10.0,3.103943278943279,1.0,31.808062248201864,0.0
subject-04,1,89,0.761610984802246,cat,clock,16-3-10,16-3-10_clock_10_n04548280_8171.png,False,-1.0674159834246038,2.4380042552948,0.1666666666666666,-2.833347798821726,2.497251033782959,0.1,-3.4149736241052144,30.662490129470825,10.0,0.3440836940836937,10.0,41.34488173277814,6.0
subject-03,1,1098,0.889281988143921,dog,clock,16-3-10,16-3-10_clock_10_n04548280_8171.png,False,-0.28420952432590374,2.4380042552948,0.1666666666666666,-2.833347798821726,2.497251033782959,0.1,-3.4149736241052144,30.662490129470825,10.0,0.3440836940836937,10.0,41.34488173277814,6.0
subject-02,1,413,1.27381587028503,bottle,clock,16-3-10,16-3-10_clock_10_n04548280_8171.png,False,1.8784249807276525,2.4380042552948,0.1666666666666666,-2.833347798821726,2.497251033782959,0.1,-3.4149736241052144,30.662490129470825,10.0,0.3440836940836937,10.0,41.34488173277814,6.0
subject-01,1,953,1.32773900032043,bottle,clock,16-3-10,16-3-10_clock_10_n04548280_8171.png,False,1.9371635015693365,2.4380042552948,0.1666666666666666,-2.833347798821726,2.497251033782959,0.1,-3.4149736241052144,30.662490129470825,10.0,0.3440836940836937,10.0,41.34488173277814,6.0
