subject_id,Session,trial,rt,object_response,category,condition,item_id,response_correct,rt_zscore,output_entropy,output_rank_correct,output_logprob_correct,midpoint_entropy,midpoint_rank_correct,midpoint_logprob_correct,auc_entropy,layer_biggest_change_entropy,auc_rank_correct,layer_biggest_change_rank_correct,auc_logprob_correct,layer_biggest_change_logprob_correct
subject-04,1,1,1.03202104568481,boat,chair,0.45,0.45_chair_10_n04429376_694.png,False,-0.12754140506929082,2.118889331817627,0.5,-1.5852567308753447,1.3226773738861084,0.125,-4.8143692353342304,26.15731167793274,4.0,0.6978687978687976,10.0,45.629043617820216,10.0
subject-03,1,323,0.862236976623535,clock,chair,0.45,0.45_chair_10_n04429376_694.png,False,-0.502406633079731,2.118889331817627,0.5,-1.5852567308753447,1.3226773738861084,0.125,-4.8143692353342304,26.15731167793274,4.0,0.6978687978687976,10.0,45.629043617820216,10.0
subject-02,1,770,0.98894190788269,elephant,chair,0.45,0.45_chair_10_n04429376_694.png,False,0.3455862489438006,2.118889331817627,0.5,-1.5852567308753447,1.3226773738861084,0.125,-4.8143692353342304,26.15731167793274,4.0,0.6978687978687976,10.0,45.629043617820216,10.0
subject-01,1,243,0.827551126480103,bird,chair,0.45,0.45_chair_10_n04429376_694.png,False,-0.05794645445824784,2.118889331817627,0.5,-1.5852567308753447,1.3226773738861084,0.125,-4.8143692353342304,26.15731167793274,4.0,0.6978687978687976,10.0,45.629043617820216,10.0
subject-04,1,2,0.95622992515564,truck,truck,1.5,1.5_truck_10_n04467665_38886.png,True,-0.44587809636837006,1.5085688829421997,0.3333333333333333,-2.3602100640741344,1.849506974220276,0.0769230769230769,-4.464905939562251,26.740339517593384,10.0,1.0744560994560992,9.0,42.706033353528724,6.0
subject-03,1,636,0.86385703086853,truck,truck,1.5,1.5_truck_10_n04467665_38886.png,True,-0.49510850213421165,1.5085688829421997,0.3333333333333333,-2.3602100640741344,1.849506974220276,0.0769230769230769,-4.464905939562251,26.740339517593384,10.0,1.0744560994560992,9.0,42.706033353528724,6.0
subject-02,1,548,0.819823980331421,truck,truck,1.5,1.5_truck_10_n04467665_38886.png,True,-0.42019707402990175,1.5085688829421997,0.3333333333333333,-2.3602100640741344,1.849506974220276,0.0769230769230769,-4.464905939562251,26.740339517593384,10.0,1.0744560994560992,9.0,42.706033353528724,6.0
subject-01,1,257,0.983031034469604,truck,truck,1.5,1.5_truck_10_n04467665_38886.png,True,0.6114592204555905,1.5085688829421997,0.3333333333333333,-2.3602100640741344,1.849506974220276,0.0769230769230769,-4.464905939562251,26.740339517593384,10.0,1.0744560994560992,9.0,42.706033353528724,6.0
subject-04,1,3,0.958188056945801,clock,bird,0.45,0.45_bird_10_n01797886_3046.png,False,-0.437653581532658,1.6607685089111328,0.1666666666666666,-3.418438717090506,1.441246747970581,0.1,-4.997750367193333,26.537400007247925,10.0,0.6269591519591516,9.0,43.10922224993001,6.0
subject-03,1,608,1.16512203216553,truck,bird,0.45,0.45_bird_10_n01797886_3046.png,False,0.8620506396415193,1.6607685089111328,0.1666666666666666,-3.418438717090506,1.441246747970581,0.1,-4.997750367193333,26.537400007247925,10.0,0.6269591519591516,9.0,43.10922224993001,6.0
subject-02,1,325,0.656240940093994,bear,bird,0.45,0.45_bird_10_n01797886_3046.png,False,-1.1609178595136387,1.6607685089111328,0.1666666666666666,-3.418438717090506,1.441246747970581,0.1,-4.997750367193333,26.537400007247925,10.0,0.6269591519591516,9.0,43.10922224993001,6.0
subject-01,1,1052,0.626415014266968,bicycle,bird,0.45,0.45_bird_10_n01797886_3046.png,False,-0.9239210790037612,1.6607685089111328,0.1666666666666666,-3.418438717090506,1.441246747970581,0.1,-4.997750367193333,26.537400007247925,10.0,0.6269591519591516,9.0,43.10922224993001,6.0
subject-04,1,4,0.917410850524902,dog,dog,1.0,1_dog_10_n02105505_7816.png,True,-0.6089253727638293,1.070333480834961,1.0,-0.7160964234896909,1.6586406230926514,0.0769230769230769,-4.879812417054337,26.489991307258606,10.0,1.7146936396936394,10.0,40.892470492495775,10.0
subject-03,1,16,1.00289916992188,dog,dog,1.0,1_dog_10_n02105505_7816.png,True,0.1312580166977438,1.070333480834961,1.0,-0.7160964234896909,1.6586406230926514,0.0769230769230769,-4.879812417054337,26.489991307258606,10.0,1.7146936396936394,10.0,40.892470492495775,10.0
subject-02,1,205,1.15205812454224,dog,dog,1.0,1_dog_10_n02105505_7816.png,True,1.0841932093831723,1.070333480834961,1.0,-0.7160964234896909,1.6586406230926514,0.0769230769230769,-4.879812417054337,26.489991307258606,10.0,1.7146936396936394,10.0,40.892470492495775,10.0
subject-01,1,1212,,na,dog,1.0,1_dog_10_n02105505_7816.png,False,,1.070333480834961,1.0,-0.7160964234896909,1.6586406230926514,0.0769230769230769,-4.879812417054337,26.489991307258606,10.0,1.7146936396936394,10.0,40.892470492495775,10.0
subject-04,1,5,0.845407962799072,bicycle,bicycle,0.7,0.7_bicycle_10_n02835271_4656.png,True,-0.9113507872792149,1.9097049236297607,0.5,-1.7170015493858386,1.554314136505127,0.2,-3.3310057451097834,26.929682731628418,10.0,1.5297979797979797,10.0,33.59351894123231,10.0
subject-03,1,740,0.981725931167603,bicycle,bicycle,0.7,0.7_bicycle_10_n02835271_4656.png,True,0.035875365501434595,1.9097049236297607,0.5,-1.7170015493858386,1.554314136505127,0.2,-3.3310057451097834,26.929682731628418,10.0,1.5297979797979797,10.0,33.59351894123231,10.0
subject-02,1,63,1.32492804527283,bicycle,bicycle,0.7,0.7_bicycle_10_n02835271_4656.png,True,1.866965942327997,1.9097049236297607,0.5,-1.7170015493858386,1.554314136505127,0.2,-3.3310057451097834,26.929682731628418,10.0,1.5297979797979797,10.0,33.59351894123231,10.0
subject-01,1,435,1.05505299568176,boat,bicycle,0.7,0.7_bicycle_10_n02835271_4656.png,False,0.9215437206155541,1.9097049236297607,0.5,-1.7170015493858386,1.554314136505127,0.2,-3.3310057451097834,26.929682731628418,10.0,1.5297979797979797,10.0,33.59351894123231,10.0
subject-04,1,6,0.875,car,car,1.0,1_car_10_n04285008_5788.png,True,-0.7870587706739575,0.6253973245620728,0.1111111111111111,-5.2885433960130985,1.7791239023208618,0.0833333333333333,-4.683300675790499,26.004218816757202,10.0,0.775274725274725,8.0,47.95208380942353,6.0
subject-03,1,122,0.982913970947266,car,car,1.0,1_car_10_n04285008_5788.png,True,0.041227328194815296,0.6253973245620728,0.1111111111111111,-5.2885433960130985,1.7791239023208618,0.0833333333333333,-4.683300675790499,26.004218816757202,10.0,0.775274725274725,8.0,47.95208380942353,6.0
subject-02,1,749,0.879189014434814,car,car,1.0,1_car_10_n04285008_5788.png,True,-0.15138611032907356,0.6253973245620728,0.1111111111111111,-5.2885433960130985,1.7791239023208618,0.0833333333333333,-4.683300675790499,26.004218816757202,10.0,0.775274725274725,8.0,47.95208380942353,6.0
subject-01,1,1224,0.569567918777466,car,car,1.0,1_car_10_n04285008_5788.png,True,-1.1686714703251344,0.6253973245620728,0.1111111111111111,-5.2885433960130985,1.7791239023208618,0.0833333333333333,-4.683300675790499,26.004218816757202,10.0,0.775274725274725,8.0,47.95208380942353,6.0
subject-04,1,7,1.25690698623657,cat,bear,0.45,0.45_bear_10_n02134418_7067.png,False,0.8170210414956178,1.518646001815796,0.3333333333333333,-2.540781673897886,1.385990023612976,0.125,-4.5960476383314015,25.83651292324066,10.0,1.4702380952380947,9.0,38.81962913760621,6.0
subject-03,1,76,0.725682020187378,bear,bear,0.45,0.45_bear_10_n02134418_7067.png,True,-1.117568721886104,1.518646001815796,0.3333333333333333,-2.540781673897886,1.385990023612976,0.125,-4.5960476383314015,25.83651292324066,10.0,1.4702380952380947,9.0,38.81962913760621,6.0
subject-02,1,299,0.53410005569458,bear,bear,0.45,0.45_bear_10_n02134418_7067.png,True,-1.7139843124949468,1.518646001815796,0.3333333333333333,-2.540781673897886,1.385990023612976,0.125,-4.5960476383314015,25.83651292324066,10.0,1.4702380952380947,9.0,38.81962913760621,6.0
subject-01,1,1177,0.635467052459717,cat,bear,0.45,0.45_bear_10_n02134418_7067.png,False,-0.8849482894381012,1.518646001815796,0.3333333333333333,-2.540781673897886,1.385990023612976,0.125,-4.5960476383314015,25.83651292324066,10.0,1.4702380952380947,9.0,38.81962913760621,6.0
subject-04,1,8,1.30092215538025,car,dog,0.55,0.55_dog_10_n02109525_13146.png,False,1.0018928736355803,1.3300328254699707,0.1111111111111111,-4.996286559811069,1.6380338668823242,0.0714285714285714,-4.945494690289577,26.76806640625,10.0,0.3737845487845486,8.0,45.957681752860886,6.0
subject-03,1,873,1.49195694923401,car,dog,0.55,0.55_dog_10_n02109525_13146.png,False,2.334398883351757,1.3300328254699707,0.1111111111111111,-4.996286559811069,1.6380338668823242,0.0714285714285714,-4.945494690289577,26.76806640625,10.0,0.3737845487845486,8.0,45.957681752860886,6.0
subject-02,1,364,1.15280389785767,truck,dog,0.55,0.55_dog_10_n02109525_13146.png,False,1.087570147452035,1.3300328254699707,0.1111111111111111,-4.996286559811069,1.6380338668823242,0.0714285714285714,-4.945494690289577,26.76806640625,10.0,0.3737845487845486,8.0,45.957681752860886,6.0
subject-01,1,1097,0.689648866653442,clock,dog,0.55,0.55_dog_10_n02109525_13146.png,False,-0.6516730427042542,1.3300328254699707,0.1111111111111111,-4.996286559811069,1.6380338668823242,0.0714285714285714,-4.945494690289577,26.76806640625,10.0,0.3737845487845486,8.0,45.957681752860886,6.0
subject-04,1,9,0.89652681350708,bear,bear,3.0,3_bear_10_n02134418_47.png,True,-0.696642181788473,1.0722942352294922,1.0,-0.35590831342563717,2.02378511428833,0.1428571428571428,-3.188298402283552,27.38637888431549,10.0,2.7023809523809517,10.0,30.729627589696786,10.0
subject-03,1,460,0.738322973251343,cat,bear,3.0,3_bear_10_n02134418_47.png,False,-1.060622893669553,1.0722942352294922,1.0,-0.35590831342563717,2.02378511428833,0.1428571428571428,-3.188298402283552,27.38637888431549,10.0,2.7023809523809517,10.0,30.729627589696786,10.0
subject-02,1,422,1.10340118408203,dog,bear,3.0,3_bear_10_n02134418_47.png,False,0.8638695920655608,1.0722942352294922,1.0,-0.35590831342563717,2.02378511428833,0.1428571428571428,-3.188298402283552,27.38637888431549,10.0,2.7023809523809517,10.0,30.729627589696786,10.0
subject-01,1,329,0.782505035400391,elephant,bear,3.0,3_bear_10_n02134418_47.png,False,-0.2518886132321072,1.0722942352294922,1.0,-0.35590831342563717,2.02378511428833,0.1428571428571428,-3.188298402283552,27.38637888431549,10.0,2.7023809523809517,10.0,30.729627589696786,10.0
subject-04,1,10,0.854450941085815,car,oven,0.55,0.55_oven_10_n04111531_2371.png,False,-0.8733686098527284,1.7795368432998655,0.1666666666666666,-3.699892889081943,1.4424231052398682,0.0625,-8.139806699468071,26.064310550689697,10.0,0.238629426129426,10.0,63.46531442870244,6.0
subject-03,1,310,1.3865978717804,airplane,oven,0.55,0.55_oven_10_n04111531_2371.png,False,1.8597701195735863,1.7795368432998655,0.1666666666666666,-3.699892889081943,1.4424231052398682,0.0625,-8.139806699468071,26.064310550689697,10.0,0.238629426129426,10.0,63.46531442870244,6.0
subject-02,1,581,0.923257112503052,bear,oven,0.55,0.55_oven_10_n04111531_2371.png,False,0.04815875794395918,1.7795368432998655,0.1666666666666666,-3.699892889081943,1.4424231052398682,0.0625,-8.139806699468071,26.064310550689697,10.0,0.238629426129426,10.0,63.46531442870244,6.0
subject-01,1,634,1.22110199928284,bird,oven,0.55,0.55_oven_10_n04111531_2371.png,False,1.6364537482948676,1.7795368432998655,0.1666666666666666,-3.699892889081943,1.4424231052398682,0.0625,-8.139806699468071,26.064310550689697,10.0,0.238629426129426,10.0,63.46531442870244,6.0
subject-04,1,11,0.950107097625732,bird,bird,1.5,1.5_bird_10_n01843065_6365.png,True,-0.4715951017861177,0.3163554966449737,1.0,-0.053807451612235706,1.6790623664855957,0.125,-4.096633935386683,25.637635976076126,10.0,1.984163059163059,10.0,36.75772497802918,10.0
subject-03,1,3,0.76135778427124,bird,bird,1.5,1.5_bird_10_n01843065_6365.png,True,-0.9568541046627268,0.3163554966449737,1.0,-0.053807451612235706,1.6790623664855957,0.125,-4.096633935386683,25.637635976076126,10.0,1.984163059163059,10.0,36.75772497802918,10.0
subject-02,1,677,0.84082818031311,bird,bird,1.5,1.5_bird_10_n01843065_6365.png,True,-0.32508790203803334,0.3163554966449737,1.0,-0.053807451612235706,1.6790623664855957,0.125,-4.096633935386683,25.637635976076126,10.0,1.984163059163059,10.0,36.75772497802918,10.0
subject-01,1,415,0.686517953872681,bird,bird,1.5,1.5_bird_10_n01843065_6365.png,True,-0.6651529245115115,0.3163554966449737,1.0,-0.053807451612235706,1.6790623664855957,0.125,-4.096633935386683,25.637635976076126,10.0,1.984163059163059,10.0,36.75772497802918,10.0
subject-04,1,12,1.22811484336853,car,boat,0.4,0.4_boat_10_n03344393_4509.png,False,0.696088728686037,1.6481645107269287,0.1111111111111111,-4.212389793965694,1.6416702270507812,0.25,-2.8870884898008193,26.663055419921875,10.0,2.1464646464646466,1.0,30.885726300715035,5.0
subject-03,1,709,1.40775609016418,car,boat,0.4,0.4_boat_10_n03344393_4509.png,False,1.9550851059796102,1.6481645107269287,0.1111111111111111,-4.212389793965694,1.6416702270507812,0.25,-2.8870884898008193,26.663055419921875,10.0,2.1464646464646466,1.0,30.885726300715035,5.0
subject-02,1,855,1.14644598960876,bear,boat,0.4,0.4_boat_10_n03344393_4509.png,False,1.0587808867479251,1.6481645107269287,0.1111111111111111,-4.212389793965694,1.6416702270507812,0.25,-2.8870884898008193,26.663055419921875,10.0,2.1464646464646466,1.0,30.885726300715035,5.0
subject-01,1,806,0.52849292755127,boat,boat,0.4,0.4_boat_10_n03344393_4509.png,True,-1.3455163924723,1.6481645107269287,0.1111111111111111,-4.212389793965694,1.6416702270507812,0.25,-2.8870884898008193,26.663055419921875,10.0,2.1464646464646466,1.0,30.885726300715035,5.0
subject-04,1,13,0.935755014419556,bear,bear,1.0,1_bear_10_n02132136_10559.png,True,-0.531876499517198,0.6525990962982178,1.0,-0.14710588558378085,1.8309736251831057,0.1428571428571428,-3.7396746373537697,26.26893723011017,10.0,2.6119047619047615,10.0,33.480419306194634,10.0
subject-03,1,615,0.915692090988159,bear,bear,1.0,1_bear_10_n02132136_10559.png,True,-0.2615983851176768,0.6525990962982178,1.0,-0.14710588558378085,1.8309736251831057,0.1428571428571428,-3.7396746373537697,26.26893723011017,10.0,2.6119047619047615,10.0,33.480419306194634,10.0
subject-02,1,617,0.648437976837158,bear,bear,1.0,1_bear_10_n02132136_10559.png,True,-1.19625047751802,0.6525990962982178,1.0,-0.14710588558378085,1.8309736251831057,0.1428571428571428,-3.7396746373537697,26.26893723011017,10.0,2.6119047619047615,10.0,33.480419306194634,10.0
subject-01,1,1026,0.837363004684448,bear,bear,1.0,1_bear_10_n02132136_10559.png,True,-0.0157022375913618,0.6525990962982178,1.0,-0.14710588558378085,1.8309736251831057,0.1428571428571428,-3.7396746373537697,26.26893723011017,10.0,2.6119047619047615,10.0,33.480419306194634,10.0
subject-04,1,14,0.839622974395752,keyboard,keyboard,inf,inf_keyboard_10_n04505470_4138.png,True,-0.9356488060267764,0.0003178231709171,1.0,-2.3961354270552374e-05,1.785475492477417,0.2,-3.6184395451801405,22.249402653455036,9.0,4.026190476190476,8.0,32.06668093940582,9.0
subject-03,1,527,1.06654906272888,keyboard,keyboard,inf,inf_keyboard_10_n04505470_4138.png,True,0.4179923984685132,0.0003178231709171,1.0,-2.3961354270552374e-05,1.785475492477417,0.2,-3.6184395451801405,22.249402653455036,9.0,4.026190476190476,8.0,32.06668093940582,9.0
subject-02,1,412,0.781460046768188,keyboard,keyboard,inf,inf_keyboard_10_n04505470_4138.png,True,-0.5939129003280254,0.0003178231709171,1.0,-2.3961354270552374e-05,1.785475492477417,0.2,-3.6184395451801405,22.249402653455036,9.0,4.026190476190476,8.0,32.06668093940582,9.0
subject-01,1,834,0.823627948760986,keyboard,keyboard,inf,inf_keyboard_10_n04505470_4138.png,True,-0.07483736636340395,0.0003178231709171,1.0,-2.3961354270552374e-05,1.785475492477417,0.2,-3.6184395451801405,22.249402653455036,9.0,4.026190476190476,8.0,32.06668093940582,9.0
subject-04,1,15,0.999476909637451,boat,truck,1.0,1_truck_10_n04467665_56754.png,False,-0.2642327815546944,1.9130711555480957,0.2,-3.104355127819997,1.6290197372436523,0.0909090909090909,-4.835111297782053,26.960753083229065,10.0,0.5839799089799087,3.0,44.89237817233224,6.0
subject-03,1,341,1.10072588920593,boat,truck,1.0,1_truck_10_n04467665_56754.png,False,0.5719544992453119,1.9130711555480957,0.2,-3.104355127819997,1.6290197372436523,0.0909090909090909,-4.835111297782053,26.960753083229065,10.0,0.5839799089799087,3.0,44.89237817233224,6.0
subject-02,1,1161,1.00044798851013,boat,truck,1.0,1_truck_10_n04467665_56754.png,False,0.39768696224406996,1.9130711555480957,0.2,-3.104355127819997,1.6290197372436523,0.0909090909090909,-4.835111297782053,26.960753083229065,10.0,0.5839799089799087,3.0,44.89237817233224,6.0
subject-01,1,1139,1.25453400611877,car,truck,1.0,1_truck_10_n04467665_56754.png,False,1.7803924435842997,1.9130711555480957,0.2,-3.104355127819997,1.6290197372436523,0.0909090909090909,-4.835111297782053,26.960753083229065,10.0,0.5839799089799087,3.0,44.89237817233224,6.0
subject-04,1,16,0.98955512046814,bear,bear,1.0,1_bear_10_n02132136_11125.png,True,-0.3059061268472987,2.034623861312866,1.0,-1.135878141003226,1.596799612045288,0.1428571428571428,-3.879263482412409,27.1147723197937,10.0,2.211904761904761,10.0,34.918074793264,10.0
subject-03,1,865,0.857490062713623,bear,bear,1.0,1_bear_10_n02132136_11125.png,True,-0.5237908548788915,2.034623861312866,1.0,-1.135878141003226,1.596799612045288,0.1428571428571428,-3.879263482412409,27.1147723197937,10.0,2.211904761904761,10.0,34.918074793264,10.0
subject-02,1,570,1.10948896408081,bear,bear,1.0,1_bear_10_n02132136_11125.png,True,0.8914356843450765,2.034623861312866,1.0,-1.135878141003226,1.596799612045288,0.1428571428571428,-3.879263482412409,27.1147723197937,10.0,2.211904761904761,10.0,34.918074793264,10.0
subject-01,1,713,1.00895094871521,dog,bear,1.0,1_bear_10_n02132136_11125.png,False,0.7230552325297698,2.034623861312866,1.0,-1.135878141003226,1.596799612045288,0.1428571428571428,-3.879263482412409,27.1147723197937,10.0,2.211904761904761,10.0,34.918074793264,10.0
subject-04,1,17,1.3389949798584,truck,keyboard,0.55,0.55_keyboard_10_n03085013_21301.png,False,1.1618057616911173,1.3908793926239014,0.2,-4.06604617111083,1.542890548706055,0.0833333333333333,-4.91962418861221,26.017950773239136,10.0,0.7409090909090905,7.0,45.480004617904996,6.0
subject-03,1,271,0.618037939071655,cat,keyboard,0.55,0.55_keyboard_10_n03085013_21301.png,False,-1.6024911261325563,1.3908793926239014,0.2,-4.06604617111083,1.542890548706055,0.0833333333333333,-4.91962418861221,26.017950773239136,10.0,0.7409090909090905,7.0,45.480004617904996,6.0
subject-02,1,450,0.920172929763794,truck,keyboard,0.55,0.55_keyboard_10_n03085013_21301.png,False,0.03419326214511102,1.3908793926239014,0.2,-4.06604617111083,1.542890548706055,0.0833333333333333,-4.91962418861221,26.017950773239136,10.0,0.7409090909090905,7.0,45.480004617904996,6.0
subject-01,1,1166,0.867388963699341,truck,keyboard,0.55,0.55_keyboard_10_n03085013_21301.png,False,0.11357200510150726,1.3908793926239014,0.2,-4.06604617111083,1.542890548706055,0.0833333333333333,-4.91962418861221,26.017950773239136,10.0,0.7409090909090905,7.0,45.480004617904996,6.0
subject-04,1,18,1.2872838973999,truck,bear,0.45,0.45_bear_10_n02134418_2157.png,False,0.9446096735689321,1.2561676502227783,0.1666666666666666,-4.1062777207184,1.4906234741210938,0.1428571428571428,-4.403440592680491,25.77158784866333,10.0,1.0908730158730153,5.0,40.68978148608473,6.0
subject-03,1,638,1.06155395507812,clock,bear,0.45,0.45_bear_10_n02134418_2157.png,False,0.39549009656421774,1.2561676502227783,0.1666666666666666,-4.1062777207184,1.4906234741210938,0.1428571428571428,-4.403440592680491,25.77158784866333,10.0,1.0908730158730153,5.0,40.68978148608473,6.0
subject-02,1,435,0.876877784729004,bottle,bear,0.45,0.45_bear_10_n02134418_2157.png,False,-0.16185159550795358,1.2561676502227783,0.1666666666666666,-4.1062777207184,1.4906234741210938,0.1428571428571428,-4.403440592680491,25.77158784866333,10.0,1.0908730158730153,5.0,40.68978148608473,6.0
subject-01,1,502,0.620563983917236,car,bear,0.45,0.45_bear_10_n02134418_2157.png,False,-0.9491121983634935,1.2561676502227783,0.1666666666666666,-4.1062777207184,1.4906234741210938,0.1428571428571428,-4.403440592680491,25.77158784866333,10.0,1.0908730158730153,5.0,40.68978148608473,6.0
subject-04,1,19,0.924682140350342,elephant,elephant,inf,inf_elephant_10_n02504458_12303.png,True,-0.5783846137890843,0.00092802522704,1.0,-7.558154578826774e-05,1.8782767057418823,0.1,-3.907949442303415,24.823661189060658,10.0,4.642857142857142,7.0,30.148823803639743,9.0
subject-03,1,29,0.818405866622925,elephant,elephant,inf,inf_elephant_10_n02504458_12303.png,True,-0.6998600092615261,0.00092802522704,1.0,-7.558154578826774e-05,1.8782767057418823,0.1,-3.907949442303415,24.823661189060658,10.0,4.642857142857142,7.0,30.148823803639743,9.0
subject-02,1,1249,0.829241991043091,elephant,elephant,inf,inf_elephant_10_n02504458_12303.png,True,-0.37755135548892566,0.00092802522704,1.0,-7.558154578826774e-05,1.8782767057418823,0.1,-3.907949442303415,24.823661189060658,10.0,4.642857142857142,7.0,30.148823803639743,9.0
subject-01,1,18,0.828555107116699,elephant,elephant,inf,inf_elephant_10_n02504458_12303.png,True,-0.05362390021743647,0.00092802522704,1.0,-7.558154578826774e-05,1.8782767057418823,0.1,-3.907949442303415,24.823661189060658,10.0,4.642857142857142,7.0,30.148823803639743,9.0
subject-04,1,20,0.848499059677124,bird,bird,3.0,3_bird_10_n02037110_11362.png,True,-0.8983676100181628,0.1980739831924438,1.0,-0.0305613713775211,2.0097436904907227,0.125,-3.459781162891531,25.907538771629333,10.0,2.757936507936508,9.0,33.8696917649937,10.0
subject-03,1,14,0.899348020553589,bird,bird,3.0,3_bird_10_n02037110_11362.png,True,-0.3352262692350078,0.1980739831924438,1.0,-0.0305613713775211,2.0097436904907227,0.125,-3.459781162891531,25.907538771629333,10.0,2.757936507936508,9.0,33.8696917649937,10.0
subject-02,1,463,1.07577180862427,bird,bird,3.0,3_bird_10_n02037110_11362.png,True,0.7387609459504573,0.1980739831924438,1.0,-0.0305613713775211,2.0097436904907227,0.125,-3.459781162891531,25.907538771629333,10.0,2.757936507936508,9.0,33.8696917649937,10.0
subject-01,1,748,1.1623809337616,bird,bird,3.0,3_bird_10_n02037110_11362.png,True,1.3836351365192565,0.1980739831924438,1.0,-0.0305613713775211,2.0097436904907227,0.125,-3.459781162891531,25.907538771629333,10.0,2.757936507936508,9.0,33.8696917649937,10.0
subject-04,1,21,0.964359998703003,knife,knife,3.0,3_knife_10_n03041632_41493.png,True,-0.41173028729765404,1.66395902633667,1.0,-0.582875021666133,1.8310012817382812,0.1111111111111111,-4.055741880266447,27.404264211654663,10.0,1.9818181818181817,10.0,37.04936117973366,10.0
subject-03,1,1055,1.15745496749878,knife,knife,3.0,3_knife_10_n03041632_41493.png,True,0.8275115233874961,1.66395902633667,1.0,-0.582875021666133,1.8310012817382812,0.1111111111111111,-4.055741880266447,27.404264211654663,10.0,1.9818181818181817,10.0,37.04936117973366,10.0
subject-02,1,537,1.13962197303772,knife,knife,3.0,3_knife_10_n03041632_41493.png,True,1.0278810397508382,1.66395902633667,1.0,-0.582875021666133,1.8310012817382812,0.1111111111111111,-4.055741880266447,27.404264211654663,10.0,1.9818181818181817,10.0,37.04936117973366,10.0
subject-01,1,546,1.02837204933167,knife,knife,3.0,3_knife_10_n03041632_41493.png,True,0.8066711487844206,1.66395902633667,1.0,-0.582875021666133,1.8310012817382812,0.1111111111111111,-4.055741880266447,27.404264211654663,10.0,1.9818181818181817,10.0,37.04936117973366,10.0
subject-04,1,22,1.18805813789368,keyboard,keyboard,1.0,1_keyboard_10_n04505470_1724.png,True,0.5278431743760473,0.0072890175506472,1.0,-0.0007743256297802831,1.2723230123519895,0.1111111111111111,-4.837566093674215,23.8111316813156,10.0,2.818326118326118,9.0,38.803224219344806,10.0
subject-03,1,93,0.960341930389404,chair,keyboard,1.0,1_keyboard_10_n04505470_1724.png,False,-0.0604567408465627,0.0072890175506472,1.0,-0.0007743256297802831,1.2723230123519895,0.1111111111111111,-4.837566093674215,23.8111316813156,10.0,2.818326118326118,9.0,38.803224219344806,10.0
subject-02,1,1166,0.79985523223877,keyboard,keyboard,1.0,1_keyboard_10_n04505470_1724.png,True,-0.5106176136582585,0.0072890175506472,1.0,-0.0007743256297802831,1.2723230123519895,0.1111111111111111,-4.837566093674215,23.8111316813156,10.0,2.818326118326118,9.0,38.803224219344806,10.0
subject-01,1,132,1.03682088851929,keyboard,keyboard,1.0,1_keyboard_10_n04505470_1724.png,True,0.8430469157356669,0.0072890175506472,1.0,-0.0007743256297802831,1.2723230123519895,0.1111111111111111,-4.837566093674215,23.8111316813156,10.0,2.818326118326118,9.0,38.803224219344806,10.0
subject-04,1,23,0.841925859451294,airplane,airplane,1.5,1.5_airplane_10_n02690373_787.png,True,-0.9259762638621413,0.0069213863462209,1.0,-0.000672327936271162,1.8396704196929932,0.3333333333333333,-2.19731603739539,25.198082303628325,10.0,7.25,0.0,20.447353789357887,9.0
subject-03,1,665,1.27392101287842,airplane,airplane,1.5,1.5_airplane_10_n02690373_787.png,True,1.3521757144251412,0.0069213863462209,1.0,-0.000672327936271162,1.8396704196929932,0.3333333333333333,-2.19731603739539,25.198082303628325,10.0,7.25,0.0,20.447353789357887,9.0
subject-02,1,402,0.831317901611328,airplane,airplane,1.5,1.5_airplane_10_n02690373_787.png,True,-0.36815141950248914,0.0069213863462209,1.0,-0.000672327936271162,1.8396704196929932,0.3333333333333333,-2.19731603739539,25.198082303628325,10.0,7.25,0.0,20.447353789357887,9.0
subject-01,1,1002,0.704065799713135,airplane,airplane,1.5,1.5_airplane_10_n02690373_787.png,True,-0.5896021492376653,0.0069213863462209,1.0,-0.000672327936271162,1.8396704196929932,0.3333333333333333,-2.19731603739539,25.198082303628325,10.0,7.25,0.0,20.447353789357887,9.0
subject-04,1,24,1.06973218917847,bicycle,elephant,1.0,1_elephant_10_n02504458_3535.png,False,0.030852356113539814,1.96521258354187,0.1666666666666666,-3.3030940283987444,1.682445049285889,0.1111111111111111,-4.536635217764099,27.25211274623871,10.0,1.2691197691197686,8.0,41.614833938805376,0.0
subject-03,1,1116,0.638066053390503,boat,elephant,1.0,1_elephant_10_n02504458_3535.png,False,-1.5122671096575808,1.96521258354187,0.1666666666666666,-3.3030940283987444,1.682445049285889,0.1111111111111111,-4.536635217764099,27.25211274623871,10.0,1.2691197691197686,8.0,41.614833938805376,0.0
subject-02,1,452,1.17213916778564,oven,elephant,1.0,1_elephant_10_n02504458_3535.png,False,1.1751222329726296,1.96521258354187,0.1666666666666666,-3.3030940283987444,1.682445049285889,0.1111111111111111,-4.536635217764099,27.25211274623871,10.0,1.2691197691197686,8.0,41.614833938805376,0.0
subject-01,1,94,0.843881130218506,clock,elephant,1.0,1_elephant_10_n02504458_3535.png,False,0.012361004011494174,1.96521258354187,0.1666666666666666,-3.3030940283987444,1.682445049285889,0.1111111111111111,-4.536635217764099,27.25211274623871,10.0,1.2691197691197686,8.0,41.614833938805376,0.0
subject-04,1,25,0.755546092987061,chair,knife,0.55,0.55_knife_10_n03041632_20217.png,False,-1.2887872219192646,2.189167022705078,1.0,-1.496865250243176,1.5055444240570068,0.125,-4.776445783197383,26.914503812789917,10.0,2.7337662337662336,10.0,39.97589567796472,6.0
subject-03,1,711,0.791339159011841,boat,knife,0.55,0.55_knife_10_n03041632_20217.png,False,-0.8217919612440254,2.189167022705078,1.0,-1.496865250243176,1.5055444240570068,0.125,-4.776445783197383,26.914503812789917,10.0,2.7337662337662336,10.0,39.97589567796472,6.0
subject-02,1,236,1.20676898956299,oven,knife,0.55,0.55_knife_10_n03041632_20217.png,False,1.3319296180832754,2.189167022705078,1.0,-1.496865250243176,1.5055444240570068,0.125,-4.776445783197383,26.914503812789917,10.0,2.7337662337662336,10.0,39.97589567796472,6.0
subject-01,1,1179,0.713428974151611,airplane,knife,0.55,0.55_knife_10_n03041632_20217.png,False,-0.5492897887187276,2.189167022705078,1.0,-1.496865250243176,1.5055444240570068,0.125,-4.776445783197383,26.914503812789917,10.0,2.7337662337662336,10.0,39.97589567796472,6.0
subject-04,1,26,0.987184047698975,car,oven,0.45,0.45_oven_10_n04111531_4955.png,False,-0.3158650699912361,1.2942025661468506,0.1,-4.973076623213891,1.4632983207702637,0.0625,-7.867152195825474,26.1087703704834,10.0,0.0608516483516483,10.0,65.26129755165773,6.0
subject-03,1,606,0.783571004867554,bird,oven,0.45,0.45_oven_10_n04111531_4955.png,False,-0.8567864722766853,1.2942025661468506,0.1,-4.973076623213891,1.4632983207702637,0.0625,-7.867152195825474,26.1087703704834,10.0,0.0608516483516483,10.0,65.26129755165773,6.0
subject-02,1,36,1.01380109786987,car,oven,0.45,0.45_oven_10_n04111531_4955.png,False,0.4581512111004363,1.2942025661468506,0.1,-4.973076623213891,1.4632983207702637,0.0625,-7.867152195825474,26.1087703704834,10.0,0.0608516483516483,10.0,65.26129755165773,6.0
subject-01,1,245,0.565154075622559,truck,oven,0.45,0.45_oven_10_n04111531_4955.png,False,-1.1876749010209762,1.2942025661468506,0.1,-4.973076623213891,1.4632983207702637,0.0625,-7.867152195825474,26.1087703704834,10.0,0.0608516483516483,10.0,65.26129755165773,6.0
subject-04,1,27,1.06919503211975,truck,boat,1.0,1_boat_10_n04612504_11379.png,False,0.028596197349994423,0.2160718441009521,1.0,-0.033231376134372076,1.726967215538025,0.25,-2.5171656017280375,25.84135901927948,10.0,4.549242424242424,0.0,24.521350436427173,10.0
subject-03,1,469,1.47432994842529,car,boat,1.0,1_boat_10_n04612504_11379.png,False,2.2549915669139,0.2160718441009521,1.0,-0.033231376134372076,1.726967215538025,0.25,-2.5171656017280375,25.84135901927948,10.0,4.549242424242424,0.0,24.521350436427173,10.0
subject-02,1,1010,0.70584511756897,boat,boat,1.0,1_boat_10_n04612504_11379.png,True,-0.9363050558317306,0.2160718441009521,1.0,-0.033231376134372076,1.726967215538025,0.25,-2.5171656017280375,25.84135901927948,10.0,4.549242424242424,0.0,24.521350436427173,10.0
subject-01,1,658,0.795114994049072,boat,boat,1.0,1_boat_10_n04612504_11379.png,True,-0.19759749620606706,0.2160718441009521,1.0,-0.033231376134372076,1.726967215538025,0.25,-2.5171656017280375,25.84135901927948,10.0,4.549242424242424,0.0,24.521350436427173,10.0
subject-04,1,28,1.20900106430054,car,cat,0.45,0.45_cat_10_n02125311_43276.png,False,0.615807329700997,1.4854198694229126,0.25,-3.385181716362788,1.4271104335784912,0.1666666666666666,-4.185694482047436,26.08539640903473,10.0,1.8638888888888887,9.0,39.753871954939775,6.0
subject-03,1,810,0.795785903930664,oven,cat,0.45,0.45_cat_10_n02125311_43276.png,False,-0.8017599612050438,1.4854198694229126,0.25,-3.385181716362788,1.4271104335784912,0.1666666666666666,-4.185694482047436,26.08539640903473,10.0,1.8638888888888887,9.0,39.753871954939775,6.0
subject-02,1,342,0.858827829360962,knife,cat,0.45,0.45_cat_10_n02125311_43276.png,False,-0.2435836448619518,1.4854198694229126,0.25,-3.385181716362788,1.4271104335784912,0.1666666666666666,-4.185694482047436,26.08539640903473,10.0,1.8638888888888887,9.0,39.753871954939775,6.0
subject-01,1,8,1.05839705467224,clock,cat,0.45,0.45_cat_10_n02125311_43276.png,False,0.9359412855126542,1.4854198694229126,0.25,-3.385181716362788,1.4271104335784912,0.1666666666666666,-4.185694482047436,26.08539640903473,10.0,1.8638888888888887,9.0,39.753871954939775,6.0
subject-04,1,29,1.28318381309509,airplane,airplane,0.45,0.45_airplane_10_n02690373_3047.png,True,0.9273885629358192,0.8592648506164551,0.0625,-6.589594031339779,1.379903793334961,0.3333333333333333,-2.455390988351364,24.959148645401,10.0,4.429166666666667,0.0,29.55114817117828,6.0
subject-03,1,827,0.92873215675354,keyboard,airplane,0.45,0.45_airplane_10_n02690373_3047.png,False,-0.2028546067609045,0.8592648506164551,0.0625,-6.589594031339779,1.379903793334961,0.3333333333333333,-2.455390988351364,24.959148645401,10.0,4.429166666666667,0.0,29.55114817117828,6.0
subject-02,1,954,0.567513942718506,cat,airplane,0.45,0.45_airplane_10_n02690373_3047.png,False,-1.5626828046705155,0.8592648506164551,0.0625,-6.589594031339779,1.379903793334961,0.3333333333333333,-2.455390988351364,24.959148645401,10.0,4.429166666666667,0.0,29.55114817117828,6.0
subject-01,1,483,0.562107086181641,chair,airplane,0.45,0.45_airplane_10_n02690373_3047.png,False,-1.2007934579427544,0.8592648506164551,0.0625,-6.589594031339779,1.379903793334961,0.3333333333333333,-2.455390988351364,24.959148645401,10.0,4.429166666666667,0.0,29.55114817117828,6.0
subject-04,1,30,1.12454605102539,truck,boat,0.55,0.55_boat_10_n03344393_4349.png,False,0.2610806901959948,1.3115026950836182,1.0,-0.4856863997920425,1.5415709018707275,0.25,-2.8400290937183557,26.148848295211792,10.0,3.327020202020202,10.0,26.22050235733374,10.0
subject-03,1,668,0.895426034927368,car,boat,0.55,0.55_boat_10_n03344393_4349.png,False,-0.35289429779333126,1.3115026950836182,1.0,-0.4856863997920425,1.5415709018707275,0.25,-2.8400290937183557,26.148848295211792,10.0,3.327020202020202,10.0,26.22050235733374,10.0
subject-02,1,314,1.11366820335388,boat,boat,0.55,0.55_boat_10_n03344393_4349.png,True,0.9103597084528311,1.3115026950836182,1.0,-0.4856863997920425,1.5415709018707275,0.25,-2.8400290937183557,26.148848295211792,10.0,3.327020202020202,10.0,26.22050235733374,10.0
subject-01,1,977,,na,boat,0.55,0.55_boat_10_n03344393_4349.png,False,,1.3115026950836182,1.0,-0.4856863997920425,1.5415709018707275,0.25,-2.8400290937183557,26.148848295211792,10.0,3.327020202020202,10.0,26.22050235733374,10.0
subject-04,1,31,0.970358848571777,knife,knife,3.0,3_knife_10_n03041632_24998.png,True,-0.38653401093318934,0.195614606142044,1.0,-0.03062762137800637,2.00063419342041,0.1,-3.8645393333822184,26.267773061990738,10.0,1.8794011544011542,10.0,35.55616548471902,10.0
subject-03,1,103,1.12018489837646,knife,knife,3.0,3_knife_10_n03041632_24998.png,True,0.6596147720018127,0.195614606142044,1.0,-0.03062762137800637,2.00063419342041,0.1,-3.8645393333822184,26.267773061990738,10.0,1.8794011544011542,10.0,35.55616548471902,10.0
subject-02,1,476,0.945388078689575,knife,knife,3.0,3_knife_10_n03041632_24998.png,True,0.14837004288769462,0.195614606142044,1.0,-0.03062762137800637,2.00063419342041,0.1,-3.8645393333822184,26.267773061990738,10.0,1.8794011544011542,10.0,35.55616548471902,10.0
subject-01,1,1189,0.781025886535645,knife,knife,3.0,3_knife_10_n03041632_24998.png,True,-0.25825696433873496,0.195614606142044,1.0,-0.03062762137800637,2.00063419342041,0.1,-3.8645393333822184,26.267773061990738,10.0,1.8794011544011542,10.0,35.55616548471902,10.0
subject-04,1,32,1.0861349105835,bicycle,elephant,0.45,0.45_elephant_10_n02504458_4137.png,False,0.09974681266624694,1.4814107418060305,0.1111111111111111,-4.802146742416178,1.5094194412231443,0.0714285714285714,-5.223529848733105,26.3065984249115,10.0,0.514224664224664,8.0,46.54223552347527,5.0
subject-03,1,687,1.5000638961792,car,elephant,0.45,0.45_elephant_10_n02504458_4137.png,False,2.3709196113194544,1.4814107418060305,0.1111111111111111,-4.802146742416178,1.5094194412231443,0.0714285714285714,-5.223529848733105,26.3065984249115,10.0,0.514224664224664,8.0,46.54223552347527,5.0
subject-02,1,267,0.636260986328125,cat,elephant,0.45,0.45_elephant_10_n02504458_4137.png,False,-1.251389139579732,1.4814107418060305,0.1111111111111111,-4.802146742416178,1.5094194412231443,0.0714285714285714,-5.223529848733105,26.3065984249115,10.0,0.514224664224664,8.0,46.54223552347527,5.0
subject-01,1,854,0.753375053405762,airplane,elephant,0.45,0.45_elephant_10_n02504458_4137.png,False,-0.3773053021759884,1.4814107418060305,0.1111111111111111,-4.802146742416178,1.5094194412231443,0.0714285714285714,-5.223529848733105,26.3065984249115,10.0,0.514224664224664,8.0,46.54223552347527,5.0
subject-04,1,33,1.25392413139343,car,dog,0.7,0.7_dog_10_n02088364_8674.png,False,0.8044925007541573,1.6317811012268066,0.0833333333333333,-5.131937608495188,1.5644416809082031,0.0666666666666666,-5.180265030323418,26.848406314849854,10.0,0.26151903651903613,8.0,47.816828725681745,6.0
subject-03,1,43,1.27595496177673,bear,dog,0.7,0.7_dog_10_n02088364_8674.png,False,1.3613383862567918,1.6317811012268066,0.0833333333333333,-5.131937608495188,1.5644416809082031,0.0666666666666666,-5.180265030323418,26.848406314849854,10.0,0.26151903651903613,8.0,47.816828725681745,6.0
subject-02,1,986,0.80443811416626,bear,dog,0.7,0.7_dog_10_n02088364_8674.png,False,-0.489865854208241,1.6317811012268066,0.0833333333333333,-5.131937608495188,1.5644416809082031,0.0666666666666666,-5.180265030323418,26.848406314849854,10.0,0.26151903651903613,8.0,47.816828725681745,6.0
subject-01,1,104,1.15188407897949,dog,dog,0.7,0.7_dog_10_n02088364_8674.png,True,1.3384418105728237,1.6317811012268066,0.0833333333333333,-5.131937608495188,1.5644416809082031,0.0666666666666666,-5.180265030323418,26.848406314849854,10.0,0.26151903651903613,8.0,47.816828725681745,6.0
subject-04,1,34,1.03387999534607,bicycle,boat,1.0,1_boat_10_n02951358_7320.png,False,-0.11973347347617905,0.4951261579990387,0.3333333333333333,-4.302658342504423,1.748015522956848,0.25,-2.5220367425189263,25.913583546876907,10.0,3.0972222222222223,1.0,29.36681879483382,0.0
subject-03,1,399,1.20798492431641,bicycle,boat,1.0,1_boat_10_n02951358_7320.png,False,1.0551423219646372,0.4951261579990387,0.3333333333333333,-4.302658342504423,1.748015522956848,0.25,-2.5220367425189263,25.913583546876907,10.0,3.0972222222222223,1.0,29.36681879483382,0.0
subject-02,1,50,0.715023994445801,boat,boat,1.0,1_boat_10_n02951358_7320.png,True,-0.8947421598237053,0.4951261579990387,0.3333333333333333,-4.302658342504423,1.748015522956848,0.25,-2.5220367425189263,25.913583546876907,10.0,3.0972222222222223,1.0,29.36681879483382,0.0
subject-01,1,1149,0.773003101348877,boat,boat,1.0,1_boat_10_n02951358_7320.png,True,-0.29279839160147714,0.4951261579990387,0.3333333333333333,-4.302658342504423,1.748015522956848,0.25,-2.5220367425189263,25.913583546876907,10.0,3.0972222222222223,1.0,29.36681879483382,0.0
subject-04,1,35,1.16154098510742,car,cat,0.55,0.55_cat_10_n02123159_5429.png,False,0.41646623969408425,1.6552040576934814,0.1666666666666666,-3.4158797131406535,1.5443933010101318,0.1428571428571428,-4.066743559973798,27.00912070274353,10.0,1.416269841269841,9.0,39.685213444104555,6.0
subject-03,1,195,0.792695999145508,bird,cat,0.55,0.55_cat_10_n02123159_5429.png,False,-0.8156795751938484,1.6552040576934814,0.1666666666666666,-3.4158797131406535,1.5443933010101318,0.1428571428571428,-4.066743559973798,27.00912070274353,10.0,1.416269841269841,9.0,39.685213444104555,6.0
subject-02,1,686,1.18485593795776,cat,cat,0.55,0.55_cat_10_n02123159_5429.png,True,1.2327050727159001,1.6552040576934814,0.1666666666666666,-3.4158797131406535,1.5443933010101318,0.1428571428571428,-4.066743559973798,27.00912070274353,10.0,1.416269841269841,9.0,39.685213444104555,6.0
subject-01,1,966,0.644828081130981,car,cat,0.55,0.55_cat_10_n02123159_5429.png,False,-0.8446451673395314,1.6552040576934814,0.1666666666666666,-3.4158797131406535,1.5443933010101318,0.1428571428571428,-4.066743559973798,27.00912070274353,10.0,1.416269841269841,9.0,39.685213444104555,6.0
subject-04,1,36,1.05565190315247,keyboard,bicycle,0.4,0.4_bicycle_10_n03792782_2327.png,False,-0.02828744330843006,1.2899130582809448,0.1666666666666666,-3.975814720876906,1.4351049661636353,0.2,-3.8442319365960276,25.710867166519165,10.0,1.1587662337662337,10.0,38.35191682071604,7.0
subject-03,1,562,0.758055925369263,oven,bicycle,0.4,0.4_bicycle_10_n03792782_2327.png,False,-0.9717285440246822,1.2899130582809448,0.1666666666666666,-3.975814720876906,1.4351049661636353,0.2,-3.8442319365960276,25.710867166519165,10.0,1.1587662337662337,10.0,38.35191682071604,7.0
subject-02,1,25,,na,bicycle,0.4,0.4_bicycle_10_n03792782_2327.png,False,,1.2899130582809448,0.1666666666666666,-3.975814720876906,1.4351049661636353,0.2,-3.8442319365960276,25.710867166519165,10.0,1.1587662337662337,10.0,38.35191682071604,7.0
subject-01,1,701,0.995122909545898,boat,bicycle,0.4,0.4_bicycle_10_n03792782_2327.png,False,0.66351977220847,1.2899130582809448,0.1666666666666666,-3.975814720876906,1.4351049661636353,0.2,-3.8442319365960276,25.710867166519165,10.0,1.1587662337662337,10.0,38.35191682071604,7.0
subject-04,1,37,1.41126108169556,cat,cat,1.0,1_cat_10_n02124075_10085.png,True,1.4653367240427007,0.6817712187767029,1.0,-0.14599168479983363,1.587756872177124,0.1666666666666666,-3.6349001033618236,25.75051325559616,10.0,4.062301587301587,8.0,33.35036546824591,10.0
subject-03,1,1119,0.669411897659302,cat,cat,1.0,1_cat_10_n02124075_10085.png,True,-1.3710582107714477,0.6817712187767029,1.0,-0.14599168479983363,1.587756872177124,0.1666666666666666,-3.6349001033618236,25.75051325559616,10.0,4.062301587301587,8.0,33.35036546824591,10.0
subject-02,1,509,0.652695894241333,cat,cat,1.0,1_cat_10_n02124075_10085.png,True,-1.1769701907623287,0.6817712187767029,1.0,-0.14599168479983363,1.587756872177124,0.1666666666666666,-3.6349001033618236,25.75051325559616,10.0,4.062301587301587,8.0,33.35036546824591,10.0
subject-01,1,213,1.2148871421814,cat,cat,1.0,1_cat_10_n02124075_10085.png,True,1.609696203437281,0.6817712187767029,1.0,-0.14599168479983363,1.587756872177124,0.1666666666666666,-3.6349001033618236,25.75051325559616,10.0,4.062301587301587,8.0,33.35036546824591,10.0
subject-04,1,38,1.07320880889893,bicycle,knife,0.7,0.7_knife_10_n03041632_91582.png,False,0.0454548004498845,1.8328354358673096,1.0,-0.7182631234035468,1.5996264219284058,0.125,-4.590621083390348,26.840712070465088,10.0,3.135353535353535,8.0,38.800728061253956,10.0
subject-03,1,1015,1.26363301277161,bicycle,knife,0.7,0.7_knife_10_n03041632_91582.png,False,1.305829629299302,1.8328354358673096,1.0,-0.7182631234035468,1.5996264219284058,0.125,-4.590621083390348,26.840712070465088,10.0,3.135353535353535,8.0,38.800728061253956,10.0
subject-02,1,347,1.11174702644348,bicycle,knife,0.7,0.7_knife_10_n03041632_91582.png,False,0.901660422340656,1.8328354358673096,1.0,-0.7182631234035468,1.5996264219284058,0.125,-4.590621083390348,26.840712070465088,10.0,3.135353535353535,8.0,38.800728061253956,10.0
subject-01,1,817,1.47843408584595,knife,knife,0.7,0.7_knife_10_n03041632_91582.png,True,2.7443754168258065,1.8328354358673096,1.0,-0.7182631234035468,1.5996264219284058,0.125,-4.590621083390348,26.840712070465088,10.0,3.135353535353535,8.0,38.800728061253956,10.0
subject-04,1,39,1.34486413002014,knife,oven,1.5,1.5_oven_10_n04111531_15616.png,False,1.1864572753536802,1.802360773086548,0.1666666666666666,-3.8608931845520265,1.8266799449920657,0.0625,-7.817210406939901,27.360848426818848,10.0,0.1623376623376622,10.0,63.43505092276291,6.0
subject-03,1,1243,1.05135011672974,bicycle,oven,1.5,1.5_oven_10_n04111531_15616.png,False,0.34952314907252013,1.802360773086548,0.1666666666666666,-3.8608931845520265,1.8266799449920657,0.0625,-7.817210406939901,27.360848426818848,10.0,0.1623376623376622,10.0,63.43505092276291,6.0
subject-02,1,833,1.07685303688049,bicycle,oven,1.5,1.5_oven_10_n04111531_15616.png,False,0.7436568584000125,1.802360773086548,0.1666666666666666,-3.8608931845520265,1.8266799449920657,0.0625,-7.817210406939901,27.360848426818848,10.0,0.1623376623376622,10.0,63.43505092276291,6.0
subject-01,1,1248,0.778840065002441,bicycle,oven,1.5,1.5_oven_10_n04111531_15616.png,False,-0.2676678352197136,1.802360773086548,0.1666666666666666,-3.8608931845520265,1.8266799449920657,0.0625,-7.817210406939901,27.360848426818848,10.0,0.1623376623376622,10.0,63.43505092276291,6.0
subject-04,1,40,1.36475396156311,clock,car,0.4,0.4_car_10_n04285008_11133.png,False,1.2699982379318517,1.1582574844360352,0.1,-4.93736912517432,1.400806188583374,0.0833333333333333,-5.058233766285301,25.477901697158813,10.0,0.5139249639249635,9.0,49.316984023564856,6.0
subject-03,1,897,0.763370990753174,boat,car,0.4,0.4_car_10_n04285008_11133.png,False,-0.9477848746842157,1.1582574844360352,0.1,-4.93736912517432,1.400806188583374,0.0833333333333333,-5.058233766285301,25.477901697158813,10.0,0.5139249639249635,9.0,49.316984023564856,6.0
subject-02,1,831,0.702862024307251,car,car,0.4,0.4_car_10_n04285008_11133.png,True,-0.9498128081071782,1.1582574844360352,0.1,-4.93736912517432,1.400806188583374,0.0833333333333333,-5.058233766285301,25.477901697158813,10.0,0.5139249639249635,9.0,49.316984023564856,6.0
subject-01,1,438,0.854130983352661,airplane,car,0.4,0.4_car_10_n04285008_11133.png,False,0.05649088512449368,1.1582574844360352,0.1,-4.93736912517432,1.400806188583374,0.0833333333333333,-5.058233766285301,25.477901697158813,10.0,0.5139249639249635,9.0,49.316984023564856,6.0
subject-04,1,41,1.28860306739807,elephant,keyboard,0.4,0.4_keyboard_10_n03085013_20462.png,False,0.9501504309762177,1.993135690689087,0.5,-1.3587328888767887,1.3765215873718262,0.1,-4.910217625485725,25.82621121406555,10.0,1.5718614718614714,7.0,41.82034778383696,6.0
subject-03,1,421,1.18548393249512,bear,keyboard,0.4,0.4_keyboard_10_n03085013_20462.png,False,0.9537783181214576,1.993135690689087,0.5,-1.3587328888767887,1.3765215873718262,0.1,-4.910217625485725,25.82621121406555,10.0,1.5718614718614714,7.0,41.82034778383696,6.0
subject-02,1,228,1.06388688087463,dog,keyboard,0.4,0.4_keyboard_10_n03085013_20462.png,False,0.6849447740211827,1.993135690689087,0.5,-1.3587328888767887,1.3765215873718262,0.1,-4.910217625485725,25.82621121406555,10.0,1.5718614718614714,7.0,41.82034778383696,6.0
subject-01,1,1154,0.713634014129639,bird,keyboard,0.4,0.4_keyboard_10_n03085013_20462.png,False,-0.5484070063280573,1.993135690689087,0.5,-1.3587328888767887,1.3765215873718262,0.1,-4.910217625485725,25.82621121406555,10.0,1.5718614718614714,7.0,41.82034778383696,6.0
subject-04,1,42,0.638328075408936,clock,clock,1.5,1.5_clock_10_n04548280_5843.png,True,-1.7811245249691137,0.0023490977473556,1.0,-0.0001969531403344884,1.524791955947876,1.0,-0.5926769569849707,24.169115979690105,10.0,10.0,2.0,15.373702509823785,10.0
subject-03,1,289,0.91050910949707,clock,clock,1.5,1.5_clock_10_n04548280_5843.png,True,-0.2849470339218944,0.0023490977473556,1.0,-0.0001969531403344884,1.524791955947876,1.0,-0.5926769569849707,24.169115979690105,10.0,10.0,2.0,15.373702509823785,10.0
subject-02,1,1159,0.701090097427368,clock,clock,1.5,1.5_clock_10_n04548280_5843.png,True,-0.9578362747720698,0.0023490977473556,1.0,-0.0001969531403344884,1.524791955947876,1.0,-0.5926769569849707,24.169115979690105,10.0,10.0,2.0,15.373702509823785,10.0
subject-01,1,937,0.837733030319214,clock,clock,1.5,1.5_clock_10_n04548280_5843.png,True,-0.014109123323551366,0.0023490977473556,1.0,-0.0001969531403344884,1.524791955947876,1.0,-0.5926769569849707,24.169115979690105,10.0,10.0,2.0,15.373702509823785,10.0
subject-04,1,43,1.20621800422668,car,elephant,0.45,0.45_elephant_10_n02504458_1473.png,False,0.6041179638569044,1.1257503032684326,0.25,-3.6826953955860646,1.4730623960494995,0.0714285714285714,-5.298085144015416,25.85884130001068,10.0,0.7746142746142745,8.0,44.611328352125774,5.0
subject-03,1,841,0.725970983505249,boat,elephant,0.45,0.45_elephant_10_n02504458_1473.png,False,-1.1162669802075216,1.1257503032684326,0.25,-3.6826953955860646,1.4730623960494995,0.0714285714285714,-5.298085144015416,25.85884130001068,10.0,0.7746142746142745,8.0,44.611328352125774,5.0
subject-02,1,573,0.772775173187256,clock,elephant,0.45,0.45_elephant_10_n02504458_1473.png,False,-0.6332388987405619,1.1257503032684326,0.25,-3.6826953955860646,1.4730623960494995,0.0714285714285714,-5.298085144015416,25.85884130001068,10.0,0.7746142746142745,8.0,44.611328352125774,5.0
subject-01,1,468,0.648399829864502,cat,elephant,0.45,0.45_elephant_10_n02504458_1473.png,False,-0.8292673033923346,1.1257503032684326,0.25,-3.6826953955860646,1.4730623960494995,0.0714285714285714,-5.298085144015416,25.85884130001068,10.0,0.7746142746142745,8.0,44.611328352125774,5.0
subject-04,1,44,0.953929901123047,bird,bird,3.0,3_bird_10_n01530575_3831.png,True,-0.45553862170869963,1.0587031841278076,1.0,-0.330268307177552,1.9871153831481936,0.125,-3.5923103824838676,26.917500138282776,10.0,2.0678571428571426,10.0,34.6980982167892,10.0
subject-03,1,848,1.02069306373596,bird,bird,3.0,3_bird_10_n01530575_3831.png,True,0.2114171641380327,1.0587031841278076,1.0,-0.330268307177552,1.9871153831481936,0.125,-3.5923103824838676,26.917500138282776,10.0,2.0678571428571426,10.0,34.6980982167892,10.0
subject-02,1,24,1.31774091720581,bird,bird,3.0,3_bird_10_n01530575_3831.png,True,1.8344218892314879,1.0587031841278076,1.0,-0.330268307177552,1.9871153831481936,0.125,-3.5923103824838676,26.917500138282776,10.0,2.0678571428571426,10.0,34.6980982167892,10.0
subject-01,1,417,0.976169109344482,cat,bird,3.0,3_bird_10_n01530575_3831.png,False,0.5819157786116402,1.0587031841278076,1.0,-0.330268307177552,1.9871153831481936,0.125,-3.5923103824838676,26.917500138282776,10.0,2.0678571428571426,10.0,34.6980982167892,10.0
subject-04,1,45,0.949787139892578,oven,elephant,0.55,0.55_elephant_10_n02504458_11214.png,False,-0.4729389833043832,1.1822030544281006,0.1428571428571428,-4.303553209164676,1.5742963552474976,0.0714285714285714,-5.084123280891845,26.360940098762512,10.0,0.6186618936618934,8.0,44.7881389649833,5.0
subject-03,1,19,1.07844185829163,boat,elephant,0.55,0.55_elephant_10_n02504458_11214.png,False,0.4715678757053927,1.1822030544281006,0.1428571428571428,-4.303553209164676,1.5742963552474976,0.0714285714285714,-5.084123280891845,26.360940098762512,10.0,0.6186618936618934,8.0,44.7881389649833,5.0
subject-02,1,244,1.05445694923401,car,elephant,0.55,0.55_elephant_10_n02504458_11214.png,False,0.642245076291149,1.1822030544281006,0.1428571428571428,-4.303553209164676,1.5742963552474976,0.0714285714285714,-5.084123280891845,26.360940098762512,10.0,0.6186618936618934,8.0,44.7881389649833,5.0
subject-01,1,57,0.469176054000854,boat,elephant,0.55,0.55_elephant_10_n02504458_11214.png,False,-1.6009002056366108,1.1822030544281006,0.1428571428571428,-4.303553209164676,1.5742963552474976,0.0714285714285714,-5.084123280891845,26.360940098762512,10.0,0.6186618936618934,8.0,44.7881389649833,5.0
subject-04,1,46,0.905590057373047,knife,knife,inf,inf_knife_10_n03041632_22286.png,True,-0.6585748851898142,1.4530810403812213e-05,1.0,-8.344653750216029e-07,2.0701770782470703,0.2,-3.1220819694926147,25.07870625177293,10.0,3.9996753246753247,8.0,30.918944037500225,9.0
subject-03,1,789,1.04441404342651,knife,knife,inf,inf_knife_10_n03041632_22286.png,True,0.31827705260934225,1.4530810403812213e-05,1.0,-8.344653750216029e-07,2.0701770782470703,0.2,-3.1220819694926147,25.07870625177293,10.0,3.9996753246753247,8.0,30.918944037500225,9.0
subject-02,1,169,0.71488881111145,knife,knife,inf,inf_knife_10_n03041632_22286.png,True,-0.8953542838278775,1.4530810403812213e-05,1.0,-8.344653750216029e-07,2.0701770782470703,0.2,-3.1220819694926147,25.07870625177293,10.0,3.9996753246753247,8.0,30.918944037500225,9.0
subject-01,1,1164,0.865960121154785,knife,knife,inf,inf_knife_10_n03041632_22286.png,True,0.10742024362793667,1.4530810403812213e-05,1.0,-8.344653750216029e-07,2.0701770782470703,0.2,-3.1220819694926147,25.07870625177293,10.0,3.9996753246753247,8.0,30.918944037500225,9.0
subject-04,1,47,1.02735781669617,dog,dog,1.5,1.5_dog_10_n02093256_11232.png,True,-0.14712782728668297,1.3422051668167114,1.0,-0.5116989746532579,1.76808500289917,0.0833333333333333,-4.666353296503246,26.927449345588684,10.0,1.9595598845598845,10.0,39.313637552926096,10.0
subject-03,1,895,0.921570062637329,dog,dog,1.5,1.5_dog_10_n02093256_11232.png,True,-0.23511889721026707,1.3422051668167114,1.0,-0.5116989746532579,1.76808500289917,0.0833333333333333,-4.666353296503246,26.927449345588684,10.0,1.9595598845598845,10.0,39.313637552926096,10.0
subject-02,1,436,1.01481294631958,dog,dog,1.5,1.5_dog_10_n02093256_11232.png,True,0.4627329646695836,1.3422051668167114,1.0,-0.5116989746532579,1.76808500289917,0.0833333333333333,-4.666353296503246,26.927449345588684,10.0,1.9595598845598845,10.0,39.313637552926096,10.0
subject-01,1,264,0.851632118225098,dog,dog,1.5,1.5_dog_10_n02093256_11232.png,True,0.045732231361025145,1.3422051668167114,1.0,-0.5116989746532579,1.76808500289917,0.0833333333333333,-4.666353296503246,26.927449345588684,10.0,1.9595598845598845,10.0,39.313637552926096,10.0
subject-04,1,48,0.983374834060669,cat,bottle,0.45,0.45_bottle_10_n03937543_438.png,False,-0.3318644701531982,1.6839001178741455,0.25,-3.344627007635756,1.3350284099578855,0.5,-1.7455479050740546,25.877975344657898,10.0,2.9409090909090905,10.0,28.38342784398573,1.0
subject-03,1,1220,0.933701992034912,oven,bottle,0.45,0.45_bottle_10_n03937543_438.png,False,-0.1804661535512861,1.6839001178741455,0.25,-3.344627007635756,1.3350284099578855,0.5,-1.7455479050740546,25.877975344657898,10.0,2.9409090909090905,10.0,28.38342784398573,1.0
subject-02,1,194,0.968201160430908,dog,bottle,0.45,0.45_bottle_10_n03937543_438.png,False,0.25167001703060504,1.6839001178741455,0.25,-3.344627007635756,1.3350284099578855,0.5,-1.7455479050740546,25.877975344657898,10.0,2.9409090909090905,10.0,28.38342784398573,1.0
subject-01,1,1257,0.749221086502075,clock,bottle,0.45,0.45_bottle_10_n03937543_438.png,False,-0.3951898575162203,1.6839001178741455,0.25,-3.344627007635756,1.3350284099578855,0.5,-1.7455479050740546,25.877975344657898,10.0,2.9409090909090905,10.0,28.38342784398573,1.0
subject-04,1,49,1.0751359462738,airplane,knife,0.4,0.4_knife_10_n03041632_83826.png,False,0.05354913302224404,1.7259726524353027,1.0,-0.8163648896432877,1.3196079730987549,0.1428571428571428,-4.686053889067767,25.845460653305054,10.0,3.129401154401154,10.0,38.21845160862982,10.0
subject-03,1,733,1.04298114776611,dog,knife,0.4,0.4_knife_10_n03041632_83826.png,False,0.31182204643089334,1.7259726524353027,1.0,-0.8163648896432877,1.3196079730987549,0.1428571428571428,-4.686053889067767,25.845460653305054,10.0,3.129401154401154,10.0,38.21845160862982,10.0
subject-02,1,1103,0.909467220306396,car,knife,0.4,0.4_knife_10_n03041632_83826.png,False,-0.014283288400317203,1.7259726524353027,1.0,-0.8163648896432877,1.3196079730987549,0.1428571428571428,-4.686053889067767,25.845460653305054,10.0,3.129401154401154,10.0,38.21845160862982,10.0
subject-01,1,204,0.526704788208008,boat,knife,0.4,0.4_knife_10_n03041632_83826.png,False,-1.3532150761118418,1.7259726524353027,1.0,-0.8163648896432877,1.3196079730987549,0.1428571428571428,-4.686053889067767,25.845460653305054,10.0,3.129401154401154,10.0,38.21845160862982,10.0
subject-04,1,50,1.26902890205383,bicycle,knife,0.45,0.45_knife_10_n03041632_3516.png,False,0.8679353246798506,1.749555587768555,1.0,-0.7046870459102879,1.4245281219482422,0.125,-4.572317382025896,26.018369674682617,10.0,3.8071789321789318,8.0,37.56406256873371,6.0
subject-03,1,634,0.706159114837646,boat,knife,0.45,0.45_knife_10_n03041632_3516.png,False,-1.2055168385121389,1.749555587768555,1.0,-0.7046870459102879,1.4245281219482422,0.125,-4.572317382025896,26.018369674682617,10.0,3.8071789321789318,8.0,37.56406256873371,6.0
subject-02,1,1148,0.770848989486694,oven,knife,0.45,0.45_knife_10_n03041632_3516.png,False,-0.6419608561121537,1.749555587768555,1.0,-0.7046870459102879,1.4245281219482422,0.125,-4.572317382025896,26.018369674682617,10.0,3.8071789321789318,8.0,37.56406256873371,6.0
subject-01,1,183,0.696703910827637,clock,knife,0.45,0.45_knife_10_n03041632_3516.png,False,-0.6212981430272306,1.749555587768555,1.0,-0.7046870459102879,1.4245281219482422,0.125,-4.572317382025896,26.018369674682617,10.0,3.8071789321789318,8.0,37.56406256873371,6.0
subject-04,1,51,1.00471496582031,car,cat,0.55,0.55_cat_10_n02123045_5080.png,False,-0.24223197905371685,1.476824164390564,0.3333333333333333,-2.775745713120568,1.6651055812835691,0.1428571428571428,-3.839362586482726,27.171339631080627,10.0,1.6928571428571426,7.0,37.92316102252205,6.0
subject-03,1,575,0.847215175628662,bear,cat,0.55,0.55_cat_10_n02123045_5080.png,False,-0.570077867568829,1.476824164390564,0.3333333333333333,-2.775745713120568,1.6651055812835691,0.1428571428571428,-3.839362586482726,27.171339631080627,10.0,1.6928571428571426,7.0,37.92316102252205,6.0
subject-02,1,597,0.980454921722412,bird,cat,0.55,0.55_cat_10_n02123045_5080.png,False,0.30715630506999547,1.476824164390564,0.3333333333333333,-2.775745713120568,1.6651055812835691,0.1428571428571428,-3.839362586482726,27.171339631080627,10.0,1.6928571428571426,7.0,37.92316102252205,6.0
subject-01,1,829,0.564245939254761,boat,cat,0.55,0.55_cat_10_n02123045_5080.png,False,-1.191584805818712,1.476824164390564,0.3333333333333333,-2.775745713120568,1.6651055812835691,0.1428571428571428,-3.839362586482726,27.171339631080627,10.0,1.6928571428571426,7.0,37.92316102252205,6.0
subject-04,1,52,1.08877897262573,cat,bird,0.7,0.7_bird_10_n01798484_18666.png,False,0.11085236112939441,1.047461748123169,0.0769230769230769,-5.881063533948868,1.740574836730957,0.1111111111111111,-4.44237428598889,26.811782598495483,10.0,0.43072899322899305,0.0,45.01809817593157,6.0
subject-03,1,232,1.36782288551331,bird,bird,0.7,0.7_bird_10_n01798484_18666.png,True,1.7751912798829617,1.047461748123169,0.0769230769230769,-5.881063533948868,1.740574836730957,0.1111111111111111,-4.44237428598889,26.811782598495483,10.0,0.43072899322899305,0.0,45.01809817593157,6.0
subject-02,1,27,1.26327896118164,bear,bird,0.7,0.7_bird_10_n01798484_18666.png,False,1.5878125659993707,1.047461748123169,0.0769230769230769,-5.881063533948868,1.740574836730957,0.1111111111111111,-4.44237428598889,26.811782598495483,10.0,0.43072899322899305,0.0,45.01809817593157,6.0
subject-01,1,442,0.997375965118408,bear,bird,0.7,0.7_bird_10_n01798484_18666.png,False,0.6732201135942926,1.047461748123169,0.0769230769230769,-5.881063533948868,1.740574836730957,0.1111111111111111,-4.44237428598889,26.811782598495483,10.0,0.43072899322899305,0.0,45.01809817593157,6.0
subject-04,1,53,1.00445318222046,cat,dog,0.7,0.7_dog_10_n02098286_2699.png,False,-0.2433315184777385,1.885953426361084,0.125,-3.691100313869926,1.511133909225464,0.0666666666666666,-5.113848228213401,26.484941124916077,10.0,0.4702131202131199,8.0,45.63789334792713,6.0
subject-03,1,1183,0.677337169647217,oven,dog,0.7,0.7_dog_10_n02098286_2699.png,False,-1.3353559045521652,1.885953426361084,0.125,-3.691100313869926,1.511133909225464,0.0666666666666666,-5.113848228213401,26.484941124916077,10.0,0.4702131202131199,8.0,45.63789334792713,6.0
subject-02,1,227,1.21401619911194,cat,dog,0.7,0.7_dog_10_n02098286_2699.png,False,1.364745726292733,1.885953426361084,0.125,-3.691100313869926,1.511133909225464,0.0666666666666666,-5.113848228213401,26.484941124916077,10.0,0.4702131202131199,8.0,45.63789334792713,6.0
subject-01,1,154,0.886531114578247,bicycle,dog,0.7,0.7_dog_10_n02098286_2699.png,False,0.1959869267083673,1.885953426361084,0.125,-3.691100313869926,1.511133909225464,0.0666666666666666,-5.113848228213401,26.484941124916077,10.0,0.4702131202131199,8.0,45.63789334792713,6.0
subject-04,1,54,1.40616011619568,bird,knife,0.45,0.45_knife_10_n03041632_2184.png,False,1.4439117277063875,1.5894410610198977,0.5,-1.0377455470364096,1.364516019821167,0.125,-4.851426531941585,25.762571334838867,10.0,2.5266955266955264,8.0,39.56872545116606,6.0
subject-03,1,828,0.962383985519409,car,knife,0.45,0.45_knife_10_n03041632_2184.png,False,-0.05125755150905267,1.5894410610198977,0.5,-1.0377455470364096,1.364516019821167,0.125,-4.851426531941585,25.762571334838867,10.0,2.5266955266955264,8.0,39.56872545116606,6.0
subject-02,1,930,0.888067960739136,car,knife,0.45,0.45_knife_10_n03041632_2184.png,False,-0.11118133071830474,1.5894410610198977,0.5,-1.0377455470364096,1.364516019821167,0.125,-4.851426531941585,25.762571334838867,10.0,2.5266955266955264,8.0,39.56872545116606,6.0
subject-01,1,92,1.01423907279968,bear,knife,0.45,0.45_knife_10_n03041632_2184.png,False,0.7458228062797606,1.5894410610198977,0.5,-1.0377455470364096,1.364516019821167,0.125,-4.851426531941585,25.762571334838867,10.0,2.5266955266955264,8.0,39.56872545116606,6.0
subject-04,1,55,1.0821750164032,car,cat,0.55,0.55_cat_10_n02125311_22122.png,False,0.08311452642413972,2.1021358966827393,0.1666666666666666,-2.992223609822172,1.445920467376709,0.1666666666666666,-4.0698654311879565,26.6945698261261,10.0,2.4928571428571424,9.0,38.96433239576978,6.0
subject-03,1,336,1.00176382064819,cat,cat,0.55,0.55_cat_10_n02125311_22122.png,True,0.126143417792251,2.1021358966827393,0.1666666666666666,-2.992223609822172,1.445920467376709,0.1666666666666666,-4.0698654311879565,26.6945698261261,10.0,2.4928571428571424,9.0,38.96433239576978,6.0
subject-02,1,773,0.860169887542725,cat,cat,0.55,0.55_cat_10_n02125311_22122.png,True,-0.23750666775529364,2.1021358966827393,0.1666666666666666,-2.992223609822172,1.445920467376709,0.1666666666666666,-4.0698654311879565,26.6945698261261,10.0,2.4928571428571424,9.0,38.96433239576978,6.0
subject-01,1,821,0.577784061431885,clock,cat,0.55,0.55_cat_10_n02125311_22122.png,False,-1.1332975587381717,2.1021358966827393,0.1666666666666666,-2.992223609822172,1.445920467376709,0.1666666666666666,-4.0698654311879565,26.6945698261261,10.0,2.4928571428571424,9.0,38.96433239576978,6.0
subject-04,1,56,0.601953983306885,boat,boat,inf,inf_boat_10_n02951358_3205.png,True,-1.9339024235927176,0.0003256088530179,1.0,-2.3126869596838672e-05,2.09335994720459,0.25,-2.3894161876036795,25.841924596432364,10.0,3.465909090909091,9.0,25.928554859768667,9.0
subject-03,1,272,0.605650186538696,boat,boat,inf,inf_boat_10_n02951358_3205.png,True,-1.6582963193139133,0.0003256088530179,1.0,-2.3126869596838672e-05,2.09335994720459,0.25,-2.3894161876036795,25.841924596432364,10.0,3.465909090909091,9.0,25.928554859768667,9.0
subject-02,1,983,1.18301296234131,boat,boat,inf,inf_boat_10_n02951358_3205.png,True,1.2243598900841137,0.0003256088530179,1.0,-2.3126869596838672e-05,2.09335994720459,0.25,-2.3894161876036795,25.841924596432364,10.0,3.465909090909091,9.0,25.928554859768667,9.0
subject-01,1,393,0.63608717918396,boat,boat,inf,inf_boat_10_n02951358_3205.png,True,-0.8822783859519094,0.0003256088530179,1.0,-2.3126869596838672e-05,2.09335994720459,0.25,-2.3894161876036795,25.841924596432364,10.0,3.465909090909091,9.0,25.928554859768667,9.0
subject-04,1,57,0.907967090606689,chair,chair,inf,inf_chair_10_n03376595_10769.png,True,-0.6485909069952404,0.0147098517045378,1.0,-0.0015465052434618545,1.921451210975647,0.0714285714285714,-4.870702223774537,25.351749083958566,10.0,1.321245421245421,10.0,45.52563984751262,10.0
subject-03,1,573,1.15363502502441,chair,chair,inf,inf_chair_10_n03376595_10769.png,True,0.8103031857849559,0.0147098517045378,1.0,-0.0015465052434618545,1.921451210975647,0.0714285714285714,-4.870702223774537,25.351749083958566,10.0,1.321245421245421,10.0,45.52563984751262,10.0
subject-02,1,143,0.78228497505188,chair,chair,inf,inf_chair_10_n03376595_10769.png,True,-0.5901775404436682,0.0147098517045378,1.0,-0.0015465052434618545,1.921451210975647,0.0714285714285714,-4.870702223774537,25.351749083958566,10.0,1.321245421245421,10.0,45.52563984751262,10.0
subject-01,1,201,0.833606004714966,chair,chair,inf,inf_chair_10_n03376595_10769.png,True,-0.031877685163611315,0.0147098517045378,1.0,-0.0015465052434618545,1.921451210975647,0.0714285714285714,-4.870702223774537,25.351749083958566,10.0,1.321245421245421,10.0,45.52563984751262,10.0
subject-04,1,58,1.05536794662476,car,chair,0.7,0.7_chair_10_n03376595_3566.png,False,-0.029480113120841322,2.0655696392059326,0.5,-1.7081194419816808,1.6416071653366089,0.0769230769230769,-4.911576638084767,27.061808109283447,10.0,0.6249139749139746,10.0,46.62610602227362,6.0
subject-03,1,322,0.898418188095093,boat,chair,0.7,0.7_chair_10_n03376595_3566.png,False,-0.3394150419631202,2.0655696392059326,0.5,-1.7081194419816808,1.6416071653366089,0.0769230769230769,-4.911576638084767,27.061808109283447,10.0,0.6249139749139746,10.0,46.62610602227362,6.0
subject-02,1,176,0.777646064758301,car,chair,0.7,0.7_chair_10_n03376595_3566.png,False,-0.6111830020823635,2.0655696392059326,0.5,-1.7081194419816808,1.6416071653366089,0.0769230769230769,-4.911576638084767,27.061808109283447,10.0,0.6249139749139746,10.0,46.62610602227362,6.0
subject-01,1,478,1.02693700790405,car,chair,0.7,0.7_chair_10_n03376595_3566.png,False,0.8004926985408686,2.0655696392059326,0.5,-1.7081194419816808,1.6416071653366089,0.0769230769230769,-4.911576638084767,27.061808109283447,10.0,0.6249139749139746,10.0,46.62610602227362,6.0
subject-04,1,59,1.3491690158844,bird,bear,0.45,0.45_bear_10_n02133161_2749.png,False,1.2045385903267354,1.7565057277679443,0.3333333333333333,-1.9283730799696284,1.4840689897537231,0.1428571428571428,-4.342972836479204,26.655760049819946,10.0,1.6857142857142853,9.0,37.043627638934026,5.0
subject-03,1,1064,0.695745944976807,clock,bear,0.45,0.45_bear_10_n02133161_2749.png,False,-1.252426796889843,1.7565057277679443,0.3333333333333333,-1.9283730799696284,1.4840689897537231,0.1428571428571428,-4.342972836479204,26.655760049819946,10.0,1.6857142857142853,9.0,37.043627638934026,5.0
subject-02,1,710,0.598595857620239,bottle,bear,0.45,0.45_bear_10_n02133161_2749.png,False,-1.4219407058139688,1.7565057277679443,0.3333333333333333,-1.9283730799696284,1.4840689897537231,0.1428571428571428,-4.342972836479204,26.655760049819946,10.0,1.6857142857142853,9.0,37.043627638934026,5.0
subject-01,1,431,0.475349187850952,airplane,bear,0.45,0.45_bear_10_n02133161_2749.png,False,-1.5743222967306103,1.7565057277679443,0.3333333333333333,-1.9283730799696284,1.4840689897537231,0.1428571428571428,-4.342972836479204,26.655760049819946,10.0,1.6857142857142853,9.0,37.043627638934026,5.0
subject-04,1,60,0.654938936233521,boat,boat,3.0,3_boat_10_n03662601_15713.png,True,-1.711355844448119,1.5840678215026855,0.3333333333333333,-1.7321442318985614,1.9497456550598145,0.25,-2.767486490176976,27.266390323638916,10.0,2.7443181818181817,0.0,29.7916614843074,10.0
subject-03,1,161,0.604951858520508,boat,boat,3.0,3_boat_10_n03662601_15713.png,True,-1.6614421950371525,1.5840678215026855,0.3333333333333333,-1.7321442318985614,1.9497456550598145,0.25,-2.767486490176976,27.266390323638916,10.0,2.7443181818181817,0.0,29.7916614843074,10.0
subject-02,1,795,0.648306846618652,boat,boat,3.0,3_boat_10_n03662601_15713.png,True,-1.1968442485979034,1.5840678215026855,0.3333333333333333,-1.7321442318985614,1.9497456550598145,0.25,-2.767486490176976,27.266390323638916,10.0,2.7443181818181817,0.0,29.7916614843074,10.0
subject-01,1,593,1.20494604110718,boat,boat,3.0,3_boat_10_n03662601_15713.png,True,1.5668956283660356,1.5840678215026855,0.3333333333333333,-1.7321442318985614,1.9497456550598145,0.25,-2.767486490176976,27.266390323638916,10.0,2.7443181818181817,0.0,29.7916614843074,10.0
subject-04,1,61,1.14477896690369,clock,knife,1.5,1.5_knife_10_n03041632_1201.png,False,0.3460626702889231,0.8623629808425903,1.0,-0.27578726587112984,1.707309007644653,0.125,-3.971742953093277,25.795130372047424,10.0,4.357575757575757,7.0,35.17810865941388,6.0
subject-03,1,738,1.14210891723633,boat,knife,1.5,1.5_knife_10_n03041632_1201.png,False,0.7583795886650098,0.8623629808425903,1.0,-0.27578726587112984,1.707309007644653,0.125,-3.971742953093277,25.795130372047424,10.0,4.357575757575757,7.0,35.17810865941388,6.0
subject-02,1,1150,0.920550107955933,oven,knife,1.5,1.5_knife_10_n03041632_1201.png,False,0.03590116368761224,0.8623629808425903,1.0,-0.27578726587112984,1.707309007644653,0.125,-3.971742953093277,25.795130372047424,10.0,4.357575757575757,7.0,35.17810865941388,6.0
subject-01,1,920,0.76490306854248,bicycle,knife,1.5,1.5_knife_10_n03041632_1201.png,False,-0.32767240199744746,0.8623629808425903,1.0,-0.27578726587112984,1.707309007644653,0.125,-3.971742953093277,25.795130372047424,10.0,4.357575757575757,7.0,35.17810865941388,6.0
subject-04,1,62,0.678547143936157,cat,cat,inf,inf_cat_10_n02125311_18354.png,True,-1.612197015879723,0.0469211153686046,1.0,-0.006348033308591873,1.6679043769836426,0.2,-3.6383959968631263,25.064084630459547,10.0,4.803968253968254,7.0,30.97306126401407,6.0
subject-03,1,1235,0.706902027130127,cat,cat,inf,inf_cat_10_n02125311_18354.png,True,-1.2021701165068035,0.0469211153686046,1.0,-0.006348033308591873,1.6679043769836426,0.2,-3.6383959968631263,25.064084630459547,10.0,4.803968253968254,7.0,30.97306126401407,6.0
subject-02,1,715,0.79570484161377,cat,cat,inf,inf_cat_10_n02125311_18354.png,True,-0.5294110081284449,0.0469211153686046,1.0,-0.006348033308591873,1.6679043769836426,0.2,-3.6383959968631263,25.064084630459547,10.0,4.803968253968254,7.0,30.97306126401407,6.0
subject-01,1,731,0.651427030563354,cat,cat,inf,inf_cat_10_n02125311_18354.png,True,-0.8162339452361697,0.0469211153686046,1.0,-0.006348033308591873,1.6679043769836426,0.2,-3.6383959968631263,25.064084630459547,10.0,4.803968253968254,7.0,30.97306126401407,6.0
subject-04,1,63,1.1844310760498,bird,knife,1.5,1.5_knife_10_n03041632_23667.png,False,0.5126088453615617,1.8250385522842407,1.0,-0.6652882931653665,1.6855614185333252,0.1111111111111111,-4.471367639705531,26.873422265052795,10.0,2.043362193362193,10.0,38.663673908647034,10.0
subject-03,1,1101,0.857139110565186,bird,knife,1.5,1.5_knife_10_n03041632_23667.png,False,-0.5253718480726798,1.8250385522842407,1.0,-0.6652882931653665,1.6855614185333252,0.1111111111111111,-4.471367639705531,26.873422265052795,10.0,2.043362193362193,10.0,38.663673908647034,10.0
subject-02,1,98,1.44081401824951,bird,knife,1.5,1.5_knife_10_n03041632_23667.png,False,2.3917095147988667,1.8250385522842407,1.0,-0.6652882931653665,1.6855614185333252,0.1111111111111111,-4.471367639705531,26.873422265052795,10.0,2.043362193362193,10.0,38.663673908647034,10.0
subject-01,1,77,0.793586015701294,cat,knife,1.5,1.5_knife_10_n03041632_23667.png,False,-0.20418038396344956,1.8250385522842407,1.0,-0.6652882931653665,1.6855614185333252,0.1111111111111111,-4.471367639705531,26.873422265052795,10.0,2.043362193362193,10.0,38.663673908647034,10.0
subject-04,1,64,0.758330821990967,keyboard,keyboard,1.5,1.5_keyboard_10_n04505470_2620.png,True,-1.2770908462610258,0.0016665596049278,1.0,-0.00013906730567050146,1.5879179239273071,0.1,-4.633942309677726,24.43174590053968,10.0,2.518265068265068,9.0,38.17451115403897,6.0
subject-03,1,1162,1.11482405662537,keyboard,keyboard,1.5,1.5_keyboard_10_n04505470_2620.png,True,0.6354648861578469,0.0016665596049278,1.0,-0.00013906730567050146,1.5879179239273071,0.1,-4.633942309677726,24.43174590053968,10.0,2.518265068265068,9.0,38.17451115403897,6.0
subject-02,1,154,1.05245184898376,keyboard,keyboard,1.5,1.5_keyboard_10_n04505470_2620.png,True,0.6331657766878216,0.0016665596049278,1.0,-0.00013906730567050146,1.5879179239273071,0.1,-4.633942309677726,24.43174590053968,10.0,2.518265068265068,9.0,38.17451115403897,6.0
subject-01,1,1184,0.896076917648315,keyboard,keyboard,1.5,1.5_keyboard_10_n04505470_2620.png,True,0.23708557944969108,0.0016665596049278,1.0,-0.00013906730567050146,1.5879179239273071,0.1,-4.633942309677726,24.43174590053968,10.0,2.518265068265068,9.0,38.17451115403897,6.0
subject-04,1,65,0.894141912460327,car,car,1.5,1.5_car_10_n02814533_14627.png,True,-0.7066592062498919,0.2515787184238434,1.0,-0.048307497949995344,1.7378008365631104,0.0909090909090909,-4.7932116237133355,25.28351417183876,10.0,2.8995171495171492,9.0,42.70428971984164,10.0
subject-03,1,40,0.780559062957764,car,car,1.5,1.5_car_10_n02814533_14627.png,True,-0.8703548737829033,0.2515787184238434,1.0,-0.048307497949995344,1.7378008365631104,0.0909090909090909,-4.7932116237133355,25.28351417183876,10.0,2.8995171495171492,9.0,42.70428971984164,10.0
subject-02,1,168,1.14706587791443,car,car,1.5,1.5_car_10_n02814533_14627.png,True,1.0615878045801264,0.2515787184238434,1.0,-0.048307497949995344,1.7378008365631104,0.0909090909090909,-4.7932116237133355,25.28351417183876,10.0,2.8995171495171492,9.0,42.70428971984164,10.0
subject-01,1,114,1.03630709648132,car,car,1.5,1.5_car_10_n02814533_14627.png,True,0.840834827303212,0.2515787184238434,1.0,-0.048307497949995344,1.7378008365631104,0.0909090909090909,-4.7932116237133355,25.28351417183876,10.0,2.8995171495171492,9.0,42.70428971984164,10.0
subject-04,1,66,0.875997066497803,bird,bird,1.0,1_bird_10_n01558993_12930.png,True,-0.7828709074031724,1.858800172805786,0.5,-1.6242319606697913,1.7231720685958862,0.125,-4.11838619203374,26.83381164073944,10.0,1.1694444444444443,10.0,39.52881519336958,10.0
subject-03,1,939,1.06735301017761,bird,bird,1.0,1_bird_10_n01558993_12930.png,True,0.421614075811895,1.858800172805786,0.5,-1.6242319606697913,1.7231720685958862,0.125,-4.11838619203374,26.83381164073944,10.0,1.1694444444444443,10.0,39.52881519336958,10.0
subject-02,1,74,0.796591997146606,bird,bird,1.0,1_bird_10_n01558993_12930.png,True,-0.5253938768770954,1.858800172805786,0.5,-1.6242319606697913,1.7231720685958862,0.125,-4.11838619203374,26.83381164073944,10.0,1.1694444444444443,10.0,39.52881519336958,10.0
subject-01,1,1082,1.3224630355835,clock,bird,1.0,1_bird_10_n01558993_12930.png,False,2.072855170138976,1.858800172805786,0.5,-1.6242319606697913,1.7231720685958862,0.125,-4.11838619203374,26.83381164073944,10.0,1.1694444444444443,10.0,39.52881519336958,10.0
subject-04,1,67,1.17174005508423,clock,bicycle,0.4,0.4_bicycle_10_n03792782_26834.png,False,0.45930421554240114,1.792149782180786,0.3333333333333333,-2.6534516444363763,1.4409222602844238,0.2,-3.858159394744865,26.054498195648193,10.0,1.2825757575757575,10.0,37.48839629756767,7.0
subject-03,1,207,0.86428689956665,oven,bicycle,0.4,0.4_bicycle_10_n03792782_26834.png,False,-0.49317200028067737,1.792149782180786,0.3333333333333333,-2.6534516444363763,1.4409222602844238,0.2,-3.858159394744865,26.054498195648193,10.0,1.2825757575757575,10.0,37.48839629756767,7.0
subject-02,1,420,0.8697829246521,oven,bicycle,0.4,0.4_bicycle_10_n03792782_26834.png,False,-0.19397784968096488,1.792149782180786,0.3333333333333333,-2.6534516444363763,1.4409222602844238,0.2,-3.858159394744865,26.054498195648193,10.0,1.2825757575757575,10.0,37.48839629756767,7.0
subject-01,1,372,0.735985994338989,clock,bicycle,0.4,0.4_bicycle_10_n03792782_26834.png,False,-0.4521724343426463,1.792149782180786,0.3333333333333333,-2.6534516444363763,1.4409222602844238,0.2,-3.858159394744865,26.054498195648193,10.0,1.2825757575757575,10.0,37.48839629756767,7.0
subject-04,1,68,0.949815034866333,chair,keyboard,0.45,0.45_keyboard_10_n03085013_22585.png,False,-0.47282181926739525,1.6073594093322754,0.2,-3.6931267836385695,1.5307068824768066,0.1,-4.737725386306548,26.238670825958252,10.0,1.1817821067821066,9.0,44.13649797073472,6.0
subject-03,1,288,1.0947859287262,bear,keyboard,0.45,0.45_keyboard_10_n03085013_22585.png,False,0.5451957598227242,1.6073594093322754,0.2,-3.6931267836385695,1.5307068824768066,0.1,-4.737725386306548,26.238670825958252,10.0,1.1817821067821066,9.0,44.13649797073472,6.0
subject-02,1,1023,0.877458810806274,car,keyboard,0.45,0.45_keyboard_10_n03085013_22585.png,False,-0.15922064983218379,1.6073594093322754,0.2,-3.6931267836385695,1.5307068824768066,0.1,-4.737725386306548,26.238670825958252,10.0,1.1817821067821066,9.0,44.13649797073472,6.0
subject-01,1,70,0.72870922088623,bicycle,keyboard,0.45,0.45_keyboard_10_n03085013_22585.png,False,-0.48350197079097107,1.6073594093322754,0.2,-3.6931267836385695,1.5307068824768066,0.1,-4.737725386306548,26.238670825958252,10.0,1.1817821067821066,9.0,44.13649797073472,6.0
subject-04,1,69,0.701472043991089,boat,knife,0.45,0.45_knife_10_n03041632_6708.png,False,-1.515908205516504,1.1310231685638428,1.0,-0.3122363522300534,1.397839069366455,0.125,-4.724510824509024,25.436412930488586,10.0,3.2401515151515152,8.0,37.619089331623485,10.0
subject-03,1,975,0.750491857528687,boat,knife,0.45,0.45_knife_10_n03041632_6708.png,False,-1.0058036731457356,1.1310231685638428,1.0,-0.3122363522300534,1.397839069366455,0.125,-4.724510824509024,25.436412930488586,10.0,3.2401515151515152,8.0,37.619089331623485,10.0
subject-02,1,1113,0.757843971252441,oven,knife,0.45,0.45_knife_10_n03041632_6708.png,False,-0.7008489126473827,1.1310231685638428,1.0,-0.3122363522300534,1.397839069366455,0.125,-4.724510824509024,25.436412930488586,10.0,3.2401515151515152,8.0,37.619089331623485,10.0
subject-01,1,48,1.00894284248352,bicycle,knife,0.45,0.45_knife_10_n03041632_6708.png,False,0.723020331830602,1.1310231685638428,1.0,-0.3122363522300534,1.397839069366455,0.125,-4.724510824509024,25.436412930488586,10.0,3.2401515151515152,8.0,37.619089331623485,10.0
subject-04,1,70,0.925220012664795,bottle,bottle,1.5,1.5_bottle_10_n04579145_1174.png,True,-0.5761254508194795,0.9689110517501832,1.0,-0.24148529627431337,1.4600858688354492,0.5,-1.7760024295772474,25.375561237335205,10.0,5.083333333333334,10.0,22.942373299165727,10.0
subject-03,1,1273,1.05977916717529,bottle,bottle,1.5,1.5_bottle_10_n04579145_1174.png,True,0.3874949108749784,0.9689110517501832,1.0,-0.24148529627431337,1.4600858688354492,0.5,-1.7760024295772474,25.375561237335205,10.0,5.083333333333334,10.0,22.942373299165727,10.0
subject-02,1,89,0.87469482421875,bottle,bottle,1.5,1.5_bottle_10_n04579145_1174.png,True,-0.1717362646123329,0.9689110517501832,1.0,-0.24148529627431337,1.4600858688354492,0.5,-1.7760024295772474,25.375561237335205,10.0,5.083333333333334,10.0,22.942373299165727,10.0
subject-01,1,818,0.624579906463623,bottle,bottle,1.5,1.5_bottle_10_n04579145_1174.png,True,-0.9318219814002351,0.9689110517501832,1.0,-0.24148529627431337,1.4600858688354492,0.5,-1.7760024295772474,25.375561237335205,10.0,5.083333333333334,10.0,22.942373299165727,10.0
subject-04,1,71,0.764847040176392,cat,clock,0.4,0.4_clock_10_n02708093_2580.png,False,-1.249721527501149,0.9694463610649108,1.0,-0.23456016322550363,1.1775031089782717,1.0,-0.4128031910406133,24.263584792613983,10.0,9.333333333333332,10.0,15.568759591100642,10.0
subject-03,1,85,1.24976205825806,bicycle,clock,0.4,0.4_clock_10_n02708093_2580.png,False,1.2433428065944594,0.9694463610649108,1.0,-0.23456016322550363,1.1775031089782717,1.0,-0.4128031910406133,24.263584792613983,10.0,9.333333333333332,10.0,15.568759591100642,10.0
subject-02,1,722,0.614375114440918,airplane,clock,0.4,0.4_clock_10_n02708093_2580.png,False,-1.3504906123959792,0.9694463610649108,1.0,-0.23456016322550363,1.1775031089782717,1.0,-0.4128031910406133,24.263584792613983,10.0,9.333333333333332,10.0,15.568759591100642,10.0
subject-01,1,589,0.645495891571045,bear,clock,0.4,0.4_clock_10_n02708093_2580.png,False,-0.8417699656229485,0.9694463610649108,1.0,-0.23456016322550363,1.1775031089782717,1.0,-0.4128031910406133,24.263584792613983,10.0,9.333333333333332,10.0,15.568759591100642,10.0
subject-04,1,72,1.50012111663818,chair,chair,3.0,3_chair_10_n04429376_7279.png,True,1.8385652673714294,1.3315281867980957,1.0,-0.5214704070194743,1.781658411026001,0.0666666666666666,-5.190111701428753,26.786025166511536,10.0,1.0650183150183146,10.0,46.756481619762916,10.0
subject-03,1,1038,1.50017189979553,truck,chair,3.0,3_chair_10_n04429376_7279.png,False,2.371406153382475,1.3315281867980957,1.0,-0.5214704070194743,1.781658411026001,0.0666666666666666,-5.190111701428753,26.786025166511536,10.0,1.0650183150183146,10.0,46.756481619762916,10.0
subject-02,1,488,0.882768869400024,oven,chair,3.0,3_chair_10_n04429376_7279.png,False,-0.13517615984826886,1.3315281867980957,1.0,-0.5214704070194743,1.781658411026001,0.0666666666666666,-5.190111701428753,26.786025166511536,10.0,1.0650183150183146,10.0,46.756481619762916,10.0
subject-01,1,556,0.84455394744873,knife,chair,3.0,3_chair_10_n04429376_7279.png,False,0.015257762042263047,1.3315281867980957,1.0,-0.5214704070194743,1.781658411026001,0.0666666666666666,-5.190111701428753,26.786025166511536,10.0,1.0650183150183146,10.0,46.756481619762916,10.0
subject-04,1,73,1.28846001625061,boat,boat,1.0,1_boat_10_n03662601_18924.png,True,0.9495495897609009,0.3597187399864197,1.0,-0.06076997085479887,1.7071675062179563,0.25,-2.5199649619432476,25.88891965150833,10.0,4.699999999999999,0.0,24.664970567514633,10.0
subject-03,1,750,0.683868169784546,boat,boat,1.0,1_boat_10_n03662601_18924.png,True,-1.305934609336474,0.3597187399864197,1.0,-0.06076997085479887,1.7071675062179563,0.25,-2.5199649619432476,25.88891965150833,10.0,4.699999999999999,0.0,24.664970567514633,10.0
subject-02,1,123,0.678024053573608,boat,boat,1.0,1_boat_10_n03662601_18924.png,True,-1.0622816873072651,0.3597187399864197,1.0,-0.06076997085479887,1.7071675062179563,0.25,-2.5199649619432476,25.88891965150833,10.0,4.699999999999999,0.0,24.664970567514633,10.0
subject-01,1,450,1.3161199092865,boat,boat,1.0,1_boat_10_n03662601_18924.png,True,2.045545373041631,0.3597187399864197,1.0,-0.06076997085479887,1.7071675062179563,0.25,-2.5199649619432476,25.88891965150833,10.0,4.699999999999999,0.0,24.664970567514633,10.0
subject-04,1,74,1.062420129776,car,bottle,0.55,0.55_bottle_10_n03937543_4098.png,False,0.00014035739241397637,1.7607977390289309,0.5,-1.3622917954724587,1.431507587432861,0.5,-1.6526919754496956,26.00420641899109,10.0,3.1583333333333337,10.0,25.692348252345155,10.0
subject-03,1,866,0.991184949874878,oven,bottle,0.55,0.55_bottle_10_n03937543_4098.png,False,0.07848699863352333,1.7607977390289309,0.5,-1.3622917954724587,1.431507587432861,0.5,-1.6526919754496956,26.00420641899109,10.0,3.1583333333333337,10.0,25.692348252345155,10.0
subject-02,1,313,0.67176079750061,clock,bottle,0.55,0.55_bottle_10_n03937543_4098.png,False,-1.0906423532500378,1.7607977390289309,0.5,-1.3622917954724587,1.431507587432861,0.5,-1.6526919754496956,26.00420641899109,10.0,3.1583333333333337,10.0,25.692348252345155,10.0
subject-01,1,764,0.507369041442871,truck,bottle,0.55,0.55_bottle_10_n03937543_4098.png,False,-1.436463508534079,1.7607977390289309,0.5,-1.3622917954724587,1.431507587432861,0.5,-1.6526919754496956,26.00420641899109,10.0,3.1583333333333337,10.0,25.692348252345155,10.0
subject-04,1,75,1.13013887405396,bird,airplane,0.4,0.4_airplane_10_n02690373_191.png,False,0.2845715789109998,1.2576141357421875,0.0909090909090909,-4.859644645794392,1.334198236465454,0.3333333333333333,-2.4634321851782,25.35203218460083,10.0,4.84090909090909,0.0,26.563993881966496,6.0
subject-03,1,340,0.847259998321533,keyboard,airplane,0.4,0.4_airplane_10_n02690373_191.png,False,-0.5698759472424487,1.2576141357421875,0.0909090909090909,-4.859644645794392,1.334198236465454,0.3333333333333333,-2.4634321851782,25.35203218460083,10.0,4.84090909090909,0.0,26.563993881966496,6.0
subject-02,1,1261,1.0990788936615,car,airplane,0.4,0.4_airplane_10_n02690373_191.png,False,0.844297817688847,1.2576141357421875,0.0909090909090909,-4.859644645794392,1.334198236465454,0.3333333333333333,-2.4634321851782,25.35203218460083,10.0,4.84090909090909,0.0,26.563993881966496,6.0
subject-01,1,886,0.559474945068359,oven,airplane,0.4,0.4_airplane_10_n02690373_191.png,False,-1.2121259202601615,1.2576141357421875,0.0909090909090909,-4.859644645794392,1.334198236465454,0.3333333333333333,-2.4634321851782,25.35203218460083,10.0,4.84090909090909,0.0,26.563993881966496,6.0
subject-04,1,76,0.619994878768921,boat,boat,inf,inf_boat_10_n03662601_4295.png,True,-1.858127333722569,0.2252054810523986,1.0,-0.037536189157321244,1.9852546453475952,0.25,-2.5146966669953326,25.701553881168365,10.0,4.017857142857142,9.0,26.57749221987449,10.0
subject-03,1,853,0.607855081558228,boat,boat,inf,inf_boat_10_n03662601_4295.png,True,-1.6483635577268358,0.2252054810523986,1.0,-0.037536189157321244,1.9852546453475952,0.25,-2.5146966669953326,25.701553881168365,10.0,4.017857142857142,9.0,26.57749221987449,10.0
subject-02,1,606,0.880754947662354,boat,boat,inf,inf_boat_10_n03662601_4295.png,True,-0.14429540405148544,0.2252054810523986,1.0,-0.037536189157321244,1.9852546453475952,0.25,-2.5146966669953326,25.701553881168365,10.0,4.017857142857142,9.0,26.57749221987449,10.0
subject-01,1,826,0.51318883895874,boat,boat,inf,inf_boat_10_n03662601_4295.png,True,-1.4114068595152536,0.2252054810523986,1.0,-0.037536189157321244,1.9852546453475952,0.25,-2.5146966669953326,25.701553881168365,10.0,4.017857142857142,9.0,26.57749221987449,10.0
subject-04,1,77,0.767827987670898,clock,bicycle,0.4,0.4_bicycle_10_n02835271_9280.png,False,-1.2372009979758984,1.174077033996582,0.0909090909090909,-5.130329816936809,1.3256680965423584,0.2,-4.052360725830809,25.38891911506653,10.0,1.0714646464646467,7.0,40.29211144278128,7.0
subject-03,1,1092,0.928429126739502,truck,bicycle,0.4,0.4_bicycle_10_n02835271_9280.png,False,-0.20421971705255362,1.174077033996582,0.0909090909090909,-5.130329816936809,1.3256680965423584,0.2,-4.052360725830809,25.38891911506653,10.0,1.0714646464646467,7.0,40.29211144278128,7.0
subject-02,1,1062,1.13159203529358,cat,bicycle,0.4,0.4_bicycle_10_n02835271_9280.png,False,0.9915206579863721,1.174077033996582,0.0909090909090909,-5.130329816936809,1.3256680965423584,0.2,-4.052360725830809,25.38891911506653,10.0,1.0714646464646467,7.0,40.29211144278128,7.0
subject-01,1,902,0.818290948867798,cat,bicycle,0.4,0.4_bicycle_10_n02835271_9280.png,False,-0.09781537079955181,1.174077033996582,0.0909090909090909,-5.130329816936809,1.3256680965423584,0.2,-4.052360725830809,25.38891911506653,10.0,1.0714646464646467,7.0,40.29211144278128,7.0
subject-04,1,78,0.707553863525391,bear,knife,0.4,0.4_knife_10_n03041632_40508.png,False,-1.4903634412471507,1.5318224430084229,1.0,-0.7307755818689007,1.5434012413024902,0.1428571428571428,-4.45183503431023,26.002301931381226,10.0,3.3087662337662334,9.0,37.606371768140285,10.0
subject-03,1,1252,0.89787483215332,oven,knife,0.4,0.4_knife_10_n03041632_40508.png,False,-0.34186278889834565,1.5318224430084229,1.0,-0.7307755818689007,1.5434012413024902,0.1428571428571428,-4.45183503431023,26.002301931381226,10.0,3.3087662337662334,9.0,37.606371768140285,10.0
subject-02,1,291,1.36352300643921,bird,knife,0.4,0.4_knife_10_n03041632_40508.png,False,2.0417278853104857,1.5318224430084229,1.0,-0.7307755818689007,1.5434012413024902,0.1428571428571428,-4.45183503431023,26.002301931381226,10.0,3.3087662337662334,9.0,37.606371768140285,10.0
subject-01,1,1192,0.728518009185791,truck,knife,0.4,0.4_knife_10_n03041632_40508.png,False,-0.48432521669482403,1.5318224430084229,1.0,-0.7307755818689007,1.5434012413024902,0.1428571428571428,-4.45183503431023,26.002301931381226,10.0,3.3087662337662334,9.0,37.606371768140285,10.0
subject-04,1,79,0.767842054367065,airplane,airplane,3.0,3_airplane_10_n02690373_3860.png,True,-1.2371419152563918,0.0025807530619204,1.0,-0.000222826986259453,1.9803016185760496,0.3333333333333333,-2.1617873257629823,25.608133545611054,10.0,6.25,0.0,21.44799422803432,10.0
subject-03,1,1053,0.861954927444458,airplane,airplane,3.0,3_airplane_10_n02690373_3860.png,True,-0.5036772274739247,0.0025807530619204,1.0,-0.000222826986259453,1.9803016185760496,0.3333333333333333,-2.1617873257629823,25.608133545611054,10.0,6.25,0.0,21.44799422803432,10.0
subject-02,1,1191,0.60512113571167,airplane,airplane,3.0,3_airplane_10_n02690373_3860.png,True,-1.3923935772952096,0.0025807530619204,1.0,-0.000222826986259453,1.9803016185760496,0.3333333333333333,-2.1617873257629823,25.608133545611054,10.0,6.25,0.0,21.44799422803432,10.0
subject-01,1,873,0.611908912658691,airplane,airplane,3.0,3_airplane_10_n02690373_3860.png,True,-0.9863758801611758,0.0025807530619204,1.0,-0.000222826986259453,1.9803016185760496,0.3333333333333333,-2.1617873257629823,25.608133545611054,10.0,6.25,0.0,21.44799422803432,10.0
subject-04,1,80,0.953125,car,car,inf,inf_car_10_n02814533_43694.png,True,-0.45891935494690367,0.42619189620018,1.0,-0.15661147282129984,1.9252194166183472,0.125,-3.9559869852059726,25.252075999975204,10.0,3.6003968253968255,8.0,40.82044370924171,6.0
subject-03,1,1203,0.943324089050293,car,car,inf,inf_car_10_n02814533_43694.png,True,-0.13711987412534168,0.42619189620018,1.0,-0.15661147282129984,1.9252194166183472,0.125,-3.9559869852059726,25.252075999975204,10.0,3.6003968253968255,8.0,40.82044370924171,6.0
subject-02,1,1003,0.817175149917603,car,car,inf,inf_car_10_n02814533_43694.png,True,-0.43219124984353596,0.42619189620018,1.0,-0.15661147282129984,1.9252194166183472,0.125,-3.9559869852059726,25.252075999975204,10.0,3.6003968253968255,8.0,40.82044370924171,6.0
subject-01,1,639,1.05424308776855,car,car,inf,inf_car_10_n02814533_43694.png,True,0.9180567301724094,0.42619189620018,1.0,-0.15661147282129984,1.9252194166183472,0.125,-3.9559869852059726,25.252075999975204,10.0,3.6003968253968255,8.0,40.82044370924171,6.0
subject-04,1,81,1.02569913864136,chair,chair,1.5,1.5_chair_10_n02791124_2825.png,True,-0.15409458117832642,0.3175667524337768,1.0,-0.05580304660414781,1.7309303283691406,0.0666666666666666,-4.866230628701051,25.358089327812195,10.0,1.1554945054945052,10.0,45.06664845281111,10.0
subject-03,1,1117,0.839750051498413,chair,chair,1.5,1.5_chair_10_n02791124_2825.png,True,-0.6037072683098402,0.3175667524337768,1.0,-0.05580304660414781,1.7309303283691406,0.0666666666666666,-4.866230628701051,25.358089327812195,10.0,1.1554945054945052,10.0,45.06664845281111,10.0
subject-02,1,745,0.715673923492432,chair,chair,1.5,1.5_chair_10_n02791124_2825.png,True,-0.8917992144350485,0.3175667524337768,1.0,-0.05580304660414781,1.7309303283691406,0.0666666666666666,-4.866230628701051,25.358089327812195,10.0,1.1554945054945052,10.0,45.06664845281111,10.0
subject-01,1,935,1.28018522262573,bottle,chair,1.5,1.5_chair_10_n02791124_2825.png,False,1.8908316001302508,0.3175667524337768,1.0,-0.05580304660414781,1.7309303283691406,0.0666666666666666,-4.866230628701051,25.358089327812195,10.0,1.1554945054945052,10.0,45.06664845281111,10.0
subject-04,1,82,0.921716928482056,oven,bottle,inf,inf_bottle_10_n04591713_2052.png,False,-0.590839050780653,0.119027592241764,1.0,-0.017749683509220418,1.88990581035614,0.5,-1.6637262061034392,25.858189322054386,10.0,5.2020202020202015,10.0,22.34427337440129,10.0
subject-03,1,338,0.933765888214111,bottle,bottle,inf,inf_bottle_10_n04591713_2052.png,True,-0.18017830968176549,0.119027592241764,1.0,-0.017749683509220418,1.88990581035614,0.5,-1.6637262061034392,25.858189322054386,10.0,5.2020202020202015,10.0,22.34427337440129,10.0
subject-02,1,1181,0.722666025161743,bottle,bottle,inf,inf_bottle_10_n04591713_2052.png,True,-0.8601382608719097,0.119027592241764,1.0,-0.017749683509220418,1.88990581035614,0.5,-1.6637262061034392,25.858189322054386,10.0,5.2020202020202015,10.0,22.34427337440129,10.0
subject-01,1,1036,1.09355497360229,car,bottle,inf,inf_bottle_10_n04591713_2052.png,False,1.0873107502509876,0.119027592241764,1.0,-0.017749683509220418,1.88990581035614,0.5,-1.6637262061034392,25.858189322054386,10.0,5.2020202020202015,10.0,22.34427337440129,10.0
subject-04,1,83,1.30747318267822,boat,bird,1.0,1_bird_10_n02017213_1150.png,False,1.0294083970911692,1.472405195236206,0.125,-5.068721818395626,1.8422973155975344,0.125,-4.091135149999892,27.388264060020447,10.0,0.5879329004329004,8.0,42.70809258240913,6.0
subject-03,1,751,0.893809080123901,bicycle,bird,1.0,1_bird_10_n02017213_1150.png,False,-0.3601784661630917,1.472405195236206,0.125,-5.068721818395626,1.8422973155975344,0.125,-4.091135149999892,27.388264060020447,10.0,0.5879329004329004,8.0,42.70809258240913,6.0
subject-02,1,891,1.2913920879364,oven,bird,1.0,1_bird_10_n02017213_1150.png,False,1.7151116876073655,1.472405195236206,0.125,-5.068721818395626,1.8422973155975344,0.125,-4.091135149999892,27.388264060020447,10.0,0.5879329004329004,8.0,42.70809258240913,6.0
subject-01,1,71,0.834434986114502,bear,bird,1.0,1_bird_10_n02017213_1150.png,False,-0.028308575428321107,1.472405195236206,0.125,-5.068721818395626,1.8422973155975344,0.125,-4.091135149999892,27.388264060020447,10.0,0.5879329004329004,8.0,42.70809258240913,6.0
subject-04,1,84,1.31319999694824,cat,bottle,0.4,0.4_bottle_10_n02823428_11.png,False,1.053462073744503,1.1513444185256958,0.25,-3.614026569435048,1.2652747631072998,0.5,-1.7506740473411853,24.962595462799072,10.0,3.225,2.0,28.197208218511022,4.0
subject-03,1,465,1.00296711921692,oven,bottle,0.4,0.4_bottle_10_n02823428_11.png,False,0.13156411932016482,1.1513444185256958,0.25,-3.614026569435048,1.2652747631072998,0.5,-1.7506740473411853,24.962595462799072,10.0,3.225,2.0,28.197208218511022,4.0
subject-02,1,43,1.136234998703,knife,bottle,0.4,0.4_bottle_10_n02823428_11.png,False,1.0125444725493382,1.1513444185256958,0.25,-3.614026569435048,1.2652747631072998,0.5,-1.7506740473411853,24.962595462799072,10.0,3.225,2.0,28.197208218511022,4.0
subject-01,1,870,0.698878049850464,bottle,bottle,0.4,0.4_bottle_10_n02823428_11.png,True,-0.6119375702127018,1.1513444185256958,0.25,-3.614026569435048,1.2652747631072998,0.5,-1.7506740473411853,24.962595462799072,10.0,3.225,2.0,28.197208218511022,4.0
subject-04,1,85,0.950997114181519,bear,bear,0.45,0.45_bear_10_n02134418_1798.png,True,-0.4678568680247947,1.3249714374542236,0.3333333333333333,-2.7361235100253265,1.337435245513916,0.1428571428571428,-4.639076294603404,25.24346923828125,10.0,1.3396825396825391,9.0,40.323991374182526,6.0
subject-03,1,541,1.01601386070251,boat,bear,0.45,0.45_bear_10_n02134418_1798.png,False,0.19033797091700935,1.3249714374542236,0.3333333333333333,-2.7361235100253265,1.337435245513916,0.1428571428571428,-4.639076294603404,25.24346923828125,10.0,1.3396825396825391,9.0,40.323991374182526,6.0
subject-02,1,786,0.733951807022095,car,bear,0.45,0.45_bear_10_n02134418_1798.png,False,-0.809035082985836,1.3249714374542236,0.3333333333333333,-2.7361235100253265,1.337435245513916,0.1428571428571428,-4.639076294603404,25.24346923828125,10.0,1.3396825396825391,9.0,40.323991374182526,6.0
subject-01,1,253,0.59777307510376,clock,bear,0.45,0.45_bear_10_n02134418_1798.png,False,-1.0472365405596238,1.3249714374542236,0.3333333333333333,-2.7361235100253265,1.337435245513916,0.1428571428571428,-4.639076294603404,25.24346923828125,10.0,1.3396825396825391,9.0,40.323991374182526,6.0
subject-04,1,86,1.41086006164551,car,knife,0.7,0.7_knife_10_n03041632_5727.png,False,1.4636523658357474,1.4643521308898926,1.0,-0.524237958814441,1.5502526760101318,0.125,-4.556571107730295,26.118817448616028,10.0,3.212276612276612,8.0,38.04081685867355,6.0
subject-03,1,1033,1.26182198524475,keyboard,knife,0.7,0.7_knife_10_n03041632_5727.png,False,1.297671188878065,1.4643521308898926,1.0,-0.524237958814441,1.5502526760101318,0.125,-4.556571107730295,26.118817448616028,10.0,3.212276612276612,8.0,38.04081685867355,6.0
subject-02,1,1153,0.847986936569214,cat,knife,0.7,0.7_knife_10_n03041632_5727.png,False,-0.29267231941154825,1.4643521308898926,1.0,-0.524237958814441,1.5502526760101318,0.125,-4.556571107730295,26.118817448616028,10.0,3.212276612276612,8.0,38.04081685867355,6.0
subject-01,1,260,1.00444602966309,bear,knife,0.7,0.7_knife_10_n03041632_5727.png,False,0.7036596822139035,1.4643521308898926,1.0,-0.524237958814441,1.5502526760101318,0.125,-4.556571107730295,26.118817448616028,10.0,3.212276612276612,8.0,38.04081685867355,6.0
subject-04,1,87,1.15259099006653,chair,bicycle,1.5,1.5_bicycle_10_n02835271_358.png,False,0.37887460905757,1.6690969467163086,0.1666666666666666,-3.753686311624845,1.7091504335403442,0.2,-3.3015659412804728,27.51570475101471,10.0,1.190151515151515,10.0,34.55095738795374,6.0
subject-03,1,24,,na,bicycle,1.5,1.5_bicycle_10_n02835271_358.png,False,,1.6690969467163086,0.1666666666666666,-3.753686311624845,1.7091504335403442,0.2,-3.3015659412804728,27.51570475101471,10.0,1.190151515151515,10.0,34.55095738795374,6.0
subject-02,1,785,0.966064929962158,bicycle,bicycle,1.5,1.5_bicycle_10_n02835271_358.png,True,0.2419969463474209,1.6690969467163086,0.1666666666666666,-3.753686311624845,1.7091504335403442,0.2,-3.3015659412804728,27.51570475101471,10.0,1.190151515151515,10.0,34.55095738795374,6.0
subject-01,1,648,1.35093402862549,bird,bicycle,1.5,1.5_bicycle_10_n02835271_358.png,False,2.195434637538889,1.6690969467163086,0.1666666666666666,-3.753686311624845,1.7091504335403442,0.2,-3.3015659412804728,27.51570475101471,10.0,1.190151515151515,10.0,34.55095738795374,6.0
subject-04,1,88,1.0724880695343,cat,dog,0.7,0.7_dog_10_n02101006_16129.png,False,0.042427562126669364,2.116788387298584,0.1111111111111111,-3.9995852390349707,1.6877036094665527,0.0714285714285714,-5.046845258746946,27.255845069885254,10.0,0.3237845487845485,8.0,46.12181959360761,6.0
subject-03,1,1158,0.732014179229736,oven,dog,0.7,0.7_dog_10_n02101006_16129.png,False,-1.089043179607657,2.116788387298584,0.1111111111111111,-3.9995852390349707,1.6877036094665527,0.0714285714285714,-5.046845258746946,27.255845069885254,10.0,0.3237845487845485,8.0,46.12181959360761,6.0
subject-02,1,404,0.664929151535034,bicycle,dog,0.7,0.7_dog_10_n02101006_16129.png,False,-1.1215767469281577,2.116788387298584,0.1111111111111111,-3.9995852390349707,1.6877036094665527,0.0714285714285714,-5.046845258746946,27.255845069885254,10.0,0.3237845487845485,8.0,46.12181959360761,6.0
subject-01,1,805,0.552547931671143,bear,dog,0.7,0.7_dog_10_n02101006_16129.png,False,-1.2419495941885876,2.116788387298584,0.1111111111111111,-3.9995852390349707,1.6877036094665527,0.0714285714285714,-5.046845258746946,27.255845069885254,10.0,0.3237845487845485,8.0,46.12181959360761,6.0
subject-04,1,89,1.20234894752502,boat,boat,0.4,0.4_boat_10_n03344393_6015.png,True,0.587867211786536,1.4526029825210571,0.125,-4.276913844249365,1.4013237953186035,0.25,-3.422007141538848,25.744309544563293,10.0,1.990151515151515,1.0,32.24963934616692,5.0
subject-03,1,155,1.0167031288147,cat,boat,0.4,0.4_boat_10_n03344393_6015.png,False,0.19344303295729223,1.4526029825210571,0.125,-4.276913844249365,1.4013237953186035,0.25,-3.422007141538848,25.744309544563293,10.0,1.990151515151515,1.0,32.24963934616692,5.0
subject-02,1,950,0.756401062011719,car,boat,0.4,0.4_boat_10_n03344393_6015.png,False,-0.7073825536936554,1.4526029825210571,0.125,-4.276913844249365,1.4013237953186035,0.25,-3.422007141538848,25.744309544563293,10.0,1.990151515151515,1.0,32.24963934616692,5.0
subject-01,1,304,0.738440990447998,oven,boat,0.4,0.4_boat_10_n03344393_6015.png,False,-0.44160265495113166,1.4526029825210571,0.125,-4.276913844249365,1.4013237953186035,0.25,-3.422007141538848,25.744309544563293,10.0,1.990151515151515,1.0,32.24963934616692,5.0
subject-04,1,90,1.25402212142944,bird,bird,0.45,0.45_bird_10_n01614925_7608.png,True,0.8049040769866491,1.7553421258926392,0.1,-4.474716714247889,1.357502579689026,0.1,-5.06411134981977,25.976853847503662,10.0,0.4901917526917524,0.0,45.137109040025734,6.0
subject-03,1,571,0.754055976867676,cat,bird,0.45,0.45_bird_10_n01614925_7608.png,False,-0.9897477850655931,1.7553421258926392,0.1,-4.474716714247889,1.357502579689026,0.1,-5.06411134981977,25.976853847503662,10.0,0.4901917526917524,0.0,45.137109040025734,6.0
subject-02,1,1066,0.850735902786255,dog,bird,0.45,0.45_bird_10_n01614925_7608.png,False,-0.2802247184096383,1.7553421258926392,0.1,-4.474716714247889,1.357502579689026,0.1,-5.06411134981977,25.976853847503662,10.0,0.4901917526917524,0.0,45.137109040025734,6.0
subject-01,1,430,0.735615968704224,boat,bird,0.45,0.45_bird_10_n01614925_7608.png,False,-0.45376554861045293,1.7553421258926392,0.1,-4.474716714247889,1.357502579689026,0.1,-5.06411134981977,25.976853847503662,10.0,0.4901917526917524,0.0,45.137109040025734,6.0
subject-04,1,91,1.29234099388123,dog,knife,0.45,0.45_knife_10_n03041632_89912.png,False,0.9658504119325675,1.4559072256088257,1.0,-0.6805519073739689,1.4822211265563965,0.1428571428571428,-4.598835250629266,25.788273334503174,10.0,3.7504329004329002,8.0,37.834029906421925,6.0
subject-03,1,364,0.982454061508179,cat,knife,0.45,0.45_knife_10_n03041632_89912.png,False,0.03915549676083329,1.4559072256088257,1.0,-0.6805519073739689,1.4822211265563965,0.1428571428571428,-4.598835250629266,25.788273334503174,10.0,3.7504329004329002,8.0,37.834029906421925,6.0
subject-02,1,482,0.731844186782837,boat,knife,0.45,0.45_knife_10_n03041632_89912.png,False,-0.818578603615228,1.4559072256088257,1.0,-0.6805519073739689,1.4822211265563965,0.1428571428571428,-4.598835250629266,25.788273334503174,10.0,3.7504329004329002,8.0,37.834029906421925,6.0
subject-01,1,1200,,na,knife,0.45,0.45_knife_10_n03041632_89912.png,False,,1.4559072256088257,1.0,-0.6805519073739689,1.4822211265563965,0.1428571428571428,-4.598835250629266,25.788273334503174,10.0,3.7504329004329002,8.0,37.834029906421925,6.0
subject-04,1,92,1.04579901695251,keyboard,oven,0.7,0.7_oven_10_n04111531_9838.png,False,-0.06967138341569462,1.2919228076934814,0.5,-1.21378076769886,1.604884147644043,0.0625,-7.871448546978668,26.14428675174713,10.0,0.6617063492063491,10.0,59.369720062816796,6.0
