rt,response,task,item_id,entity_type,entity,correct,intuitive,question,prefix,population_correct,population_intuitive,population_ratio,display_correct_first,task_type,trial_type,trial_index,time_elapsed,subject_id,study_id,session_id,rng_seed,response_correct,response_position,rt_zscore
3519,f,capitals,27,state,Nebraska,Lincoln,Omaha,What is the capital of Nebraska?,The capital of Nebraska is,0.297,0.477,1.606060606,False,critical,html-keyboard-response,11,287997,subject_25,67d993866d1d7516d87e97de,67daffc85579c5693bbb7675,0.2876221160821377,0,left,-0.802189861519109
2289,j,capitals,42,state,Wisconsin,Madison,Milwaukee,What is the capital of Wisconsin?,The capital of Wisconsin is,0.284,0.551,1.940140845,False,critical,html-keyboard-response,13,291289,subject_25,67d993866d1d7516d87e97de,67daffc85579c5693bbb7675,0.2876221160821377,1,right,-1.0465433403721245
3544,j,capitals,5,country,Morrocco,Rabat,Marrakesh,What is the capital of Morrocco?,The capital of Morrocco is,2.02,1.085,0.5371287129,True,critical,html-keyboard-response,15,295837,subject_25,67d993866d1d7516d87e97de,67daffc85579c5693bbb7675,0.2876221160821377,0,right,-0.7972233273960803
2088,f,capitals,19,state,Kansas,Topeka,Wichita,What is the capital of Kansas?,The capital of Kansas is,0.125,0.395,3.16,True,critical,html-keyboard-response,17,298928,subject_25,67d993866d1d7516d87e97de,67daffc85579c5693bbb7675,0.2876221160821377,1,left,-1.086474274721276
2077,j,capitals,14,state,California,Sacramento,Los Angeles,What is the capital of California?,The capital of California is,0.527,3.8,7.210626186,False,critical,html-keyboard-response,19,302009,subject_25,67d993866d1d7516d87e97de,67daffc85579c5693bbb7675,0.2876221160821377,1,right,-1.0886595497354086
4616,j,capitals,11,country,United Arab Emirates,Abu Dhabi,Dubai,What is the capital of the United Arab Emirates?,The capital of the United Arab Emirates is,1.6,3.1,1.9375,False,critical,html-keyboard-response,21,307627,subject_25,67d993866d1d7516d87e97de,67daffc85579c5693bbb7675,0.2876221160821377,1,right,-0.5842583442006065
3127,f,capitals,31,state,New Mexico,Santa Fe,Albuquerque,What is the capital of New Mexico?,The capital of New Mexico is,0.0901,0.557,6.182019978,True,critical,html-keyboard-response,23,311757,subject_25,67d993866d1d7516d87e97de,67daffc85579c5693bbb7675,0.2876221160821377,1,left,-0.8800651165682002
3226,j,capitals,36,state,Pennsylvania,Harrisburg,Philadelphia,What is the capital of Pennsylvania?,The capital of Pennsylvania is,0.05,1.517,30.34,True,critical,html-keyboard-response,25,315986,subject_25,67d993866d1d7516d87e97de,67daffc85579c5693bbb7675,0.2876221160821377,0,right,-0.8603976414410062
2929,j,capitals,24,state,Michigan,Lansing,Detroit,What is the capital of Michigan?,The capital of Michigan is,0.112,0.63,5.625,False,critical,html-keyboard-response,27,319918,subject_25,67d993866d1d7516d87e97de,67daffc85579c5693bbb7675,0.2876221160821377,1,right,-0.919400066822588
1827,f,capitals,35,state,Oregon,Salem,Portland,What is the capital of Oregon?,The capital of Oregon is,0.178,0.615,3.45505618,True,critical,html-keyboard-response,29,322747,subject_25,67d993866d1d7516d87e97de,67daffc85579c5693bbb7675,0.2876221160821377,1,left,-1.1383248909656962
3355,j,capitals,30,state,New Jersey,Trenton,Newark,What is the capital of New Jersey?,The capital of New Jersey is,0.0898,0.306,3.407572383,True,critical,html-keyboard-response,31,327106,subject_25,67d993866d1d7516d87e97de,67daffc85579c5693bbb7675,0.2876221160821377,0,right,-0.8347703253661778
3128,f,capitals,21,state,Louisiana,Baton Rouge,New Orleans,What is the capital of Louisiana?,The capital of Louisiana is,0.215,0.351,1.63255814,True,critical,html-keyboard-response,33,331237,subject_25,67d993866d1d7516d87e97de,67daffc85579c5693bbb7675,0.2876221160821377,1,left,-0.879866455203279
3328,f,capitals,17,state,Florida,Tallahassee,Jacksonville,What is the capital of Florida?,The capital of Florida is,0.205,1.008,4.917073171,False,critical,html-keyboard-response,35,335567,subject_25,67d993866d1d7516d87e97de,67daffc85579c5693bbb7675,0.2876221160821377,0,left,-0.8401341822190488
2785,f,capitals,38,state,Texas,Austin,Houston,What is the capital of Texas?,The capital of Texas is,0.989,2.324,2.349848332,True,critical,html-keyboard-response,37,339354,subject_25,67d993866d1d7516d87e97de,67daffc85579c5693bbb7675,0.2876221160821377,1,left,-0.9480073033712337
9323,j,capitals,29,state,New Hampshire,Concord,Manchester,What is the capital of New Hampshire?,The capital of New Hampshire is,0.0449,0.115,2.561247216,True,critical,html-keyboard-response,39,349680,subject_25,67d993866d1d7516d87e97de,67daffc85579c5693bbb7675,0.2876221160821377,0,right,0.35084070048325044
4664,f,capitals,8,country,South Africa,Pretoria,Johannesburg,What is the capital of South Africa?,The capital of South Africa is,3.0,6.4,2.133333333,False,critical,html-keyboard-response,41,355346,subject_25,67d993866d1d7516d87e97de,67daffc85579c5693bbb7675,0.2876221160821377,0,left,-0.5747225986843914
20521,j,capitals,25,state,Minnesota,St. Paul,Minneapolis,What is the capital of Minnesota?,The capital of Minnesota is,0.299,0.421,1.408026756,False,critical,html-keyboard-response,43,376872,subject_25,67d993866d1d7516d87e97de,67daffc85579c5693bbb7675,0.2876221160821377,1,right,2.5754506648702975
7963,j,capitals,18,state,Illinois,Springfield,Chicago,What is the capital of Illinois?,The capital of Illinois is,0.111,2.612,23.53153153,False,critical,html-keyboard-response,45,385838,subject_25,67d993866d1d7516d87e97de,67daffc85579c5693bbb7675,0.2876221160821377,1,right,0.08066124419048529
7317,f,capitals,13,state,Alaska,Juneau,Anchorage,What is the capital of Alaska?,The capital of Alaska is,0.0311,0.283,9.099678457,True,critical,html-keyboard-response,47,394158,subject_25,67d993866d1d7516d87e97de,67daffc85579c5693bbb7675,0.2876221160821377,1,left,-0.047673997548578144
13838,f,capitals,37,state,South Dakota,Pierre,Sioux Falls,What is the capital of South Dakota?,The capital of South Dakota is,0.0138,0.215,15.57971014,True,critical,html-keyboard-response,49,408998,subject_25,67d993866d1d7516d87e97de,67daffc85579c5693bbb7675,0.2876221160821377,1,left,1.2477967631022464
7825,j,capitals,28,state,Nevada,Carson City,Las Vegas,What is the capital of Nevada?,The capital of Nevada is,0.0576,0.67,11.63194444,False,critical,html-keyboard-response,51,417826,subject_25,67d993866d1d7516d87e97de,67daffc85579c5693bbb7675,0.2876221160821377,1,right,0.05324597583136648
19619,f,capitals,20,state,Kentucky,Frankfort,Louisville,What is the capital of Kentucky?,The capital of Kentucky is,0.0281,0.617,21.95729537,True,critical,html-keyboard-response,53,438447,subject_25,67d993866d1d7516d87e97de,67daffc85579c5693bbb7675,0.2876221160821377,1,left,2.3962581137114194
5336,j,capitals,40,state,Virginia,Richmond,Virginia Beach,What is the capital of Virginia?,The capital of Virginia is,0.231,0.45,1.948051948,False,critical,html-keyboard-response,55,444786,subject_25,67d993866d1d7516d87e97de,67daffc85579c5693bbb7675,0.2876221160821377,1,right,-0.44122216145737797
8048,f,capitals,41,state,Washington,Olympia,Seattle,What is the capital of Washington?,The capital of Washington is,0.0558,0.765,13.70967742,True,critical,html-keyboard-response,57,453837,subject_25,67d993866d1d7516d87e97de,67daffc85579c5693bbb7675,0.2876221160821377,1,left,0.09754746020878312
4128,f,capitals,1,country,Australia,Canberra,Sydney,What is the capital of Australia?,The capital of Australia is,0.483,5.249,10.86749482,False,critical,html-keyboard-response,59,458967,subject_25,67d993866d1d7516d87e97de,67daffc85579c5693bbb7675,0.2876221160821377,0,left,-0.6812050902821282
3389,j,capitals,7,country,Pakistan,Islamabad,Karachi,What is the capital of Pakistan?,The capital of Pakistan is,1.3,18.1,13.92307692,True,critical,html-keyboard-response,61,463359,subject_25,67d993866d1d7516d87e97de,67daffc85579c5693bbb7675,0.2876221160821377,0,right,-0.8280158389588587
10485,j,capitals,15,state,Connecticut,Hartford,Bridgeport,What is the capital of Connecticut?,The capital of Connecticut is,0.119,0.148,1.243697479,False,critical,html-keyboard-response,63,474847,subject_25,67d993866d1d7516d87e97de,67daffc85579c5693bbb7675,0.2876221160821377,1,right,0.5816852065216277
8777,f,capitals,34,state,North Dakota,Bismarck,Fargo,What is the capital of North Dakota?,The capital of North Dakota is,0.076,0.138,1.815789474,True,critical,html-keyboard-response,65,484625,subject_25,67d993866d1d7516d87e97de,67daffc85579c5693bbb7675,0.2876221160821377,1,left,0.24237159523630208
11957,j,capitals,9,country,Switzerland,Bern,Zurich,What is the capital of Switzerland?,The capital of Switzerland is,0.448,1.455,3.247767857,False,critical,html-keyboard-response,67,497585,subject_25,67d993866d1d7516d87e97de,67daffc85579c5693bbb7675,0.2876221160821377,1,right,0.8741147356855618
6636,j,capitals,39,state,Vermont,Montpelier,Burlington,What is the capital of Vermont?,The capital of Vermont is,0.0079,0.0444,5.620253165,False,critical,html-keyboard-response,69,505227,subject_25,67d993866d1d7516d87e97de,67daffc85579c5693bbb7675,0.2876221160821377,1,right,-0.18296238705988185
8770,j,capitals,26,state,Montana,Helena,Billings,What is the capital of Montana?,The capital of Montana is,0.0359,0.123,3.426183844,False,critical,html-keyboard-response,71,514999,subject_25,67d993866d1d7516d87e97de,67daffc85579c5693bbb7675,0.2876221160821377,1,right,0.240980965681854
4956,j,capitals,23,state,Maryland,Annapolis,Baltimore,What is the capital of Maryland?,The capital of Maryland is,0.0403,0.553,13.72208437,False,critical,html-keyboard-response,73,520958,subject_25,67d993866d1d7516d87e97de,67daffc85579c5693bbb7675,0.2876221160821377,1,right,-0.5167134801274152
9997,f,capitals,32,state,New York,Albany,New York,What is the capital of New York?,The capital of New York is,0.103,7.937,77.05825243,True,critical,html-keyboard-response,75,531958,subject_25,67d993866d1d7516d87e97de,67daffc85579c5693bbb7675,0.2876221160821377,1,left,0.4847384604401061
7474,f,capitals,33,state,North Carolina,Raleigh,Charlotte,What is the capital of North Carolina?,The capital of North Carolina is,0.494,0.935,1.892712551,True,critical,html-keyboard-response,77,540437,subject_25,67d993866d1d7516d87e97de,67daffc85579c5693bbb7675,0.2876221160821377,1,left,-0.016484163255957467
9037,j,capitals,12,state,Alabama,Montgomery,Birmingham,What is the capital of Alabama?,The capital of Alabama is,0.192,0.194,1.010416667,False,critical,html-keyboard-response,79,550477,subject_25,67d993866d1d7516d87e97de,67daffc85579c5693bbb7675,0.2876221160821377,1,right,0.2940235501158013
20637,f,capitals,10,country,Turkey,Ankara,Istanbul,What is the capital of Turkey?,The capital of Turkey is,5.55,16.24,2.926126126,True,critical,html-keyboard-response,81,572117,subject_25,67d993866d1d7516d87e97de,67daffc85579c5693bbb7675,0.2876221160821377,1,left,2.598495383201151
9764,f,capitals,4,country,India,New Delhi,Mumbai,What is the capital of India?,The capital of India is,0.206,22.1,107.2815534,True,critical,html-keyboard-response,83,582887,subject_25,67d993866d1d7516d87e97de,67daffc85579c5693bbb7675,0.2876221160821377,1,left,0.43845036241347796
9625,f,capitals,16,state,Delaware,Dover,Wilmington,What is the capital of Delaware?,The capital of Delaware is,0.0403,0.0722,1.791563275,True,critical,html-keyboard-response,85,593517,subject_25,67d993866d1d7516d87e97de,67daffc85579c5693bbb7675,0.2876221160821377,1,left,0.410836432689438
17527,f,capitals,6,country,New Zealand,Wellington,Auckland,What is the capital of New Zealand?,The capital of New Zealand is,0.428,1.711,3.997663551,True,critical,html-keyboard-response,87,612046,subject_25,67d993866d1d7516d87e97de,67daffc85579c5693bbb7675,0.2876221160821377,1,left,1.980658538296372
9827,j,capitals,2,country,Brazil,Brasilia,Rio de Janeiro,What is the capital of Brazil?,The capital of Brazil is,4.99,13.923,2.790180361,False,critical,html-keyboard-response,89,622876,subject_25,67d993866d1d7516d87e97de,67daffc85579c5693bbb7675,0.2876221160821377,1,right,0.45096602840351047
7557,f,capitals,3,country,Canada,Ottawa,Toronto,What is the capital of Canada?,The capital of Canada is,1.465,6.491,4.430716724,False,critical,html-keyboard-response,91,631436,subject_25,67d993866d1d7516d87e97de,67daffc85579c5693bbb7675,0.2876221160821377,0,left,4.730032498053808e-06
10558,j,capitals,22,state,Maine,Augusta,Portland,What is the capital of Maine?,The capital of Maine is,0.0192,0.0695,3.619791667,False,critical,html-keyboard-response,93,642998,subject_25,67d993866d1d7516d87e97de,67daffc85579c5693bbb7675,0.2876221160821377,1,right,0.5961874861608717
2719,j,capitals,6,country,New Zealand,Wellington,Auckland,What is the capital of New Zealand?,The capital of New Zealand is,0.428,1.711,3.997663551,False,critical,html-keyboard-response,7,29694,subject_11,67d993866d1d7516d87e97de,67f556ee7e72bf6aa696a5fc,0.12233687001432414,1,right,1.2111012908590915
1696,f,capitals,19,state,Kansas,Topeka,Wichita,What is the capital of Kansas?,The capital of Kansas is,0.125,0.395,3.16,False,critical,html-keyboard-response,9,32403,subject_11,67d993866d1d7516d87e97de,67f556ee7e72bf6aa696a5fc,0.12233687001432414,0,left,-0.2524390849826108
1584,f,capitals,42,state,Wisconsin,Madison,Milwaukee,What is the capital of Wisconsin?,The capital of Wisconsin is,0.284,0.551,1.940140845,True,critical,html-keyboard-response,11,34990,subject_11,67d993866d1d7516d87e97de,67f556ee7e72bf6aa696a5fc,0.12233687001432414,1,left,-0.4126702893758373
2227,j,capitals,21,state,Louisiana,Baton Rouge,New Orleans,What is the capital of Louisiana?,The capital of Louisiana is,0.215,0.351,1.63255814,False,critical,html-keyboard-response,13,38229,subject_11,67d993866d1d7516d87e97de,67f556ee7e72bf6aa696a5fc,0.12233687001432414,1,right,0.5072285001317038
1958,j,capitals,35,state,Oregon,Salem,Portland,What is the capital of Oregon?,The capital of Oregon is,0.178,0.615,3.45505618,False,critical,html-keyboard-response,15,41195,subject_11,67d993866d1d7516d87e97de,67f556ee7e72bf6aa696a5fc,0.12233687001432414,1,right,0.12238748243725821
1272,j,capitals,1,country,Australia,Canberra,Sydney,What is the capital of Australia?,The capital of Australia is,0.483,5.249,10.86749482,False,critical,html-keyboard-response,17,43475,subject_11,67d993866d1d7516d87e97de,67f556ee7e72bf6aa696a5fc,0.12233687001432414,1,right,-0.8590286444712538
4172,j,capitals,11,country,United Arab Emirates,Abu Dhabi,Dubai,What is the capital of the United Arab Emirates?,The capital of the United Arab Emirates is,1.6,3.1,1.9375,True,critical,html-keyboard-response,19,48659,subject_11,67d993866d1d7516d87e97de,67f556ee7e72bf6aa696a5fc,0.12233687001432414,0,right,3.289815040710503
1368,f,capitals,2,country,Brazil,Brasilia,Rio de Janeiro,What is the capital of Brazil?,The capital of Brazil is,4.99,13.923,2.790180361,True,critical,html-keyboard-response,21,51038,subject_11,67d993866d1d7516d87e97de,67f556ee7e72bf6aa696a5fc,0.12233687001432414,1,left,-0.7216876121342026
1905,f,capitals,31,state,New Mexico,Santa Fe,Albuquerque,What is the capital of New Mexico?,The capital of New Mexico is,0.0901,0.557,6.182019978,True,critical,html-keyboard-response,23,53955,subject_11,67d993866d1d7516d87e97de,67f556ee7e72bf6aa696a5fc,0.12233687001432414,1,left,0.046563787501177824
1305,f,capitals,36,state,Pennsylvania,Harrisburg,Philadelphia,What is the capital of Pennsylvania?,The capital of Pennsylvania is,0.05,1.517,30.34,True,critical,html-keyboard-response,25,56277,subject_11,67d993866d1d7516d87e97de,67f556ee7e72bf6aa696a5fc,0.12233687001432414,1,left,-0.8118176646053925
2495,j,capitals,8,country,South Africa,Pretoria,Johannesburg,What is the capital of South Africa?,The capital of South Africa is,3.0,6.4,2.133333333,False,critical,html-keyboard-response,27,59782,subject_11,67d993866d1d7516d87e97de,67f556ee7e72bf6aa696a5fc,0.12233687001432414,1,right,0.8906388820726386
1321,j,capitals,22,state,Maine,Augusta,Portland,What is the capital of Maine?,The capital of Maine is,0.0192,0.0695,3.619791667,False,critical,html-keyboard-response,29,62110,subject_11,67d993866d1d7516d87e97de,67f556ee7e72bf6aa696a5fc,0.12233687001432414,1,right,-0.7889274925492172
1676,j,capitals,34,state,North Dakota,Bismarck,Fargo,What is the capital of North Dakota?,The capital of North Dakota is,0.076,0.138,1.815789474,False,critical,html-keyboard-response,31,64799,subject_11,67d993866d1d7516d87e97de,67f556ee7e72bf6aa696a5fc,0.12233687001432414,1,right,-0.2810518000528298
1152,j,capitals,29,state,New Hampshire,Concord,Manchester,What is the capital of New Hampshire?,The capital of New Hampshire is,0.0449,0.115,2.561247216,False,critical,html-keyboard-response,33,66956,subject_11,67d993866d1d7516d87e97de,67f556ee7e72bf6aa696a5fc,0.12233687001432414,1,right,-1.0307049348925679
1683,j,capitals,40,state,Virginia,Richmond,Virginia Beach,What is the capital of Virginia?,The capital of Virginia is,0.231,0.45,1.948051948,False,critical,html-keyboard-response,35,69654,subject_11,67d993866d1d7516d87e97de,67f556ee7e72bf6aa696a5fc,0.12233687001432414,1,right,-0.27103734977825317
2077,f,capitals,10,country,Turkey,Ankara,Istanbul,What is the capital of Turkey?,The capital of Turkey is,5.55,16.24,2.926126126,True,critical,html-keyboard-response,37,72734,subject_11,67d993866d1d7516d87e97de,67f556ee7e72bf6aa696a5fc,0.12233687001432414,1,left,0.29263313710506134
2347,j,capitals,9,country,Switzerland,Bern,Zurich,What is the capital of Switzerland?,The capital of Switzerland is,0.448,1.455,3.247767857,False,critical,html-keyboard-response,39,76095,subject_11,67d993866d1d7516d87e97de,67f556ee7e72bf6aa696a5fc,0.12233687001432414,1,right,0.678904790553018
1080,f,capitals,26,state,Montana,Helena,Billings,What is the capital of Montana?,The capital of Montana is,0.0359,0.123,3.426183844,True,critical,html-keyboard-response,41,78182,subject_11,67d993866d1d7516d87e97de,67f556ee7e72bf6aa696a5fc,0.12233687001432414,1,left,-1.1337107091453564
2349,j,capitals,25,state,Minnesota,St. Paul,Minneapolis,What is the capital of Minnesota?,The capital of Minnesota is,0.299,0.421,1.408026756,False,critical,html-keyboard-response,43,81548,subject_11,67d993866d1d7516d87e97de,67f556ee7e72bf6aa696a5fc,0.12233687001432414,1,right,0.6817660620600399
1603,f,capitals,12,state,Alabama,Montgomery,Birmingham,What is the capital of Alabama?,The capital of Alabama is,0.192,0.194,1.010416667,False,critical,html-keyboard-response,45,84155,subject_11,67d993866d1d7516d87e97de,67f556ee7e72bf6aa696a5fc,0.12233687001432414,0,left,-0.3854882100591292
1164,j,capitals,14,state,California,Sacramento,Los Angeles,What is the capital of California?,The capital of California is,0.527,3.8,7.210626186,False,critical,html-keyboard-response,47,86325,subject_11,67d993866d1d7516d87e97de,67f556ee7e72bf6aa696a5fc,0.12233687001432414,1,right,-1.0135373058504364
2184,f,capitals,27,state,Nebraska,Lincoln,Omaha,What is the capital of Nebraska?,The capital of Nebraska is,0.297,0.477,1.606060606,True,critical,html-keyboard-response,49,89516,subject_11,67d993866d1d7516d87e97de,67f556ee7e72bf6aa696a5fc,0.12233687001432414,1,left,0.445711162730733
1340,j,capitals,3,country,Canada,Ottawa,Toronto,What is the capital of Canada?,The capital of Canada is,1.465,6.491,4.430716724,False,critical,html-keyboard-response,51,91862,subject_11,67d993866d1d7516d87e97de,67f556ee7e72bf6aa696a5fc,0.12233687001432414,1,right,-0.7617454132325092
1283,f,capitals,39,state,Vermont,Montpelier,Burlington,What is the capital of Vermont?,The capital of Vermont is,0.0079,0.0444,5.620253165,True,critical,html-keyboard-response,53,94150,subject_11,67d993866d1d7516d87e97de,67f556ee7e72bf6aa696a5fc,0.12233687001432414,1,left,-0.8432916511826334
1869,j,capitals,17,state,Florida,Tallahassee,Jacksonville,What is the capital of Florida?,The capital of Florida is,0.205,1.008,4.917073171,False,critical,html-keyboard-response,55,97037,subject_11,67d993866d1d7516d87e97de,67f556ee7e72bf6aa696a5fc,0.12233687001432414,1,right,-0.004939099625216392
2059,j,capitals,5,country,Morrocco,Rabat,Marrakesh,What is the capital of Morrocco?,The capital of Morrocco is,2.02,1.085,0.5371287129,False,critical,html-keyboard-response,57,100109,subject_11,67d993866d1d7516d87e97de,67f556ee7e72bf6aa696a5fc,0.12233687001432414,1,right,0.2668816935418642
1832,j,capitals,4,country,India,New Delhi,Mumbai,What is the capital of India?,The capital of India is,0.206,22.1,107.2815534,True,critical,html-keyboard-response,59,102950,subject_11,67d993866d1d7516d87e97de,67f556ee7e72bf6aa696a5fc,0.12233687001432414,0,right,-0.05787262250512156
2068,j,capitals,33,state,North Carolina,Raleigh,Charlotte,What is the capital of North Carolina?,The capital of North Carolina is,0.494,0.935,1.892712551,False,critical,html-keyboard-response,61,106023,subject_11,67d993866d1d7516d87e97de,67f556ee7e72bf6aa696a5fc,0.12233687001432414,1,right,0.27975741532346277
3272,f,capitals,24,state,Michigan,Lansing,Detroit,What is the capital of Michigan?,The capital of Michigan is,0.112,0.63,5.625,True,critical,html-keyboard-response,63,110307,subject_11,67d993866d1d7516d87e97de,67f556ee7e72bf6aa696a5fc,0.12233687001432414,1,left,2.002242862550647
2875,f,capitals,13,state,Alaska,Juneau,Anchorage,What is the capital of Alaska?,The capital of Alaska is,0.0311,0.283,9.099678457,True,critical,html-keyboard-response,65,114198,subject_11,67d993866d1d7516d87e97de,67f556ee7e72bf6aa696a5fc,0.12233687001432414,1,left,1.4342804684067998
1052,f,capitals,38,state,Texas,Austin,Houston,What is the capital of Texas?,The capital of Texas is,0.989,2.324,2.349848332,True,critical,html-keyboard-response,67,116253,subject_11,67d993866d1d7516d87e97de,67f556ee7e72bf6aa696a5fc,0.12233687001432414,1,left,-1.173768510243663
1496,j,capitals,37,state,South Dakota,Pierre,Sioux Falls,What is the capital of South Dakota?,The capital of South Dakota is,0.0138,0.215,15.57971014,False,critical,html-keyboard-response,69,118766,subject_11,67d993866d1d7516d87e97de,67f556ee7e72bf6aa696a5fc,0.12233687001432414,1,right,-0.5385662356848009
1993,j,capitals,41,state,Washington,Olympia,Seattle,What is the capital of Washington?,The capital of Washington is,0.0558,0.765,13.70967742,True,critical,html-keyboard-response,71,121763,subject_11,67d993866d1d7516d87e97de,67f556ee7e72bf6aa696a5fc,0.12233687001432414,0,right,0.17245973381014146
1226,f,capitals,16,state,Delaware,Dover,Wilmington,What is the capital of Delaware?,The capital of Delaware is,0.0403,0.0722,1.791563275,True,critical,html-keyboard-response,73,123999,subject_11,67d993866d1d7516d87e97de,67f556ee7e72bf6aa696a5fc,0.12233687001432414,1,left,-0.9248378891327576
1527,f,capitals,18,state,Illinois,Springfield,Chicago,What is the capital of Illinois?,The capital of Illinois is,0.111,2.612,23.53153153,True,critical,html-keyboard-response,75,126534,subject_11,67d993866d1d7516d87e97de,67f556ee7e72bf6aa696a5fc,0.12233687001432414,1,left,-0.49421652732596144
2446,f,capitals,30,state,New Jersey,Trenton,Newark,What is the capital of New Jersey?,The capital of New Jersey is,0.0898,0.306,3.407572383,True,critical,html-keyboard-response,77,129997,subject_11,67d993866d1d7516d87e97de,67f556ee7e72bf6aa696a5fc,0.12233687001432414,1,left,0.820537730150602
1433,j,capitals,28,state,Nevada,Carson City,Las Vegas,What is the capital of Nevada?,The capital of Nevada is,0.0576,0.67,11.63194444,True,critical,html-keyboard-response,79,132438,subject_11,67d993866d1d7516d87e97de,67f556ee7e72bf6aa696a5fc,0.12233687001432414,0,right,-0.6286962881559908
1283,j,capitals,32,state,New York,Albany,New York,What is the capital of New York?,The capital of New York is,0.103,7.937,77.05825243,False,critical,html-keyboard-response,81,134734,subject_11,67d993866d1d7516d87e97de,67f556ee7e72bf6aa696a5fc,0.12233687001432414,1,right,-0.8432916511826334
3637,f,capitals,23,state,Maryland,Annapolis,Baltimore,What is the capital of Maryland?,The capital of Maryland is,0.0403,0.553,13.72208437,True,critical,html-keyboard-response,83,139388,subject_11,67d993866d1d7516d87e97de,67f556ee7e72bf6aa696a5fc,0.12233687001432414,1,left,2.5244249125821443
1628,j,capitals,15,state,Connecticut,Hartford,Bridgeport,What is the capital of Connecticut?,The capital of Connecticut is,0.119,0.148,1.243697479,False,critical,html-keyboard-response,85,142022,subject_11,67d993866d1d7516d87e97de,67f556ee7e72bf6aa696a5fc,0.12233687001432414,1,right,-0.34972231622135547
1048,f,capitals,20,state,Kentucky,Frankfort,Louisville,What is the capital of Kentucky?,The capital of Kentucky is,0.0281,0.617,21.95729537,True,critical,html-keyboard-response,87,144087,subject_11,67d993866d1d7516d87e97de,67f556ee7e72bf6aa696a5fc,0.12233687001432414,1,left,-1.1794910532577068
1939,f,capitals,7,country,Pakistan,Islamabad,Karachi,What is the capital of Pakistan?,The capital of Pakistan is,1.3,18.1,13.92307692,True,critical,html-keyboard-response,89,147044,subject_11,67d993866d1d7516d87e97de,67f556ee7e72bf6aa696a5fc,0.12233687001432414,1,left,0.09520540312055015
1702,f,capitals,20,state,Kentucky,Frankfort,Louisville,What is the capital of Kentucky?,The capital of Kentucky is,0.0281,0.617,21.95729537,True,critical,html-keyboard-response,7,58114,subject_14,67d993866d1d7516d87e97de,67f5520928787542c8c6bebc,0.1851916936155551,1,left,2.5273969233741407
1305,j,capitals,8,country,South Africa,Pretoria,Johannesburg,What is the capital of South Africa?,The capital of South Africa is,3.0,6.4,2.133333333,False,critical,html-keyboard-response,9,60432,subject_14,67d993866d1d7516d87e97de,67f5520928787542c8c6bebc,0.1851916936155551,1,right,1.0210947358508031
935,f,capitals,11,country,United Arab Emirates,Abu Dhabi,Dubai,What is the capital of the United Arab Emirates?,The capital of the United Arab Emirates is,1.6,3.1,1.9375,True,critical,html-keyboard-response,11,62378,subject_14,67d993866d1d7516d87e97de,67f5520928787542c8c6bebc,0.1851916936155551,1,left,-0.3827637260727106
916,j,capitals,28,state,Nevada,Carson City,Las Vegas,What is the capital of Nevada?,The capital of Nevada is,0.0576,0.67,11.63194444,False,critical,html-keyboard-response,13,64307,subject_14,67d993866d1d7516d87e97de,67f5520928787542c8c6bebc,0.1851916936155551,1,right,-0.4548537551985126
996,f,capitals,15,state,Connecticut,Hartford,Bridgeport,What is the capital of Connecticut?,The capital of Connecticut is,0.119,0.148,1.243697479,True,critical,html-keyboard-response,15,66306,subject_14,67d993866d1d7516d87e97de,67f5520928787542c8c6bebc,0.1851916936155551,1,left,-0.15131679045829347
1476,j,capitals,3,country,Canada,Ottawa,Toronto,What is the capital of Canada?,The capital of Canada is,1.465,6.491,4.430716724,False,critical,html-keyboard-response,17,68786,subject_14,67d993866d1d7516d87e97de,67f5520928787542c8c6bebc,0.1851916936155551,1,right,1.6699049979830216
1038,f,capitals,12,state,Alabama,Montgomery,Birmingham,What is the capital of Alabama?,The capital of Alabama is,0.192,0.194,1.010416667,True,critical,html-keyboard-response,19,70831,subject_14,67d993866d1d7516d87e97de,67f5520928787542c8c6bebc,0.1851916936155551,1,left,0.00804011603032161
1099,f,capitals,34,state,North Dakota,Bismarck,Fargo,What is the capital of North Dakota?,The capital of North Dakota is,0.076,0.138,1.815789474,True,critical,html-keyboard-response,21,72943,subject_14,67d993866d1d7516d87e97de,67f5520928787542c8c6bebc,0.1851916936155551,1,left,0.23948705164473874
768,j,capitals,17,state,Florida,Tallahassee,Jacksonville,What is the capital of Florida?,The capital of Florida is,0.205,1.008,4.917073171,False,critical,html-keyboard-response,23,74730,subject_14,67d993866d1d7516d87e97de,67f5520928787542c8c6bebc,0.1851916936155551,1,right,-1.0163971399679181
682,j,capitals,18,state,Illinois,Springfield,Chicago,What is the capital of Illinois?,The capital of Illinois is,0.111,2.612,23.53153153,False,critical,html-keyboard-response,25,76429,subject_14,67d993866d1d7516d87e97de,67f5520928787542c8c6bebc,0.1851916936155551,1,right,-1.3426993770636537
1037,j,capitals,33,state,North Carolina,Raleigh,Charlotte,What is the capital of North Carolina?,The capital of North Carolina is,0.494,0.935,1.892712551,False,critical,html-keyboard-response,27,78479,subject_14,67d993866d1d7516d87e97de,67f5520928787542c8c6bebc,0.1851916936155551,1,right,0.004245903971068871
834,f,capitals,35,state,Oregon,Salem,Portland,What is the capital of Oregon?,The capital of Oregon is,0.178,0.615,3.45505618,True,critical,html-keyboard-response,29,80330,subject_14,67d993866d1d7516d87e97de,67f5520928787542c8c6bebc,0.1851916936155551,1,left,-0.7659791440572373
851,f,capitals,4,country,India,New Delhi,Mumbai,What is the capital of India?,The capital of India is,0.206,22.1,107.2815534,True,critical,html-keyboard-response,31,82196,subject_14,67d993866d1d7516d87e97de,67f5520928787542c8c6bebc,0.1851916936155551,1,left,-0.7014775390499407
917,f,capitals,6,country,New Zealand,Wellington,Auckland,What is the capital of New Zealand?,The capital of New Zealand is,0.428,1.711,3.997663551,True,critical,html-keyboard-response,33,84128,subject_14,67d993866d1d7516d87e97de,67f5520928787542c8c6bebc,0.1851916936155551,1,left,-0.4510595431392599
940,j,capitals,37,state,South Dakota,Pierre,Sioux Falls,What is the capital of South Dakota?,The capital of South Dakota is,0.0138,0.215,15.57971014,False,critical,html-keyboard-response,35,86070,subject_14,67d993866d1d7516d87e97de,67f5520928787542c8c6bebc,0.1851916936155551,1,right,-0.36379266577644687
1156,j,capitals,5,country,Morrocco,Rabat,Marrakesh,What is the capital of Morrocco?,The capital of Morrocco is,2.02,1.085,0.5371287129,False,critical,html-keyboard-response,37,88235,subject_14,67d993866d1d7516d87e97de,67f5520928787542c8c6bebc,0.1851916936155551,1,right,0.4557571390221449
1052,j,capitals,39,state,Vermont,Montpelier,Burlington,What is the capital of Vermont?,The capital of Vermont is,0.0079,0.0444,5.620253165,False,critical,html-keyboard-response,39,90298,subject_14,67d993866d1d7516d87e97de,67f5520928787542c8c6bebc,0.1851916936155551,1,right,0.06115908485985996
1028,j,capitals,40,state,Virginia,Richmond,Virginia Beach,What is the capital of Virginia?,The capital of Virginia is,0.231,0.45,1.948051948,False,critical,html-keyboard-response,41,92340,subject_14,67d993866d1d7516d87e97de,67f5520928787542c8c6bebc,0.1851916936155551,1,right,-0.029902004562205788
1539,j,capitals,29,state,New Hampshire,Concord,Manchester,What is the capital of New Hampshire?,The capital of New Hampshire is,0.0449,0.115,2.561247216,False,critical,html-keyboard-response,43,94883,subject_14,67d993866d1d7516d87e97de,67f5520928787542c8c6bebc,0.1851916936155551,1,right,1.9089403577159443
1161,j,capitals,30,state,New Jersey,Trenton,Newark,What is the capital of New Jersey?,The capital of New Jersey is,0.0898,0.306,3.407572383,False,critical,html-keyboard-response,45,97055,subject_14,67d993866d1d7516d87e97de,67f5520928787542c8c6bebc,0.1851916936155551,1,right,0.4747281993184086
861,f,capitals,13,state,Alaska,Juneau,Anchorage,What is the capital of Alaska?,The capital of Alaska is,0.0311,0.283,9.099678457,True,critical,html-keyboard-response,47,98922,subject_14,67d993866d1d7516d87e97de,67f5520928787542c8c6bebc,0.1851916936155551,1,left,-0.6635354184574134
924,f,capitals,21,state,Louisiana,Baton Rouge,New Orleans,What is the capital of Louisiana?,The capital of Louisiana is,0.215,0.351,1.63255814,True,critical,html-keyboard-response,49,100851,subject_14,67d993866d1d7516d87e97de,67f5520928787542c8c6bebc,0.1851916936155551,1,left,-0.4245000587244907
871,j,capitals,42,state,Wisconsin,Madison,Milwaukee,What is the capital of Wisconsin?,The capital of Wisconsin is,0.284,0.551,1.940140845,False,critical,html-keyboard-response,51,102731,subject_14,67d993866d1d7516d87e97de,67f5520928787542c8c6bebc,0.1851916936155551,1,right,-0.6255932978648859
761,f,capitals,41,state,Washington,Olympia,Seattle,What is the capital of Washington?,The capital of Washington is,0.0558,0.765,13.70967742,True,critical,html-keyboard-response,53,104506,subject_14,67d993866d1d7516d87e97de,67f5520928787542c8c6bebc,0.1851916936155551,1,left,-1.0429566243826873
814,j,capitals,36,state,Pennsylvania,Harrisburg,Philadelphia,What is the capital of Pennsylvania?,The capital of Pennsylvania is,0.05,1.517,30.34,False,critical,html-keyboard-response,55,106328,subject_14,67d993866d1d7516d87e97de,67f5520928787542c8c6bebc,0.1851916936155551,1,right,-0.8418633852422921
945,j,capitals,22,state,Maine,Augusta,Portland,What is the capital of Maine?,The capital of Maine is,0.0192,0.0695,3.619791667,False,critical,html-keyboard-response,57,108291,subject_14,67d993866d1d7516d87e97de,67f5520928787542c8c6bebc,0.1851916936155551,1,right,-0.3448216054801832
786,f,capitals,38,state,Texas,Austin,Houston,What is the capital of Texas?,The capital of Texas is,0.989,2.324,2.349848332,True,critical,html-keyboard-response,59,110095,subject_14,67d993866d1d7516d87e97de,67f5520928787542c8c6bebc,0.1851916936155551,1,left,-0.9481013229013688
876,j,capitals,14,state,California,Sacramento,Los Angeles,What is the capital of California?,The capital of California is,0.527,3.8,7.210626186,False,critical,html-keyboard-response,61,111974,subject_14,67d993866d1d7516d87e97de,67f5520928787542c8c6bebc,0.1851916936155551,1,right,-0.6066222375686222
1005,j,capitals,23,state,Maryland,Annapolis,Baltimore,What is the capital of Maryland?,The capital of Maryland is,0.0403,0.553,13.72208437,False,critical,html-keyboard-response,63,113982,subject_14,67d993866d1d7516d87e97de,67f5520928787542c8c6bebc,0.1851916936155551,1,right,-0.1171688819250188
1114,f,capitals,27,state,Nebraska,Lincoln,Omaha,What is the capital of Nebraska?,The capital of Nebraska is,0.297,0.477,1.606060606,True,critical,html-keyboard-response,65,116112,subject_14,67d993866d1d7516d87e97de,67f5520928787542c8c6bebc,0.1851916936155551,1,left,0.2964002325335298
874,j,capitals,24,state,Michigan,Lansing,Detroit,What is the capital of Michigan?,The capital of Michigan is,0.112,0.63,5.625,False,critical,html-keyboard-response,67,118002,subject_14,67d993866d1d7516d87e97de,67f5520928787542c8c6bebc,0.1851916936155551,1,right,-0.6142106616871277
1062,f,capitals,10,country,Turkey,Ankara,Istanbul,What is the capital of Turkey?,The capital of Turkey is,5.55,16.24,2.926126126,True,critical,html-keyboard-response,69,120072,subject_14,67d993866d1d7516d87e97de,67f5520928787542c8c6bebc,0.1851916936155551,1,left,0.09910120545238736
939,f,capitals,31,state,New Mexico,Santa Fe,Albuquerque,What is the capital of New Mexico?,The capital of New Mexico is,0.0901,0.557,6.182019978,True,critical,html-keyboard-response,71,122017,subject_14,67d993866d1d7516d87e97de,67f5520928787542c8c6bebc,0.1851916936155551,1,left,-0.3675868778356996
990,f,capitals,16,state,Delaware,Dover,Wilmington,What is the capital of Delaware?,The capital of Delaware is,0.0403,0.0722,1.791563275,True,critical,html-keyboard-response,73,124018,subject_14,67d993866d1d7516d87e97de,67f5520928787542c8c6bebc,0.1851916936155551,1,left,-0.1740820628138099
969,f,capitals,26,state,Montana,Helena,Billings,What is the capital of Montana?,The capital of Montana is,0.0359,0.123,3.426183844,True,critical,html-keyboard-response,75,125990,subject_14,67d993866d1d7516d87e97de,67f5520928787542c8c6bebc,0.1851916936155551,1,left,-0.25376051605811745
1075,f,capitals,19,state,Kansas,Topeka,Wichita,What is the capital of Kansas?,The capital of Kansas is,0.125,0.395,3.16,True,critical,html-keyboard-response,77,128082,subject_14,67d993866d1d7516d87e97de,67f5520928787542c8c6bebc,0.1851916936155551,1,left,0.14842596222267299
855,f,capitals,25,state,Minnesota,St. Paul,Minneapolis,What is the capital of Minnesota?,The capital of Minnesota is,0.299,0.421,1.408026756,True,critical,html-keyboard-response,79,129950,subject_14,67d993866d1d7516d87e97de,67f5520928787542c8c6bebc,0.1851916936155551,1,left,-0.6863006908129298
2104,f,capitals,9,country,Switzerland,Bern,Zurich,What is the capital of Switzerland?,The capital of Switzerland is,0.448,1.455,3.247767857,True,critical,html-keyboard-response,81,133067,subject_14,67d993866d1d7516d87e97de,67f5520928787542c8c6bebc,0.1851916936155551,1,left,4.052670171193742
982,j,capitals,32,state,New York,Albany,New York,What is the capital of New York?,The capital of New York is,0.103,7.937,77.05825243,False,critical,html-keyboard-response,83,135061,subject_14,67d993866d1d7516d87e97de,67f5520928787542c8c6bebc,0.1851916936155551,1,right,-0.2044357592878318
1084,f,capitals,1,country,Australia,Canberra,Sydney,What is the capital of Australia?,The capital of Australia is,0.483,5.249,10.86749482,True,critical,html-keyboard-response,85,137149,subject_14,67d993866d1d7516d87e97de,67f5520928787542c8c6bebc,0.1851916936155551,1,left,0.18257387075594764
1066,j,capitals,2,country,Brazil,Brasilia,Rio de Janeiro,What is the capital of Brazil?,The capital of Brazil is,4.99,13.923,2.790180361,False,critical,html-keyboard-response,87,139228,subject_14,67d993866d1d7516d87e97de,67f5520928787542c8c6bebc,0.1851916936155551,1,right,0.11427805368939832
1118,j,capitals,7,country,Pakistan,Islamabad,Karachi,What is the capital of Pakistan?,The capital of Pakistan is,1.3,18.1,13.92307692,False,critical,html-keyboard-response,89,141363,subject_14,67d993866d1d7516d87e97de,67f5520928787542c8c6bebc,0.1851916936155551,1,right,0.3115770807705408
3068,j,capitals,16,state,Delaware,Dover,Wilmington,What is the capital of Delaware?,The capital of Delaware is,0.0403,0.0722,1.791563275,False,critical,html-keyboard-response,7,124274,subject_38,67d993866d1d7516d87e97de,67f5549f993bf9f3b7aad9cb,0.30274368921208916,1,right,2.178412063282033
2379,j,capitals,25,state,Minnesota,St. Paul,Minneapolis,What is the capital of Minnesota?,The capital of Minnesota is,0.299,0.421,1.408026756,True,critical,html-keyboard-response,9,127657,subject_38,67d993866d1d7516d87e97de,67f5549f993bf9f3b7aad9cb,0.30274368921208916,0,right,1.295749350456938
1573,j,capitals,26,state,Montana,Helena,Billings,What is the capital of Montana?,The capital of Montana is,0.0359,0.123,3.426183844,True,critical,html-keyboard-response,11,130234,subject_38,67d993866d1d7516d87e97de,67f5549f993bf9f3b7aad9cb,0.30274368921208916,0,right,0.26320051658607185
1642,f,capitals,33,state,North Carolina,Raleigh,Charlotte,What is the capital of North Carolina?,The capital of North Carolina is,0.494,0.935,1.892712551,False,critical,html-keyboard-response,13,132880,subject_38,67d993866d1d7516d87e97de,67f5549f993bf9f3b7aad9cb,0.30274368921208916,0,left,0.351594895664347
1334,j,capitals,37,state,South Dakota,Pierre,Sioux Falls,What is the capital of South Dakota?,The capital of South Dakota is,0.0138,0.215,15.57971014,False,critical,html-keyboard-response,15,135218,subject_38,67d993866d1d7516d87e97de,67f5549f993bf9f3b7aad9cb,0.30274368921208916,1,right,-0.042977115293750735
1055,j,capitals,6,country,New Zealand,Wellington,Auckland,What is the capital of New Zealand?,The capital of New Zealand is,0.428,1.711,3.997663551,True,critical,html-keyboard-response,17,137276,subject_38,67d993866d1d7516d87e97de,67f5549f993bf9f3b7aad9cb,0.30274368921208916,0,right,-0.4003978654798198
1126,f,capitals,20,state,Kentucky,Frankfort,Louisville,What is the capital of Kentucky?,The capital of Kentucky is,0.0281,0.617,21.95729537,True,critical,html-keyboard-response,19,139411,subject_38,67d993866d1d7516d87e97de,67f5549f993bf9f3b7aad9cb,0.30274368921208916,1,left,-0.30944133048623235
532,j,capitals,23,state,Maryland,Annapolis,Baltimore,What is the capital of Maryland?,The capital of Maryland is,0.0403,0.553,13.72208437,True,critical,html-keyboard-response,21,140947,subject_38,67d993866d1d7516d87e97de,67f5549f993bf9f3b7aad9cb,0.30274368921208916,0,right,-1.0704016373339922
534,f,capitals,15,state,Connecticut,Hartford,Bridgeport,What is the capital of Connecticut?,The capital of Connecticut is,0.119,0.148,1.243697479,False,critical,html-keyboard-response,23,142483,subject_38,67d993866d1d7516d87e97de,67f5549f993bf9f3b7aad9cb,0.30274368921208916,0,left,-1.06783948141868
1109,f,capitals,34,state,North Dakota,Bismarck,Fargo,What is the capital of North Dakota?,The capital of North Dakota is,0.076,0.138,1.815789474,False,critical,html-keyboard-response,25,144596,subject_38,67d993866d1d7516d87e97de,67f5549f993bf9f3b7aad9cb,0.30274368921208916,0,left,-0.33121965576638707
1985,j,capitals,12,state,Alabama,Montgomery,Birmingham,What is the capital of Alabama?,The capital of Alabama is,0.192,0.194,1.010416667,True,critical,html-keyboard-response,27,147585,subject_38,67d993866d1d7516d87e97de,67f5549f993bf9f3b7aad9cb,0.30274368921208916,0,right,0.7910046351404104
1812,j,capitals,40,state,Virginia,Richmond,Virginia Beach,What is the capital of Virginia?,The capital of Virginia is,0.231,0.45,1.948051948,True,critical,html-keyboard-response,29,150401,subject_38,67d993866d1d7516d87e97de,67f5549f993bf9f3b7aad9cb,0.30274368921208916,0,right,0.5693781484658945
1944,f,capitals,13,state,Alaska,Juneau,Anchorage,What is the capital of Alaska?,The capital of Alaska is,0.0311,0.283,9.099678457,False,critical,html-keyboard-response,31,153348,subject_38,67d993866d1d7516d87e97de,67f5549f993bf9f3b7aad9cb,0.30274368921208916,0,left,0.7384804388765078
2235,j,capitals,5,country,Morrocco,Rabat,Marrakesh,What is the capital of Morrocco?,The capital of Morrocco is,2.02,1.085,0.5371287129,True,critical,html-keyboard-response,33,156586,subject_38,67d993866d1d7516d87e97de,67f5549f993bf9f3b7aad9cb,0.30274368921208916,0,right,1.1112741245544508
744,j,capitals,30,state,New Jersey,Trenton,Newark,What is the capital of New Jersey?,The capital of New Jersey is,0.0898,0.306,3.407572383,False,critical,html-keyboard-response,35,158334,subject_38,67d993866d1d7516d87e97de,67f5549f993bf9f3b7aad9cb,0.30274368921208916,1,right,-0.798813110310886
514,j,capitals,9,country,Switzerland,Bern,Zurich,What is the capital of Switzerland?,The capital of Switzerland is,0.448,1.455,3.247767857,False,critical,html-keyboard-response,37,159851,subject_38,67d993866d1d7516d87e97de,67f5549f993bf9f3b7aad9cb,0.30274368921208916,1,right,-1.0934610405718033
361,f,capitals,19,state,Kansas,Topeka,Wichita,What is the capital of Kansas?,The capital of Kansas is,0.125,0.395,3.16,False,critical,html-keyboard-response,39,161214,subject_38,67d993866d1d7516d87e97de,67f5549f993bf9f3b7aad9cb,0.30274368921208916,0,left,-1.289465968093196
1414,f,capitals,42,state,Wisconsin,Madison,Milwaukee,What is the capital of Wisconsin?,The capital of Wisconsin is,0.284,0.551,1.940140845,True,critical,html-keyboard-response,41,163632,subject_38,67d993866d1d7516d87e97de,67f5549f993bf9f3b7aad9cb,0.30274368921208916,1,left,0.059509121318742184
561,j,capitals,10,country,Turkey,Ankara,Istanbul,What is the capital of Turkey?,The capital of Turkey is,5.55,16.24,2.926126126,False,critical,html-keyboard-response,43,165196,subject_38,67d993866d1d7516d87e97de,67f5549f993bf9f3b7aad9cb,0.30274368921208916,1,right,-1.0332503765619636
492,f,capitals,7,country,Pakistan,Islamabad,Karachi,What is the capital of Pakistan?,The capital of Pakistan is,1.3,18.1,13.92307692,False,critical,html-keyboard-response,45,166691,subject_38,67d993866d1d7516d87e97de,67f5549f993bf9f3b7aad9cb,0.30274368921208916,0,left,-1.1216447556402387
734,j,capitals,8,country,South Africa,Pretoria,Johannesburg,What is the capital of South Africa?,The capital of South Africa is,3.0,6.4,2.133333333,True,critical,html-keyboard-response,47,168428,subject_38,67d993866d1d7516d87e97de,67f5549f993bf9f3b7aad9cb,0.30274368921208916,0,right,-0.8116238898874476
1467,j,capitals,18,state,Illinois,Springfield,Chicago,What is the capital of Illinois?,The capital of Illinois is,0.111,2.612,23.53153153,False,critical,html-keyboard-response,49,170899,subject_38,67d993866d1d7516d87e97de,67f5549f993bf9f3b7aad9cb,0.30274368921208916,1,right,0.12740625307451875
1546,j,capitals,17,state,Florida,Tallahassee,Jacksonville,What is the capital of Florida?,The capital of Florida is,0.205,1.008,4.917073171,True,critical,html-keyboard-response,51,173448,subject_38,67d993866d1d7516d87e97de,67f5549f993bf9f3b7aad9cb,0.30274368921208916,0,right,0.2286114117293555
2459,f,capitals,14,state,California,Sacramento,Los Angeles,What is the capital of California?,The capital of California is,0.527,3.8,7.210626186,False,critical,html-keyboard-response,53,176912,subject_38,67d993866d1d7516d87e97de,67f5549f993bf9f3b7aad9cb,0.30274368921208916,0,left,1.398235587069431
1340,j,capitals,27,state,Nebraska,Lincoln,Omaha,What is the capital of Nebraska?,The capital of Nebraska is,0.297,0.477,1.606060606,False,critical,html-keyboard-response,55,179255,subject_38,67d993866d1d7516d87e97de,67f5549f993bf9f3b7aad9cb,0.30274368921208916,1,right,-0.03529064754781377
1433,j,capitals,41,state,Washington,Olympia,Seattle,What is the capital of Washington?,The capital of Washington is,0.0558,0.765,13.70967742,True,critical,html-keyboard-response,57,181692,subject_38,67d993866d1d7516d87e97de,67f5549f993bf9f3b7aad9cb,0.30274368921208916,0,right,0.08384960251420925
4049,j,capitals,11,country,United Arab Emirates,Abu Dhabi,Dubai,What is the capital of the United Arab Emirates?,The capital of the United Arab Emirates is,1.6,3.1,1.9375,True,critical,html-keyboard-response,59,186745,subject_38,67d993866d1d7516d87e97de,67f5549f993bf9f3b7aad9cb,0.30274368921208916,0,right,3.4351495397427274
479,f,capitals,38,state,Texas,Austin,Houston,What is the capital of Texas?,The capital of Texas is,0.989,2.324,2.349848332,False,critical,html-keyboard-response,61,188227,subject_38,67d993866d1d7516d87e97de,67f5549f993bf9f3b7aad9cb,0.30274368921208916,0,left,-1.1382987690897688
1088,f,capitals,21,state,Louisiana,Baton Rouge,New Orleans,What is the capital of Louisiana?,The capital of Louisiana is,0.215,0.351,1.63255814,False,critical,html-keyboard-response,63,190318,subject_38,67d993866d1d7516d87e97de,67f5549f993bf9f3b7aad9cb,0.30274368921208916,0,left,-0.35812229287716646
1314,j,capitals,22,state,Maine,Augusta,Portland,What is the capital of Maine?,The capital of Maine is,0.0192,0.0695,3.619791667,True,critical,html-keyboard-response,65,192635,subject_38,67d993866d1d7516d87e97de,67f5549f993bf9f3b7aad9cb,0.30274368921208916,0,right,-0.06859867444687397
1541,f,capitals,31,state,New Mexico,Santa Fe,Albuquerque,What is the capital of New Mexico?,The capital of New Mexico is,0.0901,0.557,6.182019978,False,critical,html-keyboard-response,67,195178,subject_38,67d993866d1d7516d87e97de,67f5549f993bf9f3b7aad9cb,0.30274368921208916,0,left,0.2222060219410747
769,j,capitals,3,country,Canada,Ottawa,Toronto,What is the capital of Canada?,The capital of Canada is,1.465,6.491,4.430716724,True,critical,html-keyboard-response,69,196954,subject_38,67d993866d1d7516d87e97de,67f5549f993bf9f3b7aad9cb,0.30274368921208916,0,right,-0.766786161369482
557,f,capitals,1,country,Australia,Canberra,Sydney,What is the capital of Australia?,The capital of Australia is,0.483,5.249,10.86749482,True,critical,html-keyboard-response,71,198513,subject_38,67d993866d1d7516d87e97de,67f5549f993bf9f3b7aad9cb,0.30274368921208916,1,left,-1.0383746883925882
445,j,capitals,35,state,Oregon,Salem,Portland,What is the capital of Oregon?,The capital of Oregon is,0.178,0.615,3.45505618,False,critical,html-keyboard-response,73,199962,subject_38,67d993866d1d7516d87e97de,67f5549f993bf9f3b7aad9cb,0.30274368921208916,1,right,-1.1818554196500783
1381,j,capitals,39,state,Vermont,Montpelier,Burlington,What is the capital of Vermont?,The capital of Vermont is,0.0079,0.0444,5.620253165,True,critical,html-keyboard-response,75,202346,subject_38,67d993866d1d7516d87e97de,67f5549f993bf9f3b7aad9cb,0.30274368921208916,0,right,0.017233548716088853
1129,f,capitals,36,state,Pennsylvania,Harrisburg,Philadelphia,What is the capital of Pennsylvania?,The capital of Pennsylvania is,0.05,1.517,30.34,False,critical,html-keyboard-response,77,204478,subject_38,67d993866d1d7516d87e97de,67f5549f993bf9f3b7aad9cb,0.30274368921208916,0,left,-0.30559809661326387
1245,j,capitals,28,state,Nevada,Carson City,Las Vegas,What is the capital of Nevada?,The capital of Nevada is,0.0576,0.67,11.63194444,False,critical,html-keyboard-response,79,206727,subject_38,67d993866d1d7516d87e97de,67f5549f993bf9f3b7aad9cb,0.30274368921208916,1,right,-0.1569930535251491
2821,j,capitals,32,state,New York,Albany,New York,What is the capital of New York?,The capital of New York is,0.103,7.937,77.05825243,True,critical,html-keyboard-response,81,210552,subject_38,67d993866d1d7516d87e97de,67f5549f993bf9f3b7aad9cb,0.30274368921208916,0,right,1.8619858077409615
1783,j,capitals,2,country,Brazil,Brasilia,Rio de Janeiro,What is the capital of Brazil?,The capital of Brazil is,4.99,13.923,2.790180361,False,critical,html-keyboard-response,83,213339,subject_38,67d993866d1d7516d87e97de,67f5549f993bf9f3b7aad9cb,0.30274368921208916,1,right,0.5322268876938658
1240,j,capitals,24,state,Michigan,Lansing,Detroit,What is the capital of Michigan?,The capital of Michigan is,0.112,0.63,5.625,True,critical,html-keyboard-response,85,215582,subject_38,67d993866d1d7516d87e97de,67f5549f993bf9f3b7aad9cb,0.30274368921208916,0,right,-0.16339844331342993
1037,j,capitals,29,state,New Hampshire,Concord,Manchester,What is the capital of New Hampshire?,The capital of New Hampshire is,0.0449,0.115,2.561247216,True,critical,html-keyboard-response,87,217623,subject_38,67d993866d1d7516d87e97de,67f5549f993bf9f3b7aad9cb,0.30274368921208916,0,right,-0.42345726871763073
1166,j,capitals,4,country,India,New Delhi,Mumbai,What is the capital of India?,The capital of India is,0.206,22.1,107.2815534,True,critical,html-keyboard-response,89,219792,subject_38,67d993866d1d7516d87e97de,67f5549f993bf9f3b7aad9cb,0.30274368921208916,0,right,-0.2581982121799859
2855,j,capitals,17,state,Florida,Tallahassee,Jacksonville,What is the capital of Florida?,The capital of Florida is,0.205,1.008,4.917073171,True,critical,html-keyboard-response,7,79576,subject_30,67d993866d1d7516d87e97de,67f55379f7cd013df69fe5f4,0.2581160959977725,0,right,-0.3393487163801892
2725,j,capitals,14,state,California,Sacramento,Los Angeles,What is the capital of California?,The capital of California is,0.527,3.8,7.210626186,False,critical,html-keyboard-response,9,83317,subject_30,67d993866d1d7516d87e97de,67f55379f7cd013df69fe5f4,0.2581160959977725,1,right,-0.34854237500740454
2990,j,capitals,33,state,North Carolina,Raleigh,Charlotte,What is the capital of North Carolina?,The capital of North Carolina is,0.494,0.935,1.892712551,True,critical,html-keyboard-response,11,87323,subject_30,67d993866d1d7516d87e97de,67f55379f7cd013df69fe5f4,0.2581160959977725,0,right,-0.32980145549808104
2457,f,capitals,24,state,Michigan,Lansing,Detroit,What is the capital of Michigan?,The capital of Michigan is,0.112,0.63,5.625,False,critical,html-keyboard-response,13,90798,subject_30,67d993866d1d7516d87e97de,67f55379f7cd013df69fe5f4,0.2581160959977725,0,left,-0.3674954558696637
4837,j,capitals,4,country,India,New Delhi,Mumbai,What is the capital of India?,The capital of India is,0.206,22.1,107.2815534,False,critical,html-keyboard-response,15,96650,subject_30,67d993866d1d7516d87e97de,67f55379f7cd013df69fe5f4,0.2581160959977725,1,right,-0.19918078254064536
4049,f,capitals,13,state,Alaska,Juneau,Anchorage,What is the capital of Alaska?,The capital of Alaska is,0.0311,0.283,9.099678457,True,critical,html-keyboard-response,17,101712,subject_30,67d993866d1d7516d87e97de,67f55379f7cd013df69fe5f4,0.2581160959977725,1,left,-0.25490849791176573
3557,j,capitals,12,state,Alabama,Montgomery,Birmingham,What is the capital of Alabama?,The capital of Alabama is,0.192,0.194,1.010416667,True,critical,html-keyboard-response,19,106288,subject_30,67d993866d1d7516d87e97de,67f55379f7cd013df69fe5f4,0.2581160959977725,0,right,-0.2897029597932267
3670,j,capitals,6,country,New Zealand,Wellington,Auckland,What is the capital of New Zealand?,The capital of New Zealand is,0.428,1.711,3.997663551,False,critical,html-keyboard-response,21,110974,subject_30,67d993866d1d7516d87e97de,67f55379f7cd013df69fe5f4,0.2581160959977725,1,right,-0.2817115488326472
5219,j,capitals,2,country,Brazil,Brasilia,Rio de Janeiro,What is the capital of Brazil?,The capital of Brazil is,4.99,13.923,2.790180361,False,critical,html-keyboard-response,23,117203,subject_30,67d993866d1d7516d87e97de,67f55379f7cd013df69fe5f4,0.2581160959977725,1,right,-0.17216557026682813
4654,f,capitals,35,state,Oregon,Salem,Portland,What is the capital of Oregon?,The capital of Oregon is,0.178,0.615,3.45505618,False,critical,html-keyboard-response,25,122864,subject_30,67d993866d1d7516d87e97de,67f55379f7cd013df69fe5f4,0.2581160959977725,0,left,-0.21212262506972535
2399,j,capitals,25,state,Minnesota,St. Paul,Minneapolis,What is the capital of Minnesota?,The capital of Minnesota is,0.299,0.421,1.408026756,True,critical,html-keyboard-response,27,126280,subject_30,67d993866d1d7516d87e97de,67f55379f7cd013df69fe5f4,0.2581160959977725,0,right,-0.3715972420264213
3732,f,capitals,7,country,Pakistan,Islamabad,Karachi,What is the capital of Pakistan?,The capital of Pakistan is,1.3,18.1,13.92307692,True,critical,html-keyboard-response,29,131017,subject_30,67d993866d1d7516d87e97de,67f55379f7cd013df69fe5f4,0.2581160959977725,1,left,-0.2773268808719753
3496,f,capitals,16,state,Delaware,Dover,Wilmington,What is the capital of Delaware?,The capital of Delaware is,0.0403,0.0722,1.791563275,False,critical,html-keyboard-response,31,135529,subject_30,67d993866d1d7516d87e97de,67f55379f7cd013df69fe5f4,0.2581160959977725,0,left,-0.29401690730292
1864,j,capitals,10,country,Turkey,Ankara,Istanbul,What is the capital of Turkey?,The capital of Turkey is,5.55,16.24,2.926126126,True,critical,html-keyboard-response,33,138396,subject_30,67d993866d1d7516d87e97de,67f55379f7cd013df69fe5f4,0.2581160959977725,0,right,-0.40943268329996113
2903,j,capitals,5,country,Morrocco,Rabat,Marrakesh,What is the capital of Morrocco?,The capital of Morrocco is,2.02,1.085,0.5371287129,False,critical,html-keyboard-response,35,142308,subject_30,67d993866d1d7516d87e97de,67f55379f7cd013df69fe5f4,0.2581160959977725,1,right,-0.33595413473321745
5411,f,capitals,19,state,Kansas,Topeka,Wichita,What is the capital of Kansas?,The capital of Kansas is,0.125,0.395,3.16,True,critical,html-keyboard-response,37,148732,subject_30,67d993866d1d7516d87e97de,67f55379f7cd013df69fe5f4,0.2581160959977725,1,left,-0.15858724367894092
5331,j,capitals,28,state,Nevada,Carson City,Las Vegas,What is the capital of Nevada?,The capital of Nevada is,0.0576,0.67,11.63194444,True,critical,html-keyboard-response,39,155068,subject_30,67d993866d1d7516d87e97de,67f55379f7cd013df69fe5f4,0.2581160959977725,0,right,-0.16424487975722726
5639,j,capitals,39,state,Vermont,Montpelier,Burlington,What is the capital of Vermont?,The capital of Vermont is,0.0079,0.0444,5.620253165,False,critical,html-keyboard-response,41,161724,subject_30,67d993866d1d7516d87e97de,67f55379f7cd013df69fe5f4,0.2581160959977725,1,right,-0.14246298085582487
4426,f,capitals,36,state,Pennsylvania,Harrisburg,Philadelphia,What is the capital of Pennsylvania?,The capital of Pennsylvania is,0.05,1.517,30.34,False,critical,html-keyboard-response,43,167164,subject_30,67d993866d1d7516d87e97de,67f55379f7cd013df69fe5f4,0.2581160959977725,0,left,-0.2282468878928414
7541,j,capitals,38,state,Texas,Austin,Houston,What is the capital of Texas?,The capital of Texas is,0.989,2.324,2.349848332,True,critical,html-keyboard-response,45,175723,subject_30,67d993866d1d7516d87e97de,67f55379f7cd013df69fe5f4,0.2581160959977725,0,right,-0.007952683094567349
3983,f,capitals,23,state,Maryland,Annapolis,Baltimore,What is the capital of Maryland?,The capital of Maryland is,0.0403,0.553,13.72208437,False,critical,html-keyboard-response,47,180714,subject_30,67d993866d1d7516d87e97de,67f55379f7cd013df69fe5f4,0.2581160959977725,0,left,-0.25957604767635195
10188,f,capitals,18,state,Illinois,Springfield,Chicago,What is the capital of Illinois?,The capital of Illinois is,0.111,2.612,23.53153153,True,critical,html-keyboard-response,49,191917,subject_30,67d993866d1d7516d87e97de,67f55379f7cd013df69fe5f4,0.2581160959977725,1,left,0.17924435064573166
4677,j,capitals,41,state,Washington,Olympia,Seattle,What is the capital of Washington?,The capital of Washington is,0.0558,0.765,13.70967742,True,critical,html-keyboard-response,51,197604,subject_30,67d993866d1d7516d87e97de,67f55379f7cd013df69fe5f4,0.2581160959977725,0,right,-0.21049605469721802
4009,f,capitals,40,state,Virginia,Richmond,Virginia Beach,What is the capital of Virginia?,The capital of Virginia is,0.231,0.45,1.948051948,False,critical,html-keyboard-response,53,202617,subject_30,67d993866d1d7516d87e97de,67f55379f7cd013df69fe5f4,0.2581160959977725,0,left,-0.2577373159509089
2011,j,capitals,9,country,Switzerland,Bern,Zurich,What is the capital of Switzerland?,The capital of Switzerland is,0.448,1.455,3.247767857,True,critical,html-keyboard-response,57,301949,subject_30,67d993866d1d7516d87e97de,67f55379f7cd013df69fe5f4,0.2581160959977725,0,right,-0.39903677700611
10851,j,capitals,22,state,Maine,Augusta,Portland,What is the capital of Maine?,The capital of Maine is,0.0192,0.0695,3.619791667,False,critical,html-keyboard-response,59,313814,subject_30,67d993866d1d7516d87e97de,67f55379f7cd013df69fe5f4,0.2581160959977725,1,right,0.22613200964452962
10424,j,capitals,34,state,North Dakota,Bismarck,Fargo,What is the capital of North Dakota?,The capital of North Dakota is,0.076,0.138,1.815789474,False,critical,html-keyboard-response,61,325251,subject_30,67d993866d1d7516d87e97de,67f55379f7cd013df69fe5f4,0.2581160959977725,1,right,0.19593437707667632
7485,f,capitals,21,state,Louisiana,Baton Rouge,New Orleans,What is the capital of Louisiana?,The capital of Louisiana is,0.215,0.351,1.63255814,True,critical,html-keyboard-response,63,333741,subject_30,67d993866d1d7516d87e97de,67f55379f7cd013df69fe5f4,0.2581160959977725,1,left,-0.01191302834936778
12110,j,capitals,30,state,New Jersey,Trenton,Newark,What is the capital of New Jersey?,The capital of New Jersey is,0.0898,0.306,3.407572383,False,critical,html-keyboard-response,65,346855,subject_30,67d993866d1d7516d87e97de,67f55379f7cd013df69fe5f4,0.2581160959977725,1,right,0.31516905742656076
4432,f,capitals,42,state,Wisconsin,Madison,Milwaukee,What is the capital of Wisconsin?,The capital of Wisconsin is,0.284,0.551,1.940140845,True,critical,html-keyboard-response,67,352296,subject_30,67d993866d1d7516d87e97de,67f55379f7cd013df69fe5f4,0.2581160959977725,1,left,-0.22782256518696992
8685,j,capitals,27,state,Nebraska,Lincoln,Omaha,What is the capital of Nebraska?,The capital of Nebraska is,0.297,0.477,1.606060606,False,critical,html-keyboard-response,69,361996,subject_30,67d993866d1d7516d87e97de,67f55379f7cd013df69fe5f4,0.2581160959977725,1,right,0.07295151282492719
2367,j,capitals,1,country,Australia,Canberra,Sydney,What is the capital of Australia?,The capital of Australia is,0.483,5.249,10.86749482,True,critical,html-keyboard-response,71,365382,subject_30,67d993866d1d7516d87e97de,67f55379f7cd013df69fe5f4,0.2581160959977725,0,right,-0.37386029645773583
1378,j,capitals,8,country,South Africa,Pretoria,Johannesburg,What is the capital of South Africa?,The capital of South Africa is,3.0,6.4,2.133333333,True,critical,html-keyboard-response,73,367771,subject_30,67d993866d1d7516d87e97de,67f55379f7cd013df69fe5f4,0.2581160959977725,0,right,-0.44380282247555064
7876,f,capitals,20,state,Kentucky,Frankfort,Louisville,What is the capital of Kentucky?,The capital of Kentucky is,0.0281,0.617,21.95729537,True,critical,html-keyboard-response,75,376658,subject_30,67d993866d1d7516d87e97de,67f55379f7cd013df69fe5f4,0.2581160959977725,1,left,0.015738667983256665
8156,j,capitals,37,state,South Dakota,Pierre,Sioux Falls,What is the capital of South Dakota?,The capital of South Dakota is,0.0138,0.215,15.57971014,False,critical,html-keyboard-response,77,385829,subject_30,67d993866d1d7516d87e97de,67f55379f7cd013df69fe5f4,0.2581160959977725,1,right,0.03554039425725883
8249,j,capitals,3,country,Canada,Ottawa,Toronto,What is the capital of Canada?,The capital of Canada is,1.465,6.491,4.430716724,False,critical,html-keyboard-response,79,395084,subject_30,67d993866d1d7516d87e97de,67f55379f7cd013df69fe5f4,0.2581160959977725,1,right,0.04211739619826669
4760,f,capitals,15,state,Connecticut,Hartford,Bridgeport,What is the capital of Connecticut?,The capital of Connecticut is,0.119,0.148,1.243697479,True,critical,html-keyboard-response,81,400848,subject_30,67d993866d1d7516d87e97de,67f55379f7cd013df69fe5f4,0.2581160959977725,1,left,-0.20462625726599595
8280,j,capitals,32,state,New York,Albany,New York,What is the capital of New York?,The capital of New York is,0.103,7.937,77.05825243,False,critical,html-keyboard-response,83,410143,subject_30,67d993866d1d7516d87e97de,67f55379f7cd013df69fe5f4,0.2581160959977725,1,right,0.04430973017860264
10855,f,capitals,26,state,Montana,Helena,Billings,What is the capital of Montana?,The capital of Montana is,0.0359,0.123,3.426183844,True,critical,html-keyboard-response,85,422012,subject_30,67d993866d1d7516d87e97de,67f55379f7cd013df69fe5f4,0.2581160959977725,1,left,0.22641489144844393
7883,j,capitals,29,state,New Hampshire,Concord,Manchester,What is the capital of New Hampshire?,The capital of New Hampshire is,0.0449,0.115,2.561247216,False,critical,html-keyboard-response,87,430898,subject_30,67d993866d1d7516d87e97de,67f55379f7cd013df69fe5f4,0.2581160959977725,1,right,0.01623371114010672
7732,j,capitals,11,country,United Arab Emirates,Abu Dhabi,Dubai,What is the capital of the United Arab Emirates?,The capital of the United Arab Emirates is,1.6,3.1,1.9375,True,critical,html-keyboard-response,89,439634,subject_30,67d993866d1d7516d87e97de,67f55379f7cd013df69fe5f4,0.2581160959977725,0,right,0.0055549230423412675
1656,f,capitals,22,state,Maine,Augusta,Portland,What is the capital of Maine?,The capital of Maine is,0.0192,0.0695,3.619791667,False,critical,html-keyboard-response,7,37067,subject_28,67d993866d1d7516d87e97de,67f5594f1e1942f068f623fb,0.15064992901808572,0,left,0.27830129557308686
1318,f,capitals,42,state,Wisconsin,Madison,Milwaukee,What is the capital of Wisconsin?,The capital of Wisconsin is,0.284,0.551,1.940140845,True,critical,html-keyboard-response,9,39389,subject_28,67d993866d1d7516d87e97de,67f5594f1e1942f068f623fb,0.15064992901808572,1,left,-0.4987964998548324
1325,f,capitals,31,state,New Mexico,Santa Fe,Albuquerque,What is the capital of New Mexico?,The capital of New Mexico is,0.0901,0.557,6.182019978,False,critical,html-keyboard-response,11,41718,subject_28,67d993866d1d7516d87e97de,67f5594f1e1942f068f623fb,0.15064992901808572,0,left,-0.48270275852940214
2482,f,capitals,23,state,Maryland,Annapolis,Baltimore,What is the capital of Maryland?,The capital of Maryland is,0.0403,0.553,13.72208437,True,critical,html-keyboard-response,13,45205,subject_28,67d993866d1d7516d87e97de,67f5594f1e1942f068f623fb,0.15064992901808572,1,left,2.17736277197386
2414,f,capitals,11,country,United Arab Emirates,Abu Dhabi,Dubai,What is the capital of the United Arab Emirates?,The capital of the United Arab Emirates is,1.6,3.1,1.9375,True,critical,html-keyboard-response,15,48623,subject_28,67d993866d1d7516d87e97de,67f5594f1e1942f068f623fb,0.15064992901808572,1,left,2.021023570526823
1042,f,capitals,35,state,Oregon,Salem,Portland,What is the capital of Oregon?,The capital of Oregon is,0.178,0.615,3.45505618,False,critical,html-keyboard-response,17,50669,subject_28,67d993866d1d7516d87e97de,67f5594f1e1942f068f623fb,0.15064992901808572,0,left,-1.133349729257512
1287,j,capitals,28,state,Nevada,Carson City,Las Vegas,What is the capital of Nevada?,The capital of Nevada is,0.0576,0.67,11.63194444,False,critical,html-keyboard-response,19,52960,subject_28,67d993866d1d7516d87e97de,67f5594f1e1942f068f623fb,0.15064992901808572,1,right,-0.5700687828674522
1163,f,capitals,5,country,Morrocco,Rabat,Marrakesh,What is the capital of Morrocco?,The capital of Morrocco is,2.02,1.085,0.5371287129,True,critical,html-keyboard-response,21,55126,subject_28,67d993866d1d7516d87e97de,67f5594f1e1942f068f623fb,0.15064992901808572,1,left,-0.8551579149179315
1362,j,capitals,1,country,Australia,Canberra,Sydney,What is the capital of Australia?,The capital of Australia is,0.483,5.249,10.86749482,True,critical,html-keyboard-response,23,57492,subject_28,67d993866d1d7516d87e97de,67f5594f1e1942f068f623fb,0.15064992901808572,0,right,-0.3976358400949849
2364,f,capitals,17,state,Florida,Tallahassee,Jacksonville,What is the capital of Florida?,The capital of Florida is,0.205,1.008,4.917073171,False,critical,html-keyboard-response,25,60860,subject_28,67d993866d1d7516d87e97de,67f5594f1e1942f068f623fb,0.15064992901808572,0,left,1.906068275345178
1285,j,capitals,39,state,Vermont,Montpelier,Burlington,What is the capital of Vermont?,The capital of Vermont is,0.0079,0.0444,5.620253165,True,critical,html-keyboard-response,27,63149,subject_28,67d993866d1d7516d87e97de,67f5594f1e1942f068f623fb,0.15064992901808572,0,right,-0.574666994674718
1129,f,capitals,24,state,Michigan,Lansing,Detroit,What is the capital of Michigan?,The capital of Michigan is,0.112,0.63,5.625,False,critical,html-keyboard-response,29,65282,subject_28,67d993866d1d7516d87e97de,67f5594f1e1942f068f623fb,0.15064992901808572,0,left,-0.93332751564145
1555,f,capitals,15,state,Connecticut,Hartford,Bridgeport,What is the capital of Connecticut?,The capital of Connecticut is,0.119,0.148,1.243697479,False,critical,html-keyboard-response,31,67840,subject_28,67d993866d1d7516d87e97de,67f5594f1e1942f068f623fb,0.15064992901808572,0,left,0.04609159930616425
1468,j,capitals,41,state,Washington,Olympia,Seattle,What is the capital of Washington?,The capital of Washington is,0.0558,0.765,13.70967742,True,critical,html-keyboard-response,33,70312,subject_28,67d993866d1d7516d87e97de,67f5594f1e1942f068f623fb,0.15064992901808572,0,right,-0.15393061430989782
1315,f,capitals,27,state,Nebraska,Lincoln,Omaha,What is the capital of Nebraska?,The capital of Nebraska is,0.297,0.477,1.606060606,False,critical,html-keyboard-response,35,72631,subject_28,67d993866d1d7516d87e97de,67f5594f1e1942f068f623fb,0.15064992901808572,0,left,-0.5056938175657311
1711,j,capitals,2,country,Brazil,Brasilia,Rio de Janeiro,What is the capital of Brazil?,The capital of Brazil is,4.99,13.923,2.790180361,True,critical,html-keyboard-response,37,75346,subject_28,67d993866d1d7516d87e97de,67f5594f1e1942f068f623fb,0.15064992901808572,0,right,0.4047521202728962
1404,j,capitals,16,state,Delaware,Dover,Wilmington,What is the capital of Delaware?,The capital of Delaware is,0.0403,0.0722,1.791563275,False,critical,html-keyboard-response,39,77753,subject_28,67d993866d1d7516d87e97de,67f5594f1e1942f068f623fb,0.15064992901808572,1,right,-0.30107339214240325
1428,j,capitals,26,state,Montana,Helena,Billings,What is the capital of Montana?,The capital of Montana is,0.0359,0.123,3.426183844,True,critical,html-keyboard-response,41,80185,subject_28,67d993866d1d7516d87e97de,67f5594f1e1942f068f623fb,0.15064992901808572,0,right,-0.2458948504552137
1651,j,capitals,33,state,North Carolina,Raleigh,Charlotte,What is the capital of North Carolina?,The capital of North Carolina is,0.494,0.935,1.892712551,False,critical,html-keyboard-response,43,82839,subject_28,67d993866d1d7516d87e97de,67f5594f1e1942f068f623fb,0.15064992901808572,1,right,0.2668057660549224
1368,f,capitals,8,country,South Africa,Pretoria,Johannesburg,What is the capital of South Africa?,The capital of South Africa is,3.0,6.4,2.133333333,False,critical,html-keyboard-response,45,85211,subject_28,67d993866d1d7516d87e97de,67f5594f1e1942f068f623fb,0.15064992901808572,0,left,-0.38384120467318755
1541,j,capitals,10,country,Turkey,Ankara,Istanbul,What is the capital of Turkey?,The capital of Turkey is,5.55,16.24,2.926126126,False,critical,html-keyboard-response,47,87756,subject_28,67d993866d1d7516d87e97de,67f5594f1e1942f068f623fb,0.15064992901808572,1,right,0.013904116655303687
1818,j,capitals,20,state,Kentucky,Frankfort,Louisville,What is the capital of Kentucky?,The capital of Kentucky is,0.0281,0.617,21.95729537,True,critical,html-keyboard-response,49,90577,subject_28,67d993866d1d7516d87e97de,67f5594f1e1942f068f623fb,0.15064992901808572,0,right,0.6507564519616162
1306,f,capitals,9,country,Switzerland,Bern,Zurich,What is the capital of Switzerland?,The capital of Switzerland is,0.448,1.455,3.247767857,False,critical,html-keyboard-response,51,92886,subject_28,67d993866d1d7516d87e97de,67f5594f1e1942f068f623fb,0.15064992901808572,0,left,-0.5263857706984272
1486,f,capitals,34,state,North Dakota,Bismarck,Fargo,What is the capital of North Dakota?,The capital of North Dakota is,0.076,0.138,1.815789474,False,critical,html-keyboard-response,53,95376,subject_28,67d993866d1d7516d87e97de,67f5594f1e1942f068f623fb,0.15064992901808572,0,left,-0.11254670804450566
1283,j,capitals,40,state,Virginia,Richmond,Virginia Beach,What is the capital of Virginia?,The capital of Virginia is,0.231,0.45,1.948051948,False,critical,html-keyboard-response,55,97662,subject_28,67d993866d1d7516d87e97de,67f5594f1e1942f068f623fb,0.15064992901808572,1,right,-0.5792652064819838
1826,f,capitals,30,state,New Jersey,Trenton,Newark,What is the capital of New Jersey?,The capital of New Jersey is,0.0898,0.306,3.407572383,True,critical,html-keyboard-response,57,100492,subject_28,67d993866d1d7516d87e97de,67f5594f1e1942f068f623fb,0.15064992901808572,1,left,0.6691492991906794
1368,f,capitals,18,state,Illinois,Springfield,Chicago,What is the capital of Illinois?,The capital of Illinois is,0.111,2.612,23.53153153,True,critical,html-keyboard-response,59,102863,subject_28,67d993866d1d7516d87e97de,67f5594f1e1942f068f623fb,0.15064992901808572,1,left,-0.38384120467318755
1075,j,capitals,3,country,Canada,Ottawa,Toronto,What is the capital of Canada?,The capital of Canada is,1.465,6.491,4.430716724,True,critical,html-keyboard-response,61,104941,subject_28,67d993866d1d7516d87e97de,67f5594f1e1942f068f623fb,0.15064992901808572,0,right,-1.0574792344376265
1540,j,capitals,4,country,India,New Delhi,Mumbai,What is the capital of India?,The capital of India is,0.206,22.1,107.2815534,True,critical,html-keyboard-response,63,107485,subject_28,67d993866d1d7516d87e97de,67f5594f1e1942f068f623fb,0.15064992901808572,0,right,0.01160501075167079
1279,j,capitals,37,state,South Dakota,Pierre,Sioux Falls,What is the capital of South Dakota?,The capital of South Dakota is,0.0138,0.215,15.57971014,True,critical,html-keyboard-response,65,109767,subject_28,67d993866d1d7516d87e97de,67f5594f1e1942f068f623fb,0.15064992901808572,0,right,-0.5884616300965154
1121,f,capitals,7,country,Pakistan,Islamabad,Karachi,What is the capital of Pakistan?,The capital of Pakistan is,1.3,18.1,13.92307692,True,critical,html-keyboard-response,67,111892,subject_28,67d993866d1d7516d87e97de,67f5594f1e1942f068f623fb,0.15064992901808572,1,left,-0.9517203628705132
1241,f,capitals,29,state,New Hampshire,Concord,Manchester,What is the capital of New Hampshire?,The capital of New Hampshire is,0.0449,0.115,2.561247216,False,critical,html-keyboard-response,69,114136,subject_28,67d993866d1d7516d87e97de,67f5594f1e1942f068f623fb,0.15064992901808572,0,left,-0.6758276544345655
1165,f,capitals,6,country,New Zealand,Wellington,Auckland,What is the capital of New Zealand?,The capital of New Zealand is,0.428,1.711,3.997663551,True,critical,html-keyboard-response,71,116304,subject_28,67d993866d1d7516d87e97de,67f5594f1e1942f068f623fb,0.15064992901808572,1,left,-0.8505597031106656
1564,j,capitals,38,state,Texas,Austin,Houston,What is the capital of Texas?,The capital of Texas is,0.989,2.324,2.349848332,False,critical,html-keyboard-response,73,118873,subject_28,67d993866d1d7516d87e97de,67f5594f1e1942f068f623fb,0.15064992901808572,1,right,0.06678355243886032
1686,f,capitals,36,state,Pennsylvania,Harrisburg,Philadelphia,What is the capital of Pennsylvania?,The capital of Pennsylvania is,0.05,1.517,30.34,True,critical,html-keyboard-response,75,121563,subject_28,67d993866d1d7516d87e97de,67f5594f1e1942f068f623fb,0.15064992901808572,1,left,0.3472744726820738
1190,f,capitals,32,state,New York,Albany,New York,What is the capital of New York?,The capital of New York is,0.103,7.937,77.05825243,False,critical,html-keyboard-response,77,123757,subject_28,67d993866d1d7516d87e97de,67f5594f1e1942f068f623fb,0.15064992901808572,0,left,-0.7930820555198432
2708,j,capitals,12,state,Alabama,Montgomery,Birmingham,What is the capital of Alabama?,The capital of Alabama is,0.192,0.194,1.010416667,True,critical,html-keyboard-response,79,127468,subject_28,67d993866d1d7516d87e97de,67f5594f1e1942f068f623fb,0.15064992901808572,0,right,2.696960706194895
1332,j,capitals,14,state,California,Sacramento,Los Angeles,What is the capital of California?,The capital of California is,0.527,3.8,7.210626186,False,critical,html-keyboard-response,81,129804,subject_28,67d993866d1d7516d87e97de,67f5594f1e1942f068f623fb,0.15064992901808572,1,right,-0.46660901720397185
2852,f,capitals,25,state,Minnesota,St. Paul,Minneapolis,What is the capital of Minnesota?,The capital of Minnesota is,0.299,0.421,1.408026756,True,critical,html-keyboard-response,83,133660,subject_28,67d993866d1d7516d87e97de,67f5594f1e1942f068f623fb,0.15064992901808572,1,left,3.028031956318032
1206,f,capitals,13,state,Alaska,Juneau,Anchorage,What is the capital of Alaska?,The capital of Alaska is,0.0311,0.283,9.099678457,False,critical,html-keyboard-response,85,135870,subject_28,67d993866d1d7516d87e97de,67f5594f1e1942f068f623fb,0.15064992901808572,0,left,-0.7562963610617169
1736,j,capitals,21,state,Louisiana,Baton Rouge,New Orleans,What is the capital of Louisiana?,The capital of Louisiana is,0.215,0.351,1.63255814,False,critical,html-keyboard-response,87,138609,subject_28,67d993866d1d7516d87e97de,67f5594f1e1942f068f623fb,0.15064992901808572,1,right,0.46222976786371867
1418,j,capitals,19,state,Kansas,Topeka,Wichita,What is the capital of Kansas?,The capital of Kansas is,0.125,0.395,3.16,True,critical,html-keyboard-response,89,141030,subject_28,67d993866d1d7516d87e97de,67f5594f1e1942f068f623fb,0.15064992901808572,0,right,-0.2688859094915427
2337,f,capitals,33,state,North Carolina,Raleigh,Charlotte,What is the capital of North Carolina?,The capital of North Carolina is,0.494,0.935,1.892712551,False,critical,html-keyboard-response,7,375576,subject_24,67d993866d1d7516d87e97de,67dafc88e5fd277b68528422,0.4115900751875853,0,left,-0.26345452982542683
1761,f,capitals,9,country,Switzerland,Bern,Zurich,What is the capital of Switzerland?,The capital of Switzerland is,0.448,1.455,3.247767857,False,critical,html-keyboard-response,9,378342,subject_24,67d993866d1d7516d87e97de,67dafc88e5fd277b68528422,0.4115900751875853,0,left,-0.7628662196496495
2321,j,capitals,14,state,California,Sacramento,Los Angeles,What is the capital of California?,The capital of California is,0.527,3.8,7.210626186,True,critical,html-keyboard-response,11,381667,subject_24,67d993866d1d7516d87e97de,67dafc88e5fd277b68528422,0.4115900751875853,0,right,-0.2773270767649886
2567,j,capitals,29,state,New Hampshire,Concord,Manchester,What is the capital of New Hampshire?,The capital of New Hampshire is,0.0449,0.115,2.561247216,True,critical,html-keyboard-response,13,385238,subject_24,67d993866d1d7516d87e97de,67dafc88e5fd277b68528422,0.4115900751875853,0,right,-0.0640366675692268
2382,j,capitals,8,country,South Africa,Pretoria,Johannesburg,What is the capital of South Africa?,The capital of South Africa is,3.0,6.4,2.133333333,True,critical,html-keyboard-response,15,388622,subject_24,67d993866d1d7516d87e97de,67dafc88e5fd277b68528422,0.4115900751875853,0,right,-0.22443799155790942
2960,j,capitals,15,state,Connecticut,Hartford,Bridgeport,What is the capital of Connecticut?,The capital of Connecticut is,0.119,0.148,1.243697479,True,critical,html-keyboard-response,17,392586,subject_24,67d993866d1d7516d87e97de,67dafc88e5fd277b68528422,0.4115900751875853,0,right,0.27670776663375846
2491,f,capitals,27,state,Nebraska,Lincoln,Omaha,What is the capital of Nebraska?,The capital of Nebraska is,0.297,0.477,1.606060606,False,critical,html-keyboard-response,19,396161,subject_24,67d993866d1d7516d87e97de,67dafc88e5fd277b68528422,0.4115900751875853,0,left,-0.12993126553214507
2928,j,capitals,35,state,Oregon,Salem,Portland,What is the capital of Oregon?,The capital of Oregon is,0.178,0.615,3.45505618,False,critical,html-keyboard-response,21,400092,subject_24,67d993866d1d7516d87e97de,67dafc88e5fd277b68528422,0.4115900751875853,1,right,0.248962672754635
3354,f,capitals,30,state,New Jersey,Trenton,Newark,What is the capital of New Jersey?,The capital of New Jersey is,0.0898,0.306,3.407572383,False,critical,html-keyboard-response,23,404446,subject_24,67d993866d1d7516d87e97de,67dafc88e5fd277b68528422,0.4115900751875853,0,left,0.6183192350204664
2363,j,capitals,13,state,Alaska,Juneau,Anchorage,What is the capital of Alaska?,The capital of Alaska is,0.0311,0.283,9.099678457,False,critical,html-keyboard-response,25,407810,subject_24,67d993866d1d7516d87e97de,67dafc88e5fd277b68528422,0.4115900751875853,1,right,-0.240911641048639
2697,f,capitals,18,state,Illinois,Springfield,Chicago,What is the capital of Illinois?,The capital of Illinois is,0.111,2.612,23.53153153,False,critical,html-keyboard-response,27,411511,subject_24,67d993866d1d7516d87e97de,67dafc88e5fd277b68528422,0.4115900751875853,0,left,0.048677776314712345
2067,j,capitals,24,state,Michigan,Lansing,Detroit,What is the capital of Michigan?,The capital of Michigan is,0.112,0.63,5.625,False,critical,html-keyboard-response,29,414581,subject_24,67d993866d1d7516d87e97de,67dafc88e5fd277b68528422,0.4115900751875853,1,right,-0.4975537594305312
2671,j,capitals,20,state,Kentucky,Frankfort,Louisville,What is the capital of Kentucky?,The capital of Kentucky is,0.0281,0.617,21.95729537,True,critical,html-keyboard-response,31,418254,subject_24,67d993866d1d7516d87e97de,67dafc88e5fd277b68528422,0.4115900751875853,0,right,0.02613488753792452
2782,f,capitals,31,state,New Mexico,Santa Fe,Albuquerque,What is the capital of New Mexico?,The capital of New Mexico is,0.0901,0.557,6.182019978,False,critical,html-keyboard-response,33,422036,subject_24,67d993866d1d7516d87e97de,67dafc88e5fd277b68528422,0.4115900751875853,0,left,0.1223756819311341
2360,f,capitals,39,state,Vermont,Montpelier,Burlington,What is the capital of Vermont?,The capital of Vermont is,0.0079,0.0444,5.620253165,True,critical,html-keyboard-response,35,425399,subject_24,67d993866d1d7516d87e97de,67dafc88e5fd277b68528422,0.4115900751875853,1,left,-0.24351274359980682
2450,j,capitals,16,state,Delaware,Dover,Wilmington,What is the capital of Delaware?,The capital of Delaware is,0.0403,0.0722,1.791563275,False,critical,html-keyboard-response,37,428853,subject_24,67d993866d1d7516d87e97de,67dafc88e5fd277b68528422,0.4115900751875853,1,right,-0.16547966706477202
4088,j,capitals,7,country,Pakistan,Islamabad,Karachi,What is the capital of Pakistan?,The capital of Pakistan is,1.3,18.1,13.92307692,False,critical,html-keyboard-response,39,433943,subject_24,67d993866d1d7516d87e97de,67dafc88e5fd277b68528422,0.4115900751875853,1,right,1.2547223258728613
3562,j,capitals,32,state,New York,Albany,New York,What is the capital of New York?,The capital of New York is,0.103,7.937,77.05825243,True,critical,html-keyboard-response,41,438507,subject_24,67d993866d1d7516d87e97de,67dafc88e5fd277b68528422,0.4115900751875853,0,right,0.798662345234769
2145,f,capitals,17,state,Florida,Tallahassee,Jacksonville,What is the capital of Florida?,The capital of Florida is,0.205,1.008,4.917073171,False,critical,html-keyboard-response,43,441654,subject_24,67d993866d1d7516d87e97de,67dafc88e5fd277b68528422,0.4115900751875853,0,left,-0.4299250931001677
1801,j,capitals,36,state,Pennsylvania,Harrisburg,Philadelphia,What is the capital of Pennsylvania?,The capital of Pennsylvania is,0.05,1.517,30.34,True,critical,html-keyboard-response,45,444457,subject_24,67d993866d1d7516d87e97de,67dafc88e5fd277b68528422,0.4115900751875853,0,right,-0.7281848523007451
2464,f,capitals,28,state,Nevada,Carson City,Las Vegas,What is the capital of Nevada?,The capital of Nevada is,0.0576,0.67,11.63194444,True,critical,html-keyboard-response,47,447970,subject_24,67d993866d1d7516d87e97de,67dafc88e5fd277b68528422,0.4115900751875853,1,left,-0.1533411884926555
1846,j,capitals,10,country,Turkey,Ankara,Istanbul,What is the capital of Turkey?,The capital of Turkey is,5.55,16.24,2.926126126,True,critical,html-keyboard-response,49,450819,subject_24,67d993866d1d7516d87e97de,67dafc88e5fd277b68528422,0.4115900751875853,0,right,-0.6891683140332278
3598,f,capitals,4,country,India,New Delhi,Mumbai,What is the capital of India?,The capital of India is,0.206,22.1,107.2815534,False,critical,html-keyboard-response,51,455420,subject_24,67d993866d1d7516d87e97de,67dafc88e5fd277b68528422,0.4115900751875853,0,left,0.8298755758487829
7092,j,capitals,6,country,New Zealand,Wellington,Auckland,What is the capital of New Zealand?,The capital of New Zealand is,0.428,1.711,3.997663551,True,critical,html-keyboard-response,53,463512,subject_24,67d993866d1d7516d87e97de,67dafc88e5fd277b68528422,0.4115900751875853,0,right,3.8592930137755777
2173,f,capitals,22,state,Maine,Augusta,Portland,What is the capital of Maine?,The capital of Maine is,0.0192,0.0695,3.619791667,False,critical,html-keyboard-response,55,466688,subject_24,67d993866d1d7516d87e97de,67dafc88e5fd277b68528422,0.4115900751875853,0,left,-0.4056481359559347
1988,f,capitals,19,state,Kansas,Topeka,Wichita,What is the capital of Kansas?,The capital of Kansas is,0.125,0.395,3.16,False,critical,html-keyboard-response,57,469803,subject_24,67d993866d1d7516d87e97de,67dafc88e5fd277b68528422,0.4115900751875853,0,left,-0.5660494599446173
1803,f,capitals,26,state,Montana,Helena,Billings,What is the capital of Montana?,The capital of Montana is,0.0359,0.123,3.426183844,True,critical,html-keyboard-response,59,472607,subject_24,67d993866d1d7516d87e97de,67dafc88e5fd277b68528422,0.4115900751875853,1,left,-0.7264507839332999
1833,j,capitals,1,country,Australia,Canberra,Sydney,What is the capital of Australia?,The capital of Australia is,0.483,5.249,10.86749482,True,critical,html-keyboard-response,61,475441,subject_24,67d993866d1d7516d87e97de,67dafc88e5fd277b68528422,0.4115900751875853,0,right,-0.7004397584216216
2252,j,capitals,37,state,South Dakota,Pierre,Sioux Falls,What is the capital of South Dakota?,The capital of South Dakota is,0.0138,0.215,15.57971014,True,critical,html-keyboard-response,63,478695,subject_24,67d993866d1d7516d87e97de,67dafc88e5fd277b68528422,0.4115900751875853,0,right,-0.3371524354418486
3948,f,capitals,42,state,Wisconsin,Madison,Milwaukee,What is the capital of Wisconsin?,The capital of Wisconsin is,0.284,0.551,1.940140845,False,critical,html-keyboard-response,65,483646,subject_24,67d993866d1d7516d87e97de,67dafc88e5fd277b68528422,0.4115900751875853,0,left,1.1333375401516959
1710,j,capitals,21,state,Louisiana,Baton Rouge,New Orleans,What is the capital of Louisiana?,The capital of Louisiana is,0.215,0.351,1.63255814,True,critical,html-keyboard-response,67,486359,subject_24,67d993866d1d7516d87e97de,67dafc88e5fd277b68528422,0.4115900751875853,0,right,-0.8070849630195025
1469,f,capitals,3,country,Canada,Ottawa,Toronto,What is the capital of Canada?,The capital of Canada is,1.465,6.491,4.430716724,False,critical,html-keyboard-response,69,488830,subject_24,67d993866d1d7516d87e97de,67dafc88e5fd277b68528422,0.4115900751875853,0,left,-1.0160402012966512
1731,f,capitals,2,country,Brazil,Brasilia,Rio de Janeiro,What is the capital of Brazil?,The capital of Brazil is,4.99,13.923,2.790180361,False,critical,html-keyboard-response,71,491564,subject_24,67d993866d1d7516d87e97de,67dafc88e5fd277b68528422,0.4115900751875853,0,left,-0.7888772451613277
2907,j,capitals,5,country,Morrocco,Rabat,Marrakesh,What is the capital of Morrocco?,The capital of Morrocco is,2.02,1.085,0.5371287129,False,critical,html-keyboard-response,73,495472,subject_24,67d993866d1d7516d87e97de,67dafc88e5fd277b68528422,0.4115900751875853,1,right,0.2307549548964602
6449,f,capitals,11,country,United Arab Emirates,Abu Dhabi,Dubai,What is the capital of the United Arab Emirates?,The capital of the United Arab Emirates is,1.6,3.1,1.9375,False,critical,html-keyboard-response,75,502924,subject_24,67d993866d1d7516d87e97de,67dafc88e5fd277b68528422,0.4115900751875853,0,left,3.3017900336419403
2916,f,capitals,23,state,Maryland,Annapolis,Baltimore,What is the capital of Maryland?,The capital of Maryland is,0.0403,0.553,13.72208437,True,critical,html-keyboard-response,77,506841,subject_24,67d993866d1d7516d87e97de,67dafc88e5fd277b68528422,0.4115900751875853,1,left,0.23855826254996368
1470,f,capitals,38,state,Texas,Austin,Houston,What is the capital of Texas?,The capital of Texas is,0.989,2.324,2.349848332,True,critical,html-keyboard-response,79,509393,subject_24,67d993866d1d7516d87e97de,67dafc88e5fd277b68528422,0.4115900751875853,1,left,-1.0151731671129287
3132,j,capitals,25,state,Minnesota,St. Paul,Minneapolis,What is the capital of Minnesota?,The capital of Minnesota is,0.299,0.421,1.408026756,True,critical,html-keyboard-response,81,513528,subject_24,67d993866d1d7516d87e97de,67dafc88e5fd277b68528422,0.4115900751875853,0,right,0.4258376462340472
1900,j,capitals,40,state,Virginia,Richmond,Virginia Beach,What is the capital of Virginia?,The capital of Virginia is,0.231,0.45,1.948051948,True,critical,html-keyboard-response,83,516430,subject_24,67d993866d1d7516d87e97de,67dafc88e5fd277b68528422,0.4115900751875853,0,right,-0.6423484681122069
1394,f,capitals,34,state,North Dakota,Bismarck,Fargo,What is the capital of North Dakota?,The capital of North Dakota is,0.076,0.138,1.815789474,False,critical,html-keyboard-response,85,518826,subject_24,67d993866d1d7516d87e97de,67dafc88e5fd277b68528422,0.4115900751875853,0,left,-1.081067765075847
1505,j,capitals,41,state,Washington,Olympia,Seattle,What is the capital of Washington?,The capital of Washington is,0.0558,0.765,13.70967742,True,critical,html-keyboard-response,87,521332,subject_24,67d993866d1d7516d87e97de,67dafc88e5fd277b68528422,0.4115900751875853,0,right,-0.9848269706826374
3249,j,capitals,12,state,Alabama,Montgomery,Birmingham,What is the capital of Alabama?,The capital of Alabama is,0.192,0.194,1.010416667,True,critical,html-keyboard-response,89,525584,subject_24,67d993866d1d7516d87e97de,67dafc88e5fd277b68528422,0.4115900751875853,0,right,0.5272806457295924
2133,f,capitals,40,state,Virginia,Richmond,Virginia Beach,What is the capital of Virginia?,The capital of Virginia is,0.231,0.45,1.948051948,True,critical,html-keyboard-response,11,183349,subject_7,67d993866d1d7516d87e97de,67db016e566ddc888e6ce5d4,0.7259458047283218,1,left,-1.3202056006589953
1765,j,capitals,15,state,Connecticut,Hartford,Bridgeport,What is the capital of Connecticut?,The capital of Connecticut is,0.119,0.148,1.243697479,False,critical,html-keyboard-response,13,186133,subject_7,67d993866d1d7516d87e97de,67db016e566ddc888e6ce5d4,0.7259458047283218,1,right,-1.4553369086137602
2735,f,capitals,1,country,Australia,Canberra,Sydney,What is the capital of Australia?,The capital of Australia is,0.483,5.249,10.86749482,False,critical,html-keyboard-response,15,189877,subject_7,67d993866d1d7516d87e97de,67db016e566ddc888e6ce5d4,0.7259458047283218,0,left,-1.0991484066677764
2603,j,capitals,19,state,Kansas,Topeka,Wichita,What is the capital of Kansas?,The capital of Kansas is,0.125,0.395,3.16,True,critical,html-keyboard-response,17,193494,subject_7,67d993866d1d7516d87e97de,67db016e566ddc888e6ce5d4,0.7259458047283218,0,right,-1.1476194193037246
3117,f,capitals,6,country,New Zealand,Wellington,Auckland,What is the capital of New Zealand?,The capital of New Zealand is,0.428,1.711,3.997663551,True,critical,html-keyboard-response,19,197613,subject_7,67d993866d1d7516d87e97de,67db016e566ddc888e6ce5d4,0.7259458047283218,1,left,-0.9588762337364714
1689,j,capitals,10,country,Turkey,Ankara,Istanbul,What is the capital of Turkey?,The capital of Turkey is,5.55,16.24,2.926126126,True,critical,html-keyboard-response,21,200317,subject_7,67d993866d1d7516d87e97de,67db016e566ddc888e6ce5d4,0.7259458047283218,0,right,-1.4832444613435487
2778,f,capitals,36,state,Pennsylvania,Harrisburg,Philadelphia,What is the capital of Pennsylvania?,The capital of Pennsylvania is,0.05,1.517,30.34,True,critical,html-keyboard-response,23,204102,subject_7,67d993866d1d7516d87e97de,67db016e566ddc888e6ce5d4,0.7259458047283218,1,left,-1.083358607096975
8411,j,capitals,20,state,Kentucky,Frankfort,Louisville,What is the capital of Kentucky?,The capital of Kentucky is,0.0281,0.617,21.95729537,False,critical,html-keyboard-response,25,213517,subject_7,67d993866d1d7516d87e97de,67db016e566ddc888e6ce5d4,0.7259458047283218,1,right,0.9851051366780015
7586,j,capitals,35,state,Oregon,Salem,Portland,What is the capital of Oregon?,The capital of Oregon is,0.178,0.615,3.45505618,False,critical,html-keyboard-response,27,222109,subject_7,67d993866d1d7516d87e97de,67db016e566ddc888e6ce5d4,0.7259458047283218,1,right,0.6821613077033245
1856,j,capitals,24,state,Michigan,Lansing,Detroit,What is the capital of Michigan?,The capital of Michigan is,0.112,0.63,5.625,False,critical,html-keyboard-response,29,224973,subject_7,67d993866d1d7516d87e97de,67db016e566ddc888e6ce5d4,0.7259458047283218,1,right,-1.4219212862662505
8739,j,capitals,38,state,Texas,Austin,Houston,What is the capital of Texas?,The capital of Texas is,0.989,2.324,2.349848332,False,critical,html-keyboard-response,31,234725,subject_7,67d993866d1d7516d87e97de,67db016e566ddc888e6ce5d4,0.7259458047283218,1,right,1.1055482589855095
7040,j,capitals,28,state,Nevada,Carson City,Las Vegas,What is the capital of Nevada?,The capital of Nevada is,0.0576,0.67,11.63194444,False,critical,html-keyboard-response,33,242781,subject_7,67d993866d1d7516d87e97de,67db016e566ddc888e6ce5d4,0.7259458047283218,1,right,0.48166757361826557
5771,j,capitals,21,state,Louisiana,Baton Rouge,New Orleans,What is the capital of Louisiana?,The capital of Louisiana is,0.215,0.351,1.63255814,False,critical,html-keyboard-response,35,249566,subject_7,67d993866d1d7516d87e97de,67db016e566ddc888e6ce5d4,0.7259458047283218,1,right,0.01568488395903508
6098,j,capitals,12,state,Alabama,Montgomery,Birmingham,What is the capital of Alabama?,The capital of Alabama is,0.192,0.194,1.010416667,False,critical,html-keyboard-response,37,256677,subject_7,67d993866d1d7516d87e97de,67db016e566ddc888e6ce5d4,0.7259458047283218,1,right,0.1357608016253616
5610,j,capitals,23,state,Maryland,Annapolis,Baltimore,What is the capital of Maryland?,The capital of Maryland is,0.0403,0.553,13.72208437,False,critical,html-keyboard-response,39,263294,subject_7,67d993866d1d7516d87e97de,67db016e566ddc888e6ce5d4,0.7259458047283218,1,right,-0.04343506327117461
6601,f,capitals,39,state,Vermont,Montpelier,Burlington,What is the capital of Vermont?,The capital of Vermont is,0.0079,0.0444,5.620253165,True,critical,html-keyboard-response,41,270910,subject_7,67d993866d1d7516d87e97de,67db016e566ddc888e6ce5d4,0.7259458047283218,1,left,0.32046473613961923
5892,f,capitals,18,state,Illinois,Springfield,Chicago,What is the capital of Illinois?,The capital of Illinois is,0.111,2.612,23.53153153,True,critical,html-keyboard-response,43,277806,subject_7,67d993866d1d7516d87e97de,67db016e566ddc888e6ce5d4,0.7259458047283218,1,left,0.06011664554198771
14459,f,capitals,8,country,South Africa,Pretoria,Johannesburg,What is the capital of South Africa?,The capital of South Africa is,3.0,6.4,2.133333333,True,critical,html-keyboard-response,45,293270,subject_7,67d993866d1d7516d87e97de,67db016e566ddc888e6ce5d4,0.7259458047283218,1,left,3.2059588065432703
6896,j,capitals,2,country,Brazil,Brasilia,Rio de Janeiro,What is the capital of Brazil?,The capital of Brazil is,4.99,13.923,2.790180361,False,critical,html-keyboard-response,47,301173,subject_7,67d993866d1d7516d87e97de,67db016e566ddc888e6ce5d4,0.7259458047283218,1,right,0.4287901052881401
5605,f,capitals,9,country,Switzerland,Bern,Zurich,What is the capital of Switzerland?,The capital of Switzerland is,0.448,1.455,3.247767857,True,critical,html-keyboard-response,49,307790,subject_7,67d993866d1d7516d87e97de,67db016e566ddc888e6ce5d4,0.7259458047283218,1,left,-0.045271086477081744
6440,f,capitals,25,state,Minnesota,St. Paul,Minneapolis,What is the capital of Minnesota?,The capital of Minnesota is,0.299,0.421,1.408026756,True,critical,html-keyboard-response,51,315245,subject_7,67d993866d1d7516d87e97de,67db016e566ddc888e6ce5d4,0.7259458047283218,1,left,0.26134478890940954
5315,j,capitals,33,state,North Carolina,Raleigh,Charlotte,What is the capital of North Carolina?,The capital of North Carolina is,0.494,0.935,1.892712551,False,critical,html-keyboard-response,53,321566,subject_7,67d993866d1d7516d87e97de,67db016e566ddc888e6ce5d4,0.7259458047283218,1,right,-0.15176043241969547
5884,j,capitals,7,country,Pakistan,Islamabad,Karachi,What is the capital of Pakistan?,The capital of Pakistan is,1.3,18.1,13.92307692,False,critical,html-keyboard-response,55,328462,subject_7,67d993866d1d7516d87e97de,67db016e566ddc888e6ce5d4,0.7259458047283218,1,right,0.0571790084125363
5262,j,capitals,13,state,Alaska,Juneau,Anchorage,What is the capital of Alaska?,The capital of Alaska is,0.0311,0.283,9.099678457,False,critical,html-keyboard-response,57,334742,subject_7,67d993866d1d7516d87e97de,67db016e566ddc888e6ce5d4,0.7259458047283218,1,right,-0.1712222784023111
4297,j,capitals,17,state,Florida,Tallahassee,Jacksonville,What is the capital of Florida?,The capital of Florida is,0.205,1.008,4.917073171,False,critical,html-keyboard-response,59,340046,subject_7,67d993866d1d7516d87e97de,67db016e566ddc888e6ce5d4,0.7259458047283218,1,right,-0.5255747571423879
8304,f,capitals,5,country,Morrocco,Rabat,Marrakesh,What is the capital of Morrocco?,The capital of Morrocco is,2.02,1.085,0.5371287129,True,critical,html-keyboard-response,61,349366,subject_7,67d993866d1d7516d87e97de,67db016e566ddc888e6ce5d4,0.7259458047283218,1,left,0.9458142400715889
5042,f,capitals,16,state,Delaware,Dover,Wilmington,What is the capital of Delaware?,The capital of Delaware is,0.0403,0.0722,1.791563275,True,critical,html-keyboard-response,63,355414,subject_7,67d993866d1d7516d87e97de,67db016e566ddc888e6ce5d4,0.7259458047283218,1,left,-0.25200729946222494
5545,j,capitals,14,state,California,Sacramento,Los Angeles,What is the capital of California?,The capital of California is,0.527,3.8,7.210626186,False,critical,html-keyboard-response,65,361966,subject_7,67d993866d1d7516d87e97de,67db016e566ddc888e6ce5d4,0.7259458047283218,1,right,-0.06730336494796735
4882,f,capitals,26,state,Montana,Helena,Billings,What is the capital of Montana?,The capital of Montana is,0.0359,0.123,3.426183844,True,critical,html-keyboard-response,67,367854,subject_7,67d993866d1d7516d87e97de,67db016e566ddc888e6ce5d4,0.7259458047283218,1,left,-0.31076004205125324
4958,f,capitals,41,state,Washington,Olympia,Seattle,What is the capital of Washington?,The capital of Washington is,0.0558,0.765,13.70967742,True,critical,html-keyboard-response,69,373822,subject_7,67d993866d1d7516d87e97de,67db016e566ddc888e6ce5d4,0.7259458047283218,1,left,-0.2828524893214648
5744,j,capitals,29,state,New Hampshire,Concord,Manchester,What is the capital of New Hampshire?,The capital of New Hampshire is,0.0449,0.115,2.561247216,False,critical,html-keyboard-response,71,380582,subject_7,67d993866d1d7516d87e97de,67db016e566ddc888e6ce5d4,0.7259458047283218,1,right,0.005770358647136562
5117,j,capitals,42,state,Wisconsin,Madison,Milwaukee,What is the capital of Wisconsin?,The capital of Wisconsin is,0.284,0.551,1.940140845,False,critical,html-keyboard-response,73,386710,subject_7,67d993866d1d7516d87e97de,67db016e566ddc888e6ce5d4,0.7259458047283218,1,right,-0.22446695137361797
4991,j,capitals,27,state,Nebraska,Lincoln,Omaha,What is the capital of Nebraska?,The capital of Nebraska is,0.297,0.477,1.606060606,False,critical,html-keyboard-response,75,392710,subject_7,67d993866d1d7516d87e97de,67db016e566ddc888e6ce5d4,0.7259458047283218,1,right,-0.27073473616247773
15193,f,capitals,3,country,Canada,Ottawa,Toronto,What is the capital of Canada?,The capital of Canada is,1.465,6.491,4.430716724,True,critical,html-keyboard-response,77,408910,subject_7,67d993866d1d7516d87e97de,67db016e566ddc888e6ce5d4,0.7259458047283218,1,left,3.4754870131704374
5876,f,capitals,37,state,South Dakota,Pierre,Sioux Falls,What is the capital of South Dakota?,The capital of South Dakota is,0.0138,0.215,15.57971014,True,critical,html-keyboard-response,79,415790,subject_7,67d993866d1d7516d87e97de,67db016e566ddc888e6ce5d4,0.7259458047283218,1,left,0.054241371283084885
5577,f,capitals,31,state,New Mexico,Santa Fe,Albuquerque,What is the capital of New Mexico?,The capital of New Mexico is,0.0901,0.557,6.182019978,True,critical,html-keyboard-response,81,422374,subject_7,67d993866d1d7516d87e97de,67db016e566ddc888e6ce5d4,0.7259458047283218,1,left,-0.055552816430161696
5112,f,capitals,32,state,New York,Albany,New York,What is the capital of New York?,The capital of New York is,0.103,7.937,77.05825243,True,critical,html-keyboard-response,83,428492,subject_7,67d993866d1d7516d87e97de,67db016e566ddc888e6ce5d4,0.7259458047283218,1,left,-0.2263029745795251
5233,j,capitals,4,country,India,New Delhi,Mumbai,What is the capital of India?,The capital of India is,0.206,22.1,107.2815534,False,critical,html-keyboard-response,85,434734,subject_7,67d993866d1d7516d87e97de,67db016e566ddc888e6ce5d4,0.7259458047283218,1,right,-0.18187121299657247
5877,f,capitals,34,state,North Dakota,Bismarck,Fargo,What is the capital of North Dakota?,The capital of North Dakota is,0.076,0.138,1.815789474,True,critical,html-keyboard-response,87,441621,subject_7,67d993866d1d7516d87e97de,67db016e566ddc888e6ce5d4,0.7259458047283218,1,left,0.05460857592426631
8239,f,capitals,11,country,United Arab Emirates,Abu Dhabi,Dubai,What is the capital of the United Arab Emirates?,The capital of the United Arab Emirates is,1.6,3.1,1.9375,True,critical,html-keyboard-response,89,450869,subject_7,67d993866d1d7516d87e97de,67db016e566ddc888e6ce5d4,0.7259458047283218,1,left,0.9219459383947961
5566,f,capitals,22,state,Maine,Augusta,Portland,What is the capital of Maine?,The capital of Maine is,0.0192,0.0695,3.619791667,True,critical,html-keyboard-response,91,457445,subject_7,67d993866d1d7516d87e97de,67db016e566ddc888e6ce5d4,0.7259458047283218,1,left,-0.05959206748315739
4750,j,capitals,30,state,New Jersey,Trenton,Newark,What is the capital of New Jersey?,The capital of New Jersey is,0.0898,0.306,3.407572383,False,critical,html-keyboard-response,93,463197,subject_7,67d993866d1d7516d87e97de,67db016e566ddc888e6ce5d4,0.7259458047283218,1,right,-0.35923105468720157
4692,f,capitals,5,country,Morrocco,Rabat,Marrakesh,What is the capital of Morrocco?,The capital of Morrocco is,2.02,1.085,0.5371287129,True,critical,html-keyboard-response,7,47508,subject_31,67d993866d1d7516d87e97de,67daff042e85e568ce9b462c,0.13098223144543097,1,left,-1.0347425661349694
3481,f,capitals,36,state,Pennsylvania,Harrisburg,Philadelphia,What is the capital of Pennsylvania?,The capital of Pennsylvania is,0.05,1.517,30.34,True,critical,html-keyboard-response,9,51998,subject_31,67d993866d1d7516d87e97de,67daff042e85e568ce9b462c,0.13098223144543097,1,left,-1.291517365359981
3980,j,capitals,7,country,Pakistan,Islamabad,Karachi,What is the capital of Pakistan?,The capital of Pakistan is,1.3,18.1,13.92307692,False,critical,html-keyboard-response,11,56996,subject_31,67d993866d1d7516d87e97de,67daff042e85e568ce9b462c,0.13098223144543097,1,right,-1.1857117296760167
3212,j,capitals,22,state,Maine,Augusta,Portland,What is the capital of Maine?,The capital of Maine is,0.0192,0.0695,3.619791667,True,critical,html-keyboard-response,13,61212,subject_31,67d993866d1d7516d87e97de,67daff042e85e568ce9b462c,0.13098223144543097,0,right,-1.3485548723719778
