subject_id,Session,trial,rt,object_response,category,condition,item_id,response_correct,rt_zscore,output_entropy,output_rank_correct,output_logprob_correct,auc_entropy,layer_biggest_change_entropy,auc_rank_correct,layer_biggest_change_rank_correct,auc_logprob_correct,layer_biggest_change_logprob_correct
subject-02,1,1,1.12876987457275,bottle,bottle,cr,cr_bottle_40_n03983396_2053.png,True,1.8905788900109297,0.0698782503604888,1.0,-0.00831859572628178,25.11572004109621,9,4.665018315018314,7,26.6585691740341,0
subject-02,1,2,1.07644009590149,cat,clock,bw,bw_clock_40_n04548280_7384.png,False,1.6230943386726888,1.354323148727417,1.0,-0.38434458633241436,29.902945280075073,10,4.5317821067821065,7,31.74482833076239,9
subject-02,1,3,0.580382108688354,airplane,airplane,cr,cr_airplane_40_n02690373_1732.png,True,-0.9125144775046652,0.0220701973885297,1.0,-0.0022833766537524226,24.11568977497518,9,5.805866355866356,6,23.36198069418807,3
subject-02,1,4,0.682165861129761,elephant,elephant,cr,cr_elephant_40_n02504013_3485.png,True,-0.3922451003619551,0.0245949942618608,1.0,-0.002551888304971036,23.498931534588337,9,7.142857142857142,1,19.192288371452193,8
subject-02,1,5,0.763950109481812,boat,boat,bw,bw_boat_40_n04273569_517.png,True,0.02579647238022333,0.0999387055635452,1.0,-0.01261546916143276,24.737259283661842,9,7.670634920634921,4,19.910221531835745,9
subject-02,1,6,0.690128087997437,car,car,bw,bw_car_40_n02814533_51154.png,True,-0.3515460426660873,0.2948429882526397,1.0,-0.07654465111195592,24.823677480220795,9,5.092261904761905,6,29.631149038435723,5
subject-02,1,7,0.785551071166992,truck,truck,bw,bw_truck_40_n03417042_2794.png,True,0.1362101544470308,0.0617676191031932,1.0,-0.007324633248137922,25.279753889888525,9,5.926190476190476,7,22.050537510450074,9
subject-02,1,8,0.679475069046021,elephant,elephant,bw,bw_elephant_40_n02504458_7133.png,True,-0.4059991297413872,0.0505290441215038,1.0,-0.00571923650604695,24.03315332904458,9,7.75,1,18.735386198895775,0
subject-02,1,9,0.651214122772217,boat,boat,cr,cr_boat_40_n03662601_8216.png,True,-0.5504554360049994,0.0113183604553341,1.0,-0.0010924940419924736,22.879162878147326,9,6.694444444444445,5,19.439408830094916,4
subject-02,1,10,0.986922979354858,bottle,knife,cr,cr_knife_40_n03041632_94620.png,False,1.1655260789827355,0.0061196107417345,1.0,-0.0005681936561563858,24.950989570468664,9,5.740151515151515,6,24.051368574288333,5
subject-02,1,11,0.886938095092773,elephant,elephant,bw,bw_elephant_40_n02504013_1560.png,True,0.6544516470524887,0.0537577159702777,1.0,-0.0062308909872856345,25.53131041303277,9,5.65,1,23.636152740107764,9
subject-02,1,12,0.970747947692871,chair,chair,bw,bw_chair_40_n03376595_2924.png,True,1.0828471302684994,0.0492772236466407,1.0,-0.005713961226683429,25.74704620614648,9,3.8816239316239316,8,28.258725839782837,9
subject-02,1,13,0.566282987594604,bear,bear,cr,cr_bear_40_n02134418_3846.png,True,-0.9845823741360813,0.0326035432517528,1.0,-0.0035012790952220515,23.832693934440613,9,9.083333333333332,4,16.10624008995535,9
subject-02,1,14,0.928205966949463,chair,chair,bw,bw_chair_40_n03376595_10266.png,True,0.8653930740670311,0.0417863428592681,1.0,-0.004641080396477989,25.469292283058167,9,4.207875457875458,8,26.604394808336888,6
subject-02,1,15,0.564054012298584,boat,boat,bw,bw_boat_40_n04273569_12917.png,True,-0.9959758191713723,0.1027640849351883,1.0,-0.013240041954094967,25.91894169151783,9,5.87063492063492,7,21.44280301630954,9
subject-02,1,16,0.667882919311523,boat,boat,bw,bw_boat_40_n02951358_5952.png,True,-0.46525259974470745,0.061657965183258,1.0,-0.007273598145162436,25.819454580545425,9,5.910714285714286,7,23.008510276265156,9
subject-02,1,17,0.609638929367065,elephant,elephant,bw,bw_elephant_40_n02504013_22388.png,True,-0.7629677423275425,0.0250309612601995,1.0,-0.002613858175383415,24.812229303643107,9,5.825,2,22.66563992018483,9
subject-02,1,18,0.82570481300354,oven,oven,cr,cr_oven_40_n04111531_2342.png,True,0.34145668696484177,0.0076696937903761,1.0,-0.0007023296865743319,21.694491712609306,8,5.298748473748473,6,22.195939900248337,6
subject-02,1,19,0.775241136550903,keyboard,keyboard,bw,bw_keyboard_40_n03085013_6561.png,True,0.0835107487714295,0.1510401368141174,1.0,-0.021092165649797354,25.97944810986519,9,4.9968975468975465,6,25.942445655858865,9
subject-02,1,20,0.47902512550354,boat,boat,cr,cr_boat_40_n02951358_30622.png,True,-1.430602416353095,0.069084882736206,1.0,-0.008493329074291322,23.725097903981805,9,4.994047619047619,8,21.673962151205252,9
subject-02,1,21,0.912889003753662,clock,clock,bw,bw_clock_40_n03196217_5888.png,True,0.7871001568729571,0.0818269774317741,1.0,-0.00999331209014919,25.23744498938322,9,4.471861471861471,7,29.1520810648218,9
subject-02,1,22,0.644771099090576,truck,truck,cr,cr_truck_40_n03417042_7005.png,True,-0.5833890608454946,0.1923276335000991,1.0,-0.02872962051780292,25.76245965063572,9,6.876190476190476,5,21.812568635888923,9
subject-02,1,23,0.621150016784668,clock,clock,bw,bw_clock_40_n04548280_17198.png,True,-0.7041286237320755,0.0856923162937164,1.0,-0.01059034558499721,25.20637235045433,9,4.645670995670995,6,28.530268616265094,9
subject-02,1,24,0.680738925933838,keyboard,keyboard,bw,bw_keyboard_40_n04505470_361.png,True,-0.399538903820746,0.0514636784791946,1.0,-0.00587391047491237,24.338391648605466,9,5.124675324675325,6,25.014850124231394,6
subject-02,1,25,0.766654014587402,airplane,airplane,bw,bw_airplane_40_n02690373_7748.png,True,0.03961752919327553,0.0168951861560344,1.0,-0.0016876386620597508,23.742748875170946,9,7.699999999999999,3,19.71127558135277,3
subject-02,1,26,0.618085145950317,car,car,bw,bw_car_40_n02814533_93487.png,True,-0.719794762990682,0.0519419461488723,1.0,-0.0071739971344810536,25.257970795035362,9,4.0879329004329,7,31.471507018979644,8
subject-02,1,27,0.699754953384399,elephant,dog,bw,bw_dog_40_n02093256_3792.png,False,-0.3023381569419421,0.9339655637741088,1.0,-0.20312519133181633,28.631718397140503,10,2.611976911976912,9,31.22877655163775,9
subject-02,1,28,0.699753999710083,bird,bird,bw,bw_bird_40_n01843383_5962.png,True,-0.30234303166438514,0.2821587324142456,1.0,-0.04201867497066546,26.44815021753311,9,3.124542124542124,8,34.2321508739627,9
subject-02,1,29,0.825814962387085,bear,bear,cr,cr_bear_40_n02133161_6946.png,True,0.3420197174072747,0.1000023633241653,1.0,-0.013365559078165822,25.778294071555138,9,8.916666666666666,8,18.982968338541877,9
subject-02,1,30,1.02158498764038,airplane,airplane,cr,cr_airplane_40_n02690373_2075.png,True,1.3427015222992436,0.0300845131278038,1.0,-0.0032280874199602,25.065857514739037,9,5.189260739260739,6,26.093829225789545,9
subject-02,1,31,0.592957019805908,bottle,bottle,cr,cr_bottle_40_n04560804_1703.png,True,-0.8482376060214596,0.15135557949543,1.0,-0.020769640045733062,25.88014505803585,9,5.529304029304029,6,23.618780127901143,9
subject-02,1,32,0.742815017700195,bottle,bottle,bw,bw_bottle_40_n03983396_16300.png,True,-0.08223590777205915,0.051745381206274,1.0,-0.006509703850954662,24.418212920427322,9,4.70946275946276,7,23.803365888771843,0
subject-02,1,33,0.674723148345947,keyboard,keyboard,bw,bw_keyboard_40_n04505470_3666.png,True,-0.43028865300574315,0.0563798323273658,1.0,-0.006554160333120551,24.648547197692096,9,5.933838383838383,5,23.70954325957031,6
subject-02,1,34,0.79666805267334,knife,knife,cr,cr_knife_40_n03041632_11475.png,True,0.19303479399197415,0.0249132961034774,1.0,-0.0027234054407902298,27.804580435156822,10,2.9244810744810743,9,30.26094559348267,9
subject-02,1,35,0.706260919570923,cat,cat,cr,cr_cat_40_n02125311_4261.png,True,-0.2690828004200561,0.0557522922754287,1.0,-0.006425655902540613,24.747575040906668,9,3.889957264957265,8,28.2023967266099,9
subject-02,1,36,0.794286966323853,knife,knife,cr,cr_knife_40_n03041632_51256.png,True,0.18086383072665604,0.0151688270270824,1.0,-0.0014909886721986808,24.223715448752046,9,6.027777777777778,6,21.67687944725829,5
subject-02,1,37,0.665918111801147,clock,clock,bw,bw_clock_40_n02708093_3079.png,True,-0.47529574666265084,0.0374194309115409,1.0,-0.004194401184913713,23.424192991107702,9,5.013095238095238,6,26.94160728238224,6
subject-02,1,38,1.265780210495,keyboard,keyboard,cr,cr_keyboard_40_n04505470_4356.png,True,2.590909546157814,0.092905156314373,1.0,-0.011526117852326701,26.208264462649822,9,4.942074592074592,6,27.067494498764077,9
subject-02,1,39,0.919620037078857,bicycle,bicycle,bw,bw_bicycle_40_n02835271_5602.png,True,0.821505947891931,0.0409654378890991,1.0,-0.004544196147152332,25.01376186311245,9,9.083333333333332,2,18.259747463788415,8
subject-02,1,40,0.837382793426514,chair,chair,bw,bw_chair_40_n04429376_15334.png,True,0.4011488819882369,0.042048942297697,1.0,-0.004837871740018762,25.60916919633746,9,4.042735042735043,8,27.228880154158862,9
subject-02,1,41,0.479510068893433,boat,boat,cr,cr_boat_40_n04273569_13641.png,True,-1.4281236199896543,0.0855192989110946,1.0,-0.01054697427786908,23.700595209375024,9,5.017857142857142,8,21.757606088518706,9
subject-02,1,42,0.792934894561768,truck,truck,bw,bw_truck_40_n04467665_9459.png,True,0.1739526929798223,0.0800543278455734,1.0,-0.009702452150943149,24.73583247512579,9,5.076190476190476,7,22.277954040176652,8
subject-02,1,43,0.574784994125366,keyboard,keyboard,bw,bw_keyboard_40_n04505470_5060.png,True,-0.9411242235361699,0.0154088698327541,1.0,-0.0015167766316586835,24.31599516933784,9,5.8814935064935066,5,22.631914607984445,5
subject-02,1,44,0.682523012161255,boat,boat,bw,bw_boat_40_n02951358_863.png,True,-0.39041951680618825,0.0687558278441429,1.0,-0.008304231322452334,26.17794468253851,9,3.8527777777777774,9,25.187899522569786,9
subject-02,1,45,0.554410934448242,boat,boat,cr,cr_boat_40_n04273569_15892.png,True,-1.0452665751770935,0.0383795052766799,1.0,-0.004217625262728825,23.412968238350004,9,7.458333333333333,4,18.72657573971361,0
subject-02,1,46,0.670228958129883,oven,oven,bw,bw_oven_40_n04111531_13006.png,True,-0.4532607825292493,0.0191338807344436,1.0,-0.002223219376805095,26.745850935578346,9,3.192074592074592,8,32.56049462462938,9
subject-02,1,47,0.888046979904175,car,car,cr,cr_car_40_n04285008_3453.png,True,0.6601197305757727,0.0643786266446113,1.0,-0.008129470918940942,24.45430652052164,9,3.430790043290043,8,33.486170848552376,9
subject-02,1,48,0.903836011886597,dog,dog,bw,bw_dog_40_n02111129_797.png,True,0.740825635380273,0.6304880380630493,1.0,-0.11682587076076795,25.966941833496094,9,4.20515873015873,8,26.380960180253357,9
subject-02,1,49,0.696227073669434,clock,clock,cr,cr_clock_40_n03196217_3267.png,True,-0.32037097394773884,0.5375864505767822,1.0,-0.09735702241811767,27.05950689315796,10,3.8380341880341877,6,31.41993640423893,9
subject-02,1,50,0.861385107040405,bicycle,bicycle,cr,cr_bicycle_40_n02835271_24104.png,True,0.5238371151723274,0.0226649045944213,1.0,-0.002332006928892269,22.303562514251098,8,8.416666666666666,3,15.553250463233404,6
subject-02,1,51,0.80341100692749,dog,dog,bw,bw_dog_40_n02088466_3052.png,True,0.22750151904151436,0.7046475410461426,1.0,-0.13484069054319459,27.524462819099426,9,2.83015873015873,9,29.817264596672448,9
subject-02,1,52,0.887040853500366,truck,chair,bw,bw_chair_40_n02791124_2491.png,False,0.6549768983959717,0.0328262373805046,1.0,-0.0035431495639088486,25.840092033147812,9,4.113095238095238,8,28.115811241723332,9
subject-02,1,53,0.489345073699951,elephant,elephant,cr,cr_elephant_40_n02504013_5035.png,True,-1.377851826091819,0.0270054899156093,1.0,-0.0028370891048211996,24.192096307873726,9,8.5,1,18.705397103112812,0
subject-02,1,54,0.815145015716553,bear,bear,bw,bw_bear_40_n02134084_21413.png,True,0.28748010400857177,0.0578343570232391,1.0,-0.006689461787817482,24.47955312137492,9,9.583333333333332,4,15.299683523708259,9
subject-02,1,55,0.827000141143799,truck,truck,bw,bw_truck_40_n03796401_27288.png,True,0.3480777787261809,0.0260477848351001,1.0,-0.0027492252017661993,25.588989604264498,9,5.40952380952381,7,22.537737536482016,9
subject-02,1,56,1.38036394119263,oven,clock,bw,bw_clock_40_n03196217_4004.png,False,3.176606229280808,0.0258602332323789,1.0,-0.0028080991405768337,26.213488621637225,9,3.771428571428571,8,30.278869024362614,9
subject-02,1,57,0.798173904418945,bicycle,bicycle,cr,cr_bicycle_40_n02835271_4434.png,True,0.20073198073311135,0.0229434743523597,1.0,-0.002362775462029263,24.08188221603632,9,8.416666666666666,3,16.748161288948943,8
subject-02,1,58,0.628126859664917,oven,oven,bw,bw_oven_40_n04111531_12468.png,True,-0.6684663730028221,0.0125825703144073,1.0,-0.0012212100800004161,24.762285839766264,9,4.469184981684982,7,28.22932147171004,6
subject-02,1,59,0.593730926513672,bird,bird,cr,cr_bird_40_n02025239_6030.png,True,-0.8442817687570914,0.3352429270744324,1.0,-0.051963927159187885,25.02281056344509,9,3.7045634920634916,8,31.765826796688913,9
subject-02,1,60,1.48966383934021,car,truck,bw,bw_truck_40_n04467665_53635.png,False,3.7352945126955737,0.0691651478409767,1.0,-0.008259216180017934,25.752064146101475,9,3.692857142857143,9,25.04417546623566,9
subject-02,1,61,0.627465009689331,bottle,bottle,bw,bw_bottle_40_n02823428_3049.png,True,-0.671849430379865,0.0636156424880027,1.0,-0.007490004874406937,25.933881036937237,9,4.410714285714286,7,25.755619617827158,9
subject-02,1,62,0.703039169311523,airplane,airplane,bw,bw_airplane_40_n02690373_6836.png,True,-0.2855508315209167,0.0141611285507678,1.0,-0.0013806810187892604,23.612947121378966,9,7.66068931068931,3,20.241080924126145,3
subject-02,1,63,1.04341602325439,bicycle,knife,cr,cr_knife_40_n03041632_28201.png,False,1.4542912311559666,0.2009675055742263,0.5,-4.119500799652607,24.337266325950623,9,1.8808913308913306,9,41.20747310475032,10
subject-02,1,64,0.716856956481934,clock,clock,cr,cr_clock_40_n02708093_7076.png,True,-0.2149209780108616,0.0341588146984577,1.0,-0.0036945558465060653,23.465795004740357,9,5.817832167832168,5,25.59584076922393,6
subject-02,1,65,0.834652185440063,bicycle,bicycle,cr,cr_bicycle_40_n02835271_8511.png,True,0.38719133294670816,0.0262027233839035,1.0,-0.0027476712158163675,23.651121728122234,9,8.25,6,16.48823797793817,8
subject-02,1,66,0.632537126541138,boat,boat,cr,cr_boat_40_n03662601_26298.png,True,-0.645923219054499,0.0386870875954628,1.0,-0.00425683208184709,22.87374886847101,9,6.1345238095238095,6,19.737158874737098,7
subject-02,1,67,1.00617504119873,airplane,airplane,bw,bw_airplane_40_n02690373_7107.png,True,1.2639333196667557,0.0131549965590238,1.0,-0.0012749809342352282,23.501397009007633,9,6.984931734931735,4,21.17243454615949,8
subject-02,1,68,0.660104990005493,oven,oven,bw,bw_oven_40_n04111531_4012.png,True,-0.5050096173280169,0.0116347968578338,1.0,-0.001115347835802304,25.384957583621144,9,4.11845238095238,7,28.957488743004724,8
subject-02,1,69,0.647974014282227,clock,clock,bw,bw_clock_40_n02708093_3745.png,True,-0.5670173055129282,0.0609903819859027,1.0,-0.007141399320098587,25.414042983204126,9,4.8162087912087905,6,30.49513332698023,6
subject-02,1,70,1.39762711524963,bird,bird,cr,cr_bird_40_n01819313_6430.png,True,3.264847236305106,0.3241426348686218,1.0,-0.05011489616277036,25.220146790146828,9,3.1738095238095236,8,33.04146808222807,9
subject-02,1,71,1.14139986038208,keyboard,keyboard,cr,cr_keyboard_40_n04505470_2787.png,True,1.955137276715371,0.0417240858078002,1.0,-0.004666590418774293,23.79997737845406,9,4.974650349650349,6,25.079265710812955,6
subject-02,1,72,0.649778127670288,bicycle,bicycle,bw,bw_bicycle_40_n03792782_818.png,True,-0.5577955493270218,0.0319082029163837,1.0,-0.0034615037737462293,24.27205994538963,9,6.4,6,19.25708508874033,6
subject-02,1,73,0.603532075881958,chair,chair,bw,bw_chair_40_n04099969_24495.png,True,-0.7941830275060624,0.0291319601237773,1.0,-0.003092715349558968,25.00348782975925,9,4.9178321678321675,7,25.04233605522392,8
subject-02,1,74,0.688867092132568,knife,knife,bw,bw_knife_40_n03041632_33739.png,True,-0.35799164441939824,0.0102345086634159,1.0,-0.0009656440970732189,24.192730409500655,9,6.767857142857142,5,19.42881612590771,5
subject-02,1,75,0.85273003578186,dog,bear,cr,cr_bear_40_n02134418_685.png,False,0.47959657161994484,0.0862428024411201,1.0,-0.010621007824617184,24.85909239575267,9,8.833333333333332,4,16.234611819695207,9
subject-02,1,76,1.01276397705078,bear,bear,cr,cr_bear_40_n02134418_1482.png,True,1.297612777041376,0.0204155966639518,1.0,-0.0020935380936135044,22.80354211491067,8,8.916666666666666,4,14.80794261880536,8
subject-02,1,77,0.590619802474976,cat,cat,cr,cr_cat_40_n02123394_2395.png,True,-0.8601843320542919,0.0780243277549743,1.0,-0.009393445966224344,25.563484225422144,9,4.68459595959596,7,26.607971239676917,9
subject-02,1,78,0.658284902572632,bottle,bottle,cr,cr_bottle_40_n03983396_3702.png,True,-0.5143130251148839,0.1883876025676727,1.0,-0.026488308794767372,26.499818354845047,9,5.223351648351648,6,25.437103896005556,0
subject-02,1,79,0.790224075317383,truck,truck,bw,bw_truck_40_n03417042_27907.png,True,0.16009629442903653,0.1744181364774704,1.0,-0.024359738805024414,26.526246711611748,9,4.376190476190476,8,24.039892651734576,9
subject-02,1,80,0.689796924591064,bottle,bottle,cr,cr_bottle_40_n03983396_3899.png,True,-0.3532387900352246,0.0880293920636177,1.0,-0.010826390755908844,25.18408638238907,9,5.56025641025641,6,23.535578321077637,0
subject-02,1,81,0.84327507019043,bicycle,bicycle,bw,bw_bicycle_40_n03792782_9412.png,True,0.43126735461656507,0.0288501903414726,1.0,-0.003094628608039651,24.991249091923237,9,7.333333333333333,3,18.773588913335605,8
subject-02,1,82,0.793078899383545,bicycle,bicycle,bw,bw_bicycle_40_n03792782_24591.png,True,0.17468877606906194,0.0399113520979881,1.0,-0.0044212780350977145,23.825452434830368,8,8.583333333333332,3,17.336045417185286,8
subject-02,1,83,0.679260015487671,dog,cat,cr,cr_cat_40_n02123597_9656.png,False,-0.40709837965280554,0.1218029335141182,1.0,-0.015851540769827047,25.85640949755907,9,3.0916666666666663,8,34.39388298018271,9
subject-02,1,84,0.984783887863159,keyboard,keyboard,bw,bw_keyboard_40_n04505470_4965.png,True,1.1545920765379134,0.0417703986167907,1.0,-0.004657787591066444,23.261592992581427,9,5.423160173160173,6,22.71695878913849,6
subject-02,1,85,0.646533012390137,car,car,bw,bw_car_40_n04285008_11410.png,True,-0.5743830111277873,0.0926403254270553,1.0,-0.011818835675462484,25.76779894530773,9,3.7802960927960925,8,31.7974093135008,9
subject-02,1,86,0.880283117294312,boat,boat,bw,bw_boat_40_n03344393_7659.png,True,0.6204346151485309,0.0518069602549076,1.0,-0.005914081659323663,24.624192539602518,9,5.8845238095238095,7,20.11678976424737,9
subject-02,1,87,0.536042928695679,oven,oven,bw,bw_oven_40_n04111531_12103.png,True,-1.1391549481543113,0.0107078645378351,1.0,-0.0010190432181363754,25.0463386233896,9,4.458928571428571,7,27.582666694672994,6
subject-02,1,88,0.694301843643188,car,car,cr,cr_car_40_n02814533_6297.png,True,-0.3302118198842065,0.556348443031311,1.0,-0.23271837263730655,25.819164276123047,9,5.099837662337662,6,30.28746645585262,5
subject-02,1,89,1.22994017601013,bird,bird,bw,bw_bird_40_n01534433_8318.png,True,2.407712601940704,0.3276031911373138,1.0,-0.050480692573194104,25.648040222004056,9,4.131486568986569,7,31.11000693640447,9
subject-02,1,90,0.625764846801758,boat,boat,bw,bw_boat_40_n03344393_3443.png,True,-0.6805398418192347,0.0608145706355571,1.0,-0.007164271708471298,24.900760550051928,9,7.7,4,20.697083124638354,9
subject-02,1,91,0.627472877502441,keyboard,keyboard,cr,cr_keyboard_40_n03085013_19483.png,True,-0.6718092139196935,0.0470591410994529,1.0,-0.0052982008894744284,24.762202171608806,9,5.141414141414141,6,25.169058863422812,6
subject-02,1,92,1.33754801750183,cat,bird,cr,cr_bird_40_n01797886_6946.png,False,2.957751909056903,0.0689560920000076,1.0,-0.009062701536189823,24.283898159861565,9,3.3036435786435785,8,30.780369029986122,8
subject-02,1,93,1.12492918968201,truck,truck,bw,bw_truck_40_n03417042_27093.png,True,1.8709471640431041,0.0478824339807033,1.0,-0.005408821691007862,25.51696276292205,9,5.391666666666667,7,22.90202497052443,9
subject-02,1,94,0.726994037628174,airplane,airplane,cr,cr_airplane_40_n02690373_16250.png,True,-0.16310511577847386,0.0157540086656808,1.0,-0.0015581462057397463,23.517816012725234,9,7.687301587301587,3,19.93748741449594,3
subject-02,1,95,0.910640001296997,airplane,airplane,bw,bw_airplane_40_n02690373_693.png,True,0.7756043426663123,0.0170455761253833,1.0,-0.001694683914732581,24.271131431683898,9,7.680891330891331,3,20.365055832759186,3
subject-02,1,96,0.754475831985474,bicycle,bicycle,bw,bw_bicycle_40_n03792782_41992.png,True,-0.02263145775267788,0.0159866996109485,1.0,-0.0015881745443149227,23.9506076030666,8,8.583333333333332,3,17.752488295234087,8
subject-02,1,97,0.808645963668823,truck,truck,cr,cr_truck_40_n03417042_8046.png,True,0.25426008922441484,0.0960245728492736,1.0,-0.011940555285383684,24.365506034344435,9,5.576190476190476,7,21.596922328460998,9
subject-02,1,98,0.756124019622803,bird,bird,cr,cr_bird_40_n02013706_9024.png,True,-0.014206718686576929,0.3183504343032837,1.0,-0.04862407471922045,25.288280159235,9,4.139718614718614,7,30.742997085686252,9
subject-02,1,99,0.898114919662476,car,car,cr,cr_car_40_n02814533_55399.png,True,0.7115821754308779,0.2298611998558044,0.5,-3.335024548895144,25.200892567634583,9,2.789423076923077,8,37.0980385028698,8
subject-02,1,100,0.611804962158203,keyboard,keyboard,cr,cr_keyboard_40_n03085013_18625.png,True,-0.7518960289736376,0.0335866883397102,1.0,-0.0036620114320519894,24.23591079376638,9,3.6893939393939394,8,29.68600993271555,8
subject-02,1,101,0.643494129180908,bicycle,bicycle,bw,bw_bicycle_40_n03792782_7003.png,True,-0.5899163141997604,0.0260457843542099,1.0,-0.002749942426865436,24.68629758618772,9,7.333333333333333,6,19.07057911797508,6
subject-02,1,102,0.7273108959198,airplane,airplane,bw,bw_airplane_40_n02690373_9619.png,True,-0.16148548924602066,0.0216785632073879,1.0,-0.002218918299994444,23.540677472017705,9,6.945609945609945,4,21.55986453005293,3
subject-02,1,103,0.69721508026123,bicycle,bicycle,bw,bw_bicycle_40_n03792782_2628.png,True,-0.3153207614944055,0.0212786234915256,1.0,-0.002185286906692752,23.766117725521326,8,9.583333333333332,2,16.153380799536226,8
subject-02,1,104,0.792941093444824,airplane,airplane,bw,bw_airplane_40_n02690373_6524.png,True,0.1739843786757134,0.0670110359787941,1.0,-0.007967177828379666,25.071778900921345,9,6.521367521367521,4,23.768787595556518,9
subject-02,1,105,0.896706104278564,chair,chair,bw,bw_chair_40_n04429376_12337.png,True,0.7043809916985438,0.0524591095745563,1.0,-0.006087855608995106,27.187442887574434,10,3.430927405927406,9,29.66117321782797,9
subject-02,1,106,1.02865505218506,elephant,elephant,bw,bw_elephant_40_n02504013_237.png,True,1.3788402771475372,0.044968482106924,1.0,-0.005026854229212126,24.767958578653634,9,8.033333333333333,1,20.283665756346707,0
subject-02,1,107,0.634371042251587,keyboard,keyboard,cr,cr_keyboard_40_n04505470_2740.png,True,-0.6365491277921751,0.0286783892661333,1.0,-0.003252843835371356,24.12832665629685,9,5.760822510822511,5,25.983196431188926,5
subject-02,1,108,0.770285129547119,bottle,chair,cr,cr_chair_40_n04429376_16081.png,False,0.0581780349037824,0.0381242707371711,1.0,-0.004241568175642488,27.025319047272205,10,4.996825396825397,7,26.098016822224928,9
subject-02,1,109,0.930103063583374,elephant,dog,bw,bw_dog_40_n02088466_292.png,False,0.8750901156913571,1.2420152425765991,1.0,-0.303756730092531,28.29728937149048,10,3.833333333333333,8,27.59328165949584,9
subject-02,1,110,0.652007102966309,cat,cat,cr,cr_cat_40_n02125311_8567.png,True,-0.5464021042917256,0.0545007549226284,1.0,-0.006247564786300167,24.695527368457988,9,4.502777777777778,7,25.916382915871058,9
subject-02,1,111,0.711549043655396,knife,knife,cr,cr_knife_40_n03041632_44738.png,True,-0.24205246446082807,0.0175914019346237,1.0,-0.001757914293923773,23.879573949147016,9,7.166666666666666,5,18.199392535028423,5
subject-02,1,112,0.923614978790283,cat,cat,bw,bw_cat_40_n02123597_9939.png,True,0.8419261602153224,0.2615188062191009,1.0,-0.047693962268433955,26.6725991666317,9,3.957575757575757,7,32.418026073716725,9
subject-02,1,113,0.635532140731812,keyboard,keyboard,cr,cr_keyboard_40_n03085013_1797.png,True,-0.6306141532150124,0.0255475174635648,1.0,-0.002669317593327134,22.89281131606549,9,5.356493506493506,6,23.619027103323944,6
subject-02,1,114,1.50000190734863,chair,knife,cr,cr_knife_40_n03041632_83472.png,False,3.788137722683296,2.405630111694336,0.3333333333333333,-1.9307813258107098,30.55388355255127,9,1.7270202020202017,9,34.16902939458597,9
subject-02,1,115,0.617456197738647,clock,clock,cr,cr_clock_40_n02708093_6766.png,True,-0.7230096424433624,0.0412105917930603,1.0,-0.0047053357584468675,26.385701596736908,9,4.793589743589743,6,31.5716647102499,9
subject-02,1,116,0.750837802886963,keyboard,keyboard,cr,cr_keyboard_40_n04505470_4385.png,True,-0.04122730520091322,0.0294790659099817,1.0,-0.0031373789318948127,23.35219174006488,8,5.1901515151515145,6,24.205502762368127,6
subject-02,1,117,0.62873101234436,clock,clock,cr,cr_clock_40_n03196217_970.png,True,-0.665378236333722,0.0831831693649292,1.0,-0.010137569550710757,25.35866878926754,9,4.93968253968254,6,29.50027594565042,6
subject-02,1,118,0.744195938110352,airplane,airplane,cr,cr_airplane_40_n02690373_713.png,True,-0.0751773096712509,0.0130436457693576,1.0,-0.001260597991855584,21.831774976453744,8,7.640151515151516,3,19.114760017364514,3
subject-02,1,119,1.07007193565369,truck,truck,bw,bw_truck_40_n03417042_265.png,True,1.5905433795441672,0.116403192281723,1.0,-0.015027517950317445,26.09274470806122,9,4.226190476190476,8,24.610435116735793,9
subject-02,1,120,0.845834016799927,bicycle,bicycle,cr,cr_bicycle_40_n03792782_10281.png,True,0.44434745361793404,0.023092882707715,1.0,-0.002466021263966344,22.734526712913066,8,8.916666666666666,3,15.180045876159125,8
subject-02,1,121,0.789693832397461,cat,cat,cr,cr_cat_40_n02125311_13383.png,True,0.15738594874944536,0.0526123642921447,1.0,-0.006012897648382619,24.619028205052018,9,4.760353535353535,7,25.123311768363276,5
subject-02,1,122,0.849721908569336,bicycle,bicycle,bw,bw_bicycle_40_n02835271_381.png,True,0.4642204783468381,0.0187527630478143,1.0,-0.0018943001303824904,23.745373285375535,8,8.916666666666666,6,17.96551704239771,8
subject-02,1,123,0.52128005027771,cat,cat,cr,cr_cat_40_n02123394_238.png,True,-1.2146156516076627,0.0688192695379257,1.0,-0.008187580772480278,24.754940263926983,9,4.610353535353536,7,27.101433242205832,9
subject-02,1,124,0.701296091079712,dog,dog,cr,cr_dog_40_n02100877_1107.png,True,-0.29446060547032343,1.1032626628875732,1.0,-0.2552455868518884,27.508891344070435,10,4.960714285714285,7,25.57474139188784,9
subject-02,1,125,0.668888092041016,bicycle,bicycle,cr,cr_bicycle_40_n03792782_32379.png,True,-0.4601146422873501,0.0301108602434396,1.0,-0.0032174435456951097,23.480298035778105,9,9.583333333333332,2,15.032097581515357,8
subject-02,1,126,0.68867301940918,keyboard,keyboard,bw,bw_keyboard_40_n04505470_3065.png,True,-0.35898365043701475,0.0243723765015602,1.0,-0.002541311381922743,24.660890530329198,9,5.889393939393939,5,23.418719043770015,5
subject-02,1,127,0.606746196746826,cat,cat,cr,cr_cat_40_n02123045_11472.png,True,-0.7777539941847682,0.0947567671537399,1.0,-0.011747306681673042,25.621229097247124,9,4.529040404040404,7,26.808657491191905,9
subject-02,1,128,0.842499971389771,elephant,elephant,cr,cr_elephant_40_n02504013_6167.png,True,0.4273054239491425,0.0250047408044338,1.0,-0.0026773857606151876,25.918384190648794,9,6.449999999999999,1,22.62661032194259,9
subject-02,1,129,0.61845588684082,car,car,cr,cr_car_40_n04285008_6131.png,True,-0.717899714640069,0.0138321099802851,1.0,-0.0013776966734115727,23.9431688291952,8,4.402457264957265,7,31.807326141728808,8
subject-02,1,130,0.478210926055908,oven,oven,cr,cr_oven_40_n04111531_2260.png,True,-1.4347642106407767,0.0087109562009572,1.0,-0.0008082078672949076,23.04922955459915,9,6.1384920634920634,5,21.15395307713533,5
subject-02,1,131,0.67197585105896,clock,clock,cr,cr_clock_40_n02708093_3621.png,True,-0.44433150969005963,0.0542172715067863,1.0,-0.006231070918884526,25.177574887871742,9,4.853968253968254,6,28.56156665010773,6
subject-02,1,132,0.947834014892578,bear,bear,bw,bw_bear_40_n02132136_390.png,True,0.9657221740751124,0.1822922676801681,1.0,-0.026633251713341393,24.146657809615135,9,10.25,3,14.123070466775516,9
subject-02,1,133,0.621485948562622,elephant,elephant,bw,bw_elephant_40_n02504458_12303.png,True,-0.7024115027507167,0.0299842823296785,1.0,-0.0031907745605395266,23.307906409259886,9,8.166666666666666,1,18.461682194942743,0
subject-02,1,134,0.851513147354126,knife,knife,bw,bw_knife_40_n03041632_131.png,True,0.47337642577973504,0.0211385488510131,1.0,-0.0022665298618230636,25.659048046916723,9,6.095238095238095,5,22.656889489457022,9
subject-02,1,135,0.769256114959717,keyboard,chair,bw,bw_chair_40_n02791124_2813.png,False,0.05291820938529804,0.0724253952503204,1.0,-0.008651318629875254,25.80016189813614,9,5.258008658008658,7,24.56786608084706,9
subject-02,1,136,0.546935081481934,car,car,cr,cr_car_40_n04285008_874.png,True,-1.0834795244258502,0.0114456946030259,1.0,-0.0011039507088506956,23.75687959138304,9,4.215909090909091,7,31.869253322708072,5
subject-02,1,137,0.724652051925659,truck,truck,bw,bw_truck_40_n03417042_17099.png,True,-0.17507621542353838,0.0746479332447052,1.0,-0.008965147408156333,24.940504921600223,9,5.292857142857143,7,21.9155257660304,8
subject-02,1,138,0.68653392791748,oven,oven,cr,cr_oven_40_n04111531_9498.png,True,-0.3699176528818419,2.765102544799447e-05,1.0,-1.6093267037900496e-06,22.350955828918813,8,5.310353535353535,6,23.050003118107245,5
subject-02,1,139,0.650799036026001,truck,truck,bw,bw_truck_40_n03417042_2383.png,True,-0.5525771589493204,0.1622136086225509,1.0,-0.02355729857211784,25.378828838467598,9,4.859523809523809,7,24.03223734565857,9
subject-02,1,140,0.626194953918457,bird,bird,cr,cr_bird_40_n02017213_7558.png,True,-0.6783413419964024,0.244228646159172,1.0,-0.035495897920038766,25.03102271258831,9,4.2388999888999885,7,30.43326574615013,9
subject-02,1,141,0.75611686706543,bird,bird,cr,cr_bird_40_n01616318_4878.png,True,-0.014243279104916162,0.5007843971252441,1.0,-0.08487437544339198,25.796172261238098,9,4.159065934065934,7,30.031073209655773,9
subject-02,1,142,0.928003072738647,bird,bird,cr,cr_bird_40_n01601694_24991.png,True,0.8643559768667892,0.4064882397651672,1.0,-0.06593045520810412,25.331675946712494,9,4.139285714285714,7,31.0852555855102,9
subject-02,1,143,0.627597093582153,chair,chair,cr,cr_chair_40_n04099969_4205.png,True,-0.6711742813211917,0.044081874191761,1.0,-0.004953652970405433,23.880500201601535,8,5.211111111111111,7,23.469207215099143,8
subject-02,1,144,1.24935388565063,bottle,knife,bw,bw_knife_40_n03041632_22734.png,False,2.506946108079189,0.0152965169399976,1.0,-0.0015171348024445514,27.846909819170833,10,3.4409090909090905,9,26.419742612546273,9
subject-02,1,145,0.807459831237793,truck,truck,cr,cr_truck_40_n04467665_67327.png,True,0.24819715318306562,0.7422835826873779,0.5,-0.8287145592366962,25.19786673784256,9,2.742857142857143,8,27.067460274818547,9
subject-02,1,146,0.577278852462769,chair,chair,bw,bw_chair_40_n02791124_3923.png,True,-0.9283768243416891,0.0251819789409637,1.0,-0.002643738945138283,25.50541727244854,9,3.980952380952381,8,26.91446582479625,9
subject-02,1,147,1.16284513473511,oven,clock,bw,bw_clock_40_n02708093_7841.png,False,2.064755160342999,0.0731607303023338,1.0,-0.009061197855344295,27.492875419557095,10,3.957850482850483,8,30.144760714887216,9
subject-02,1,148,0.792670965194702,boat,boat,bw,bw_boat_40_n04273569_870.png,True,0.1726036135430808,0.0605364069342613,1.0,-0.007054296929923206,24.721115730702877,9,7.684523809523809,4,20.20384075864154,9
subject-02,1,149,0.550634145736694,bottle,bottle,cr,cr_bottle_40_n03983396_11519.png,True,-1.0645716947411203,0.0946532115340232,1.0,-0.01192444980862571,23.810939960181713,8,5.437637362637362,6,23.31016823177793,0
subject-02,1,150,0.658238887786865,cat,cat,bw,bw_cat_40_n02123394_916.png,True,-0.5145482304728716,0.0663368999958038,1.0,-0.007862941993357112,24.695601888000965,9,4.565873015873016,7,27.215136662274492,8
subject-02,1,151,0.690093994140625,elephant,elephant,cr,cr_elephant_40_n02504013_7001.png,True,-0.3517203139935093,0.0142307635396718,1.0,-0.0014064064452259588,23.448537899181247,9,9.5,1,16.811447886124363,0
subject-02,1,152,0.907881021499634,elephant,elephant,cr,cr_elephant_40_n02504458_3776.png,True,0.7615017706320413,0.0615740679204463,1.0,-0.0071628309126621405,23.63983889296651,9,9.033333333333333,1,17.551050613130144,0
subject-02,1,153,0.787622928619385,elephant,elephant,cr,cr_elephant_40_n02504458_2190.png,True,0.14680048895946216,0.048141311854124,1.0,-0.005414095360916522,25.006914291530848,9,8.866666666666667,1,19.362106610641636,0
subject-02,1,154,0.73164701461792,car,car,cr,cr_car_40_n02814533_33205.png,True,-0.13932134496782245,0.0606754645705223,1.0,-0.007914547887386348,24.55260207504034,9,4.781089743589743,7,28.91505055281314,5
subject-02,1,155,0.813457012176514,bicycle,bicycle,bw,bw_bicycle_40_n03792782_6194.png,True,0.27885184528037926,0.0248277857899665,1.0,-0.0026224637455300914,24.773703932762146,9,7.283333333333333,6,19.105367018433608,8
subject-02,1,156,0.697684049606323,elephant,elephant,bw,bw_elephant_40_n02504013_720.png,True,-0.31292361673192476,0.0159956980496644,1.0,-0.0015890700354543514,23.132201730739325,9,8.233333333333334,1,18.55230724684285,0
subject-02,1,157,0.581079006195068,boat,boat,cr,cr_boat_40_n03662601_8333.png,True,-0.9089522740777567,0.066634714603424,1.0,-0.007975168689478316,24.40010453015566,9,5.476190476190476,7,20.862733431413538,9
subject-02,1,158,0.712960004806519,bird,bird,cr,cr_bird_40_n01833805_4859.png,True,-0.23484031260299662,0.5188835859298706,1.0,-0.0891670520460694,26.099566765129566,9,4.884065934065934,6,30.23615896751682,9
subject-02,1,159,0.87321400642395,bottle,bottle,bw,bw_bottle_40_n04579145_1829.png,True,0.5843007350226906,0.158736765384674,1.0,-0.02139585719698854,26.3427115380764,9,3.8344017094017095,8,29.02290547968444,9
subject-02,1,160,0.654561996459961,cat,cat,bw,bw_cat_40_n02123159_7638.png,True,-0.5333427228607504,0.0701654329895973,1.0,-0.008346002859975733,24.122240010648966,9,5.299242424242424,6,24.011441054782388,5
subject-02,1,161,0.719955921173096,bottle,bottle,bw,bw_bottle_40_n02823428_4405.png,True,-0.19908056742483765,0.182628333568573,1.0,-0.025280493116220493,24.5536739975214,9,4.612637362637362,7,23.882980138470526,0
subject-02,1,162,0.921828031539917,dog,bear,bw,bw_bear_40_n02134084_7841.png,False,0.8327921490334298,0.0891651585698127,1.0,-0.011037300083818313,25.55224398523569,9,8.833333333333334,5,17.909748528166393,9
subject-02,1,163,0.628014802932739,clock,clock,bw,bw_clock_40_n03196217_3689.png,True,-0.6690391528901468,0.9669069051742554,1.0,-0.20558396290678477,26.65681764483452,9,4.157575757575757,8,29.157813240809922,9
subject-02,1,164,0.535336017608643,boat,boat,cr,cr_boat_40_n03662601_14818.png,True,-1.1427683361668945,0.0385616347193717,1.0,-0.004240730164009561,23.709521441720426,9,6.101190476190476,5,19.970007950965996,7
subject-02,1,165,0.547197103500366,boat,boat,cr,cr_boat_40_n03662601_27165.png,True,-1.0821401944340057,0.0633474364876747,1.0,-0.007491446141684206,23.642463704571128,9,7.7,4,19.119712530558417,2
subject-02,1,166,0.740974903106689,bicycle,bicycle,cr,cr_bicycle_40_n03792782_18707.png,True,-0.09164168473027923,0.024949561804533,1.0,-0.002602145157236111,23.3222293574363,8,8.916666666666666,3,15.693440948692592,8
subject-02,1,167,0.787024021148682,bicycle,bicycle,bw,bw_bicycle_40_n03792782_551.png,True,0.14373916326381003,0.1868327111005783,1.0,-0.027093866480854604,24.98208998143673,9,8.583333333333332,2,17.503901976884613,8
subject-02,1,168,0.846660852432251,chair,chair,cr,cr_chair_40_n02791124_7424.png,True,0.4485738379780139,0.0274010412395,1.0,-0.0028995548738241566,25.443812157958746,9,4.349242424242425,8,26.29304178991055,8
subject-02,1,169,0.782518863677979,elephant,elephant,cr,cr_elephant_40_n02504013_811.png,True,0.12071097443218116,0.1134156808257103,1.0,-0.01977399125065929,25.643993340432644,9,6.142857142857142,1,22.476430092249192,9
subject-02,1,170,1.01237297058105,bottle,chair,cr,cr_chair_40_n03376595_1798.png,False,1.2956141408387831,0.2064088732004165,1.0,-0.02990126214034026,27.03054703772068,9,4.577020202020202,8,25.93359530424149,8
subject-02,1,171,0.888065099716187,bird,bird,bw,bw_bird_40_n01532829_15048.png,True,0.6602123503022346,0.4523794054985046,1.0,-0.07671711384611475,27.546553432941437,9,4.089123376623377,7,32.072305488028235,9
subject-02,1,172,0.798128128051758,bird,dog,bw,bw_dog_40_n02099849_4121.png,False,0.20049799405573948,0.642074704170227,1.0,-0.1179855554921849,27.309884667396545,9,3.757936507936508,8,27.364584705507475,9
subject-02,1,173,1.15801596641541,bird,bird,bw,bw_bird_40_n01514859_17156.png,True,2.0400707845605868,0.3696631193161011,1.0,-0.05833823668948349,25.671705797314644,9,3.5640873015873016,8,32.083265089469926,9
subject-02,1,174,0.749562978744507,knife,knife,cr,cr_knife_40_n03041632_30573.png,True,-0.047743590429677116,0.0098035391420125,1.0,-0.0009243586865496503,24.121824781410396,9,6.527777777777778,5,20.103059654581664,5
subject-02,1,175,0.835407972335815,chair,chair,cr,cr_chair_40_n04429376_9432.png,True,0.3910545504846138,0.0362568721175193,1.0,-0.003967396271374125,25.520848490297794,9,6.322222222222222,6,23.76769833527958,9
subject-02,1,176,0.675596952438354,bird,bird,bw,bw_bird_40_n01592084_19555.png,True,-0.4258221885652319,0.4860433340072632,1.0,-0.08175143746258745,26.40785050392151,9,4.289285714285715,7,30.881873991102644,6
subject-02,1,177,0.654781818389893,chair,chair,bw,bw_chair_40_n04099969_8934.png,True,-0.5322190993371054,0.0457867197692394,1.0,-0.005159972050062914,25.503793298266828,9,4.2504079254079254,8,27.17093745457289,9
subject-02,1,178,0.693146944046021,oven,oven,bw,bw_oven_40_n04111531_6120.png,True,-0.3361151087654685,0.0096953269094228,1.0,-0.0009157677171022468,25.318947565741837,9,4.398946886446886,7,27.122014947575973,6
subject-02,1,179,0.882523059844971,truck,truck,cr,cr_truck_40_n03796401_5515.png,True,0.6318841194919448,0.0899207442998886,1.0,-0.011241562970802886,25.273215666413307,9,5.709523809523809,5,21.943048461458822,9
subject-02,1,180,0.610459089279175,keyboard,keyboard,bw,bw_keyboard_40_n03085013_23534.png,True,-0.7587754810245751,0.0738268494606018,1.0,-0.008913848099804696,24.430870041251183,9,5.433838383838384,6,24.125643569097054,6
subject-02,1,181,0.870213985443115,bear,bear,bw,bw_bear_40_n02134418_5824.png,True,0.5689660768903667,0.0004482202930375,1.0,-3.2365845881376167e-05,22.742338356154505,8,8.666666666666666,4,14.690638160195004,8
subject-02,1,182,0.714118957519531,bird,bird,bw,bw_bird_40_n02027492_546.png,True,-0.2289163061513409,0.4424422979354858,1.0,-0.07305699781753885,26.228830099105835,9,4.845238095238095,6,29.72513068090796,9
subject-02,1,183,0.795857906341553,truck,truck,cr,cr_truck_40_n03417042_16038.png,True,0.18889371727468657,0.0725819915533065,1.0,-0.008718778395742099,25.26959651336074,9,5.852380952380952,6,21.69782291394036,9
subject-02,1,184,0.903662919998169,car,car,cr,cr_car_40_n02814533_80049.png,True,0.7399408732564481,0.0483848862349987,1.0,-0.006638219083216545,25.022791784256697,9,4.081089743589743,8,30.587668550643805,5
subject-02,1,185,0.807364940643311,bicycle,bicycle,cr,cr_bicycle_40_n03792782_33853.png,True,0.24771211829975986,0.036986481398344,1.0,-0.00406560114207352,24.502184177283198,9,8.416666666666666,6,17.165599622405953,8
subject-02,1,186,1.45729088783264,car,truck,cr,cr_truck_40_n04467665_37066.png,False,3.569819621928403,0.2920634746551513,1.0,-0.047648951538993845,26.890362977981567,10,4.292857142857143,8,25.10782694437839,9
subject-02,1,187,0.701251983642578,elephant,elephant,cr,cr_elephant_40_n02504458_694.png,True,-0.29468606138342,0.0429910346865654,1.0,-0.00479474920361168,24.158286226913333,9,8.366666666666667,1,19.02091752827363,0
subject-02,1,188,0.805259943008423,bird,bird,bw,bw_bird_40_n01817953_5039.png,True,0.23695238718235467,0.5131120681762695,1.0,-0.0884052543478327,26.54838976264,9,3.839224664224664,7,32.80061869230515,9
subject-02,1,189,0.558811902999878,keyboard,keyboard,cr,cr_keyboard_40_n03085013_21325.png,True,-1.022770949772612,0.0686381235718727,1.0,-0.008103812316855518,23.923859926871955,9,5.9095959595959595,5,23.448392698242472,6
subject-02,1,190,1.22463202476501,cat,cat,cr,cr_cat_40_n02123394_8268.png,True,2.3805798968101115,0.1696076691150665,1.0,-0.023622842041009257,26.07168561220169,9,3.63030303030303,8,30.634334375081224,9
subject-02,1,191,0.610263109207153,cat,cat,bw,bw_cat_40_n02123159_2107.png,True,-0.7597772364870886,0.2444120198488235,1.0,-0.03547718531109644,25.114029981195927,9,4.747557997557998,7,25.47068464218854,9
subject-02,1,192,0.68613600730896,cat,cat,bw,bw_cat_40_n02125311_20219.png,True,-0.37195163082214394,0.1776257753372192,1.0,-0.025180427186932273,25.435062885284424,9,4.999242424242424,7,24.840387714093154,9
subject-02,1,193,1.02409219741821,dog,dog,bw,bw_dog_40_n02097474_1859.png,True,1.3555171676079452,0.7667866945266724,1.0,-0.1523344381979773,26.655231833457947,9,4.38015873015873,8,26.19019719432708,9
subject-02,1,194,0.790019035339355,cat,cat,cr,cr_cat_40_n02123394_3605.png,True,0.15904822910329214,0.0665365606546402,1.0,-0.00785501210367434,25.105619309470057,9,5.294877344877345,6,25.860944901442412,9
subject-02,1,195,0.533514022827148,cat,cat,cr,cr_cat_40_n02123394_1594.png,True,-1.1520814933986578,0.2596216797828674,1.0,-0.05020507925110841,25.4360191822052,9,5.146367521367521,6,26.21315727250721,9
subject-02,1,196,0.727504014968872,bear,bear,bw,bw_bear_40_n02132136_21799.png,True,-0.16049835795084774,0.0533730275928974,1.0,-0.0061017084552471065,23.874311100691557,9,10.25,3,14.618309836675031,9
subject-02,1,197,0.815270900726318,airplane,airplane,cr,cr_airplane_40_n02690373_6812.png,True,0.2881235673713495,0.0175556950271129,1.0,-0.0017512865595242938,23.48146173544228,9,7.117832167832168,4,21.687866904957524,3
subject-02,1,198,0.929095029830933,keyboard,keyboard,cr,cr_keyboard_40_n04505470_2889.png,True,0.8699375340666695,0.0059528588317334,1.0,-0.000533365366182431,23.489715090719983,9,5.071969696969697,6,24.544079649979892,6
subject-02,1,199,1.07498502731323,bottle,bottle,bw,bw_bottle_40_n04557648_23801.png,True,1.615656730901746,0.1856285780668258,1.0,-0.025844215789506898,28.196373388171196,10,2.581349206349206,9,32.662748514948376,10
subject-02,1,200,0.62090802192688,car,car,cr,cr_car_40_n03100240_9354.png,True,-0.7053655845525716,0.1297126114368438,1.0,-0.02020153225521272,24.53288957476616,9,4.481089743589743,7,30.177109165044016,5
subject-02,1,201,1.10282397270203,bear,bear,bw,bw_bear_40_n02134418_399.png,True,1.7579559724833396,0.0851057916879654,1.0,-0.011580566288028454,24.844526782631874,9,8.916666666666666,4,15.974379711808739,9
subject-02,1,202,0.644330024719238,bottle,oven,cr,cr_oven_40_n04111531_7355.png,False,-0.5856436199764495,0.674397885799408,1.0,-0.3753821527018473,26.40441584587097,9,4.154700854700854,6,30.58671048468503,10
subject-02,1,203,0.630458116531372,clock,clock,cr,cr_clock_40_n04548280_8795.png,True,-0.6565501139852702,0.0014623515307903,1.0,-0.00011623581243232611,24.81388661218807,9,4.0928571428571425,7,31.336825153085467,6
subject-02,1,204,0.77574610710144,bottle,bottle,bw,bw_bottle_40_n04557648_5665.png,True,0.08609191430621889,0.0615028664469718,1.0,-0.007464062418615527,25.689927123486996,9,3.9499389499389497,8,26.52334109308427,0
subject-02,1,205,0.669878959655762,keyboard,keyboard,cr,cr_keyboard_40_n04505470_8575.png,True,-0.4550498056666763,0.0485350675880909,1.0,-0.005555835658108811,24.625479627400637,9,5.051165501165501,6,26.291805179571238,6
subject-02,1,206,,na,bicycle,bw,bw_bicycle_40_n03792782_15557.png,False,,0.777252197265625,1.0,-0.180071130698268,27.894599318504333,10,6.583333333333333,6,20.43389519012063,9
subject-02,1,207,0.737706899642944,keyboard,keyboard,bw,bw_keyboard_40_n04505470_510.png,True,-0.10834613986973382,0.0267510525882244,1.0,-0.0028187386587000085,24.275510348379612,9,5.414393939393939,6,23.85222525482533,6
subject-02,1,208,0.673196077346802,truck,truck,bw,bw_truck_40_n03796401_4423.png,True,-0.43809430232128843,0.0478079654276371,1.0,-0.005398514143761862,25.611631382256746,9,5.709523809523809,7,22.871084068198815,9
subject-02,1,209,0.703383922576904,boat,boat,cr,cr_boat_40_n04273569_3052.png,True,-0.2837886193569377,0.0920651704072952,1.0,-0.011435316756887281,23.513521034270525,9,6.208333333333333,5,20.472916593586238,7
subject-02,1,210,0.706617116928101,bottle,bottle,cr,cr_bottle_40_n04591713_5559.png,True,-0.2672620915867323,0.450524628162384,1.0,-0.10524690241363685,26.67575067281723,10,5.312637362637362,6,24.781433053335892,0
subject-02,1,211,0.664705991744995,keyboard,keyboard,bw,bw_keyboard_40_n04505470_2907.png,True,-0.48149151889063413,0.0355211272835731,1.0,-0.00388272400669321,24.806366004049778,9,6.033766233766234,5,22.893008842770218,9
subject-02,1,212,0.626700878143311,airplane,airplane,cr,cr_airplane_40_n02690373_8560.png,True,-0.6757553017391649,0.0132908765226602,1.0,-0.0012962871668372499,23.39055279456079,9,6.3686868686868685,5,22.855751563634332,3
subject-02,1,213,0.86818790435791,airplane,oven,bw,bw_oven_40_n04111531_3353.png,False,0.5586097290553129,0.0258868150413036,1.0,-0.002726692641842719,25.71730336174369,9,4.2838675213675215,7,29.987184616025854,6
subject-02,1,214,0.807947874069214,oven,oven,bw,bw_oven_40_n04111531_7862.png,True,0.25069179239445194,0.0275486130267381,1.0,-0.003048532054884697,26.089986147359014,9,3.8206349206349204,8,29.66551002535306,6
subject-02,1,215,0.557741165161133,bear,bear,cr,cr_bear_40_n02133161_3988.png,True,-1.0282440443980798,0.0038273599930107,1.0,-0.00033336473343266313,23.878186293412,9,8.75,4,15.745112928240227,9
subject-02,1,216,0.60774302482605,clock,clock,cr,cr_clock_40_n02708093_4976.png,True,-0.772658690548809,0.0363985039293766,1.0,-0.003994026133378856,24.928660038858652,9,4.983766233766234,6,27.700371711713903,6
subject-02,1,217,0.699405908584595,bicycle,bicycle,bw,bw_bicycle_40_n02835271_12926.png,True,-0.304122305356921,0.0277820061892271,1.0,-0.002957002915269627,25.155324636027217,9,7.916666666666666,3,18.532575205268635,8
subject-02,1,218,0.605456829071045,boat,boat,bw,bw_boat_40_n03344393_5066.png,True,-0.7843446189308214,0.0452580600976944,1.0,-0.00505423119946085,23.858350083231926,9,6.101190476190476,6,19.60511703906649,7
subject-02,1,219,0.927082061767578,elephant,elephant,cr,cr_elephant_40_n02504013_6672.png,True,0.8596482136652359,0.0423751398921012,1.0,-0.00481295626994221,25.611327283084393,9,6.892857142857142,1,21.836365333532793,9
subject-02,1,220,0.812875986099243,keyboard,keyboard,cr,cr_keyboard_40_n03085013_22837.png,True,0.2758819206305738,2.3807930946350098,0.25,-2.4163862567112413,30.166788816452026,10,4.153679653679653,6,33.67061975973507,6
subject-02,1,221,0.656751871109009,car,car,bw,bw_car_40_n04285008_13354.png,True,-0.522149141445714,0.0790799334645271,1.0,-0.009823553253839478,25.654084511101246,9,3.8350579975579975,8,32.12493168233981,8
subject-02,1,222,0.772989988327026,bicycle,bicycle,bw,bw_bicycle_40_n03792782_3705.png,True,0.07200396643928274,0.9424034953117372,1.0,-0.197046717981185,28.83767956495285,10,8.416666666666666,2,21.147490364851862,9
subject-02,1,223,0.624633073806763,keyboard,keyboard,bw,bw_keyboard_40_n04505470_4477.png,True,-0.6863249186812019,0.041997455060482,1.0,-0.004670902036127841,24.976579880341887,9,5.049650349650349,6,25.788314820207116,6
subject-02,1,224,0.660305976867676,car,car,cr,cr_car_40_n03100240_14252.png,True,-0.5039822695726668,0.0522812604904174,1.0,-0.006748088102474736,24.514992594718933,9,4.1926948051948045,7,31.30484142370582,5
subject-02,1,225,0.591912031173706,clock,clock,cr,cr_clock_40_n04548280_2988.png,True,-0.8535790831409035,0.030320256948471,1.0,-0.003227310054521634,25.280922402627766,9,5.793589743589743,5,26.87396432073958,6
subject-02,1,226,0.553884029388428,cat,cat,cr,cr_cat_40_n02123045_5300.png,True,-1.0479598593281232,0.1019977331161499,1.0,-0.01304847448531286,24.884613797068596,9,5.070707070707071,6,26.83980417290234,9
subject-02,1,227,0.697598934173584,cat,cat,bw,bw_cat_40_n02125311_75445.png,True,-0.31335868571016723,0.059206947684288,1.0,-0.006857189001951126,24.996272360906005,9,4.718589743589743,7,26.5496367036004,9
subject-02,1,228,0.53544282913208,clock,clock,bw,bw_clock_40_n02708093_3691.png,True,-1.142222367253023,0.0307329948991537,1.0,-0.0033283726289058367,23.5700601991266,9,5.455927405927406,6,25.6106816249204,6
subject-02,1,229,0.603064060211182,keyboard,keyboard,bw,bw_keyboard_40_n03085013_21956.png,True,-0.796575297546095,0.0206598062068223,1.0,-0.0020999889069089946,23.071178898680955,9,5.058080808080808,6,24.257609791740986,6
subject-02,1,230,0.786932945251465,elephant,elephant,cr,cr_elephant_40_n02504013_3141.png,True,0.1432736272702821,0.0250161532312631,1.0,-0.0026145155427128304,24.726635007187724,9,9.533333333333333,1,18.357078498655476,0
subject-02,1,231,0.812847137451172,dog,dog,bw,bw_dog_40_n02091467_3727.png,True,0.2757344602766044,0.5175174474716187,1.0,-0.0903149152217728,25.700349509716034,9,3.62063492063492,9,26.827318124860057,9
subject-02,1,232,0.66468620300293,cat,cat,bw,bw_cat_40_n02123159_1769.png,True,-0.48159266938137196,0.063062384724617,1.0,-0.007444065568269141,25.329712823033333,9,4.008741258741258,8,27.499229384322025,9
subject-02,1,233,0.882530927658081,bird,bird,bw,bw_bird_40_n01817953_6548.png,True,0.6319243359521168,0.4673280715942383,1.0,-0.08320784539921373,28.921583652496338,10,1.5281746031746029,10,38.06694286749123,10
subject-02,1,234,0.670762062072754,clock,clock,cr,cr_clock_40_n04548280_77.png,True,-0.45053581268232334,0.0464780740439891,1.0,-0.005239839265616873,24.037068784236908,8,5.054761904761905,6,27.209464463867537,4
subject-02,1,235,0.718492984771729,keyboard,chair,cr,cr_chair_40_n03376595_9813.png,False,-0.20655839165593776,0.018770134076476,1.0,-0.0019503168651877503,25.920923864468932,9,3.132117882117882,9,30.373241301808577,9
subject-02,1,236,0.571956872940063,bear,bear,bw,bw_bear_40_n02132136_26027.png,True,-0.9555802129477283,0.0489644035696983,1.0,-0.005566324639119797,23.985933903604746,9,9.416666666666666,4,14.786318388400383,9
subject-02,1,237,0.677586078643799,bottle,bottle,cr,cr_bottle_40_n04557648_830.png,True,-0.41565473622492977,0.0692567974328994,1.0,-0.008258314695859489,25.337284311652184,9,5.280494505494506,6,24.23272095838251,0
subject-02,1,238,0.871542930603027,elephant,elephant,bw,bw_elephant_40_n02504458_5059.png,True,0.5757590026179012,0.042823351919651,1.0,-0.004772589734609033,25.315101139247417,9,6.733333333333333,1,22.87531713537345,9
subject-02,1,239,0.821644067764282,keyboard,keyboard,cr,cr_keyboard_40_n04505470_4906.png,True,0.3207001187927242,0.0272112935781478,1.0,-0.0028688295964767957,24.400437902659178,9,5.8358585858585865,5,24.21615297224562,6
subject-02,1,240,0.623104810714722,oven,oven,cr,cr_oven_40_n04111531_7072.png,True,-0.6941366613998061,0.0142911132425069,1.0,-0.0014267007520708363,25.565760737285018,9,5.15479797979798,6,26.504946097349073,9
subject-02,1,241,0.714635133743286,truck,truck,cr,cr_truck_40_n04467665_4899.png,True,-0.22627786262781802,0.1035907715559005,1.0,-0.01332188602982088,24.405043348670006,9,4.367857142857143,8,23.209546527167323,9
subject-02,1,242,0.855944156646729,boat,bear,bw,bw_bear_40_n02133161_13461.png,False,0.49602560494124415,0.0919017195701599,1.0,-0.011545714123910436,25.524093478918076,9,9.75,4,17.51388931468409,9
subject-02,1,243,0.749779939651489,elephant,elephant,bw,bw_elephant_40_n02504013_53.png,True,-0.04663459107337152,0.0983566418290138,1.0,-0.012321914654237843,25.30265765823424,9,6.358333333333333,1,22.25823976739008,9
subject-02,1,244,0.687684059143066,elephant,elephant,cr,cr_elephant_40_n02504013_6731.png,True,-0.3640387376128019,0.0107090314850211,1.0,-0.0010124203789531247,24.104277667589486,9,8.5,1,18.69243509538108,0
subject-02,1,245,0.587536811828613,truck,truck,bw,bw_truck_40_n04467665_10060.png,True,-0.8759430910393615,0.0727319717407226,1.0,-0.00882617026347888,25.537968687713146,9,5.876190476190476,7,22.521006786570446,9
subject-02,1,246,0.959084033966064,truck,truck,bw,bw_truck_40_n03417042_5229.png,True,1.0232268374011726,0.0631562769412994,1.0,-0.007407675929632139,25.537607356905937,9,5.109523809523809,7,23.82706876654414,9
subject-02,1,247,0.76308798789978,bicycle,bicycle,cr,cr_bicycle_40_n02835271_18276.png,True,0.021389723289662557,0.2500814497470855,1.0,-0.051137970472476715,25.726930111646652,9,8.916666666666666,6,18.043243629850483,8
subject-02,1,248,0.685073852539062,cat,cat,bw,bw_cat_40_n02125311_5300.png,True,-0.37738085294560725,0.0663342103362083,1.0,-0.008486836886767348,25.951194010674953,9,3.703088578088578,8,30.38986651813305,9
subject-02,1,249,0.712748050689697,elephant,elephant,bw,bw_elephant_40_n02504458_6995.png,True,-0.23592371966646947,0.0496170744299888,1.0,-0.005614875070110311,24.92042954824865,9,6.75,1,20.87979273602046,9
subject-02,1,250,0.620391845703125,cat,cat,cr,cr_cat_40_n02125311_12557.png,True,-0.7080040280760944,0.0759427845478057,1.0,-0.009112925775398531,24.90226536989212,9,4.784523809523809,7,25.510833538706947,9
subject-02,1,251,0.502299070358276,keyboard,keyboard,cr,cr_keyboard_40_n03085013_8936.png,True,-1.3116372524366062,0.0250938273966312,1.0,-0.0026261091829915934,24.024688513949513,9,5.221139971139971,6,25.346454177569285,8
subject-02,1,252,0.694175004959106,truck,truck,cr,cr_truck_40_n03796401_18240.png,True,-0.3308601579694323,0.0528427138924598,1.0,-0.006075981893515207,25.268207497894764,9,6.792857142857143,6,21.18465813931118,8
subject-02,1,253,0.780014991760254,chair,chair,cr,cr_chair_40_n03376595_2056.png,True,0.1079123906520264,0.6333065032958984,1.0,-0.11772120519955168,28.78126096725464,10,3.2019230769230766,9,29.222803662931433,9
subject-02,1,254,0.655816078186035,car,car,cr,cr_car_40_n02814533_83614.png,True,-0.526932462845173,0.7884382605552673,1.0,-0.4325544120971574,26.584759652614594,9,3.6486111111111112,8,33.28183984001897,5
subject-02,1,255,0.671788930892944,cat,cat,cr,cr_cat_40_n02123394_979.png,True,-0.4452869552893415,0.0655240714550018,1.0,-0.007746102633077267,24.85506664495915,9,3.8464646464646464,8,27.118150727119456,9
subject-02,1,256,0.637332201004028,car,car,bw,bw_car_40_n03100240_18873.png,True,-0.6214131145994997,0.1313954293727874,1.0,-0.02048219970785514,24.45687384903431,8,4.441468253968254,7,30.673485668528464,8
subject-02,1,257,0.607333898544312,boat,boat,cr,cr_boat_40_n03344393_661.png,True,-0.7747499464778446,0.044456273317337,1.0,-0.005007624901719634,24.220015451312065,9,5.8845238095238095,7,20.595604882230184,9
subject-02,1,258,0.659020900726318,bottle,bottle,cr,cr_bottle_40_n03983396_5864.png,True,-0.5105509580677206,0.2938464283943176,1.0,-0.0667358467185469,25.19741255044937,9,4.437637362637362,7,26.377041128638954,8
subject-02,1,259,0.785077095031738,airplane,airplane,cr,cr_airplane_40_n02690373_6854.png,True,0.13378741739171277,0.0191911961883306,1.0,-0.001969308325480897,23.36078113131225,9,7.14005439005439,4,21.41777158638319,3
subject-02,1,260,0.60660982131958,boat,boat,bw,bw_boat_40_n03662601_855.png,True,-0.7784510794944466,0.0851177051663398,1.0,-0.010581791650512472,24.19855136424303,9,6.184523809523809,7,19.42967307884867,9
subject-02,1,261,0.580336093902588,airplane,airplane,bw,bw_airplane_40_n02690373_6406.png,True,-0.9127496828626485,0.0309234578162431,1.0,-0.003301999694137583,23.493010598234832,8,7.164224664224664,4,21.58509631990192,8
subject-02,1,262,0.742258071899414,bottle,bottle,bw,bw_bottle_40_n03983396_8684.png,True,-0.0850827456801172,1.0373070240020752,1.0,-0.28472948892878286,27.667844891548157,9,3.4634670884670884,8,29.2551169191044,9
subject-02,1,263,0.530123949050903,cat,cat,bw,bw_cat_40_n02125311_31318.png,True,-1.1694099130111115,0.036906711757183,1.0,-0.004048305373752231,24.880742110311985,9,4.425,7,27.343491497833575,9
subject-02,1,264,0.783896923065186,dog,dog,cr,cr_dog_40_n02107683_3640.png,True,0.12775494836564952,0.6109566688537598,1.0,-0.10970108721338281,25.964466273784637,9,4.395634920634921,8,24.83307995662761,9
subject-02,1,265,0.823652982711792,chair,chair,cr,cr_chair_40_n02791124_4528.png,True,0.3309687216237642,0.0549554340541362,1.0,-0.00637742600862301,23.771186999976635,8,4.924145299145299,7,24.64750796961879,8
subject-02,1,266,0.669428825378418,bicycle,bicycle,cr,cr_bicycle_40_n02835271_8982.png,True,-0.4573506746608628,0.027624275535345,1.0,-0.0029381122481734762,24.600427348166704,9,8.25,6,17.844909584561194,8
subject-02,1,267,0.579097986221313,bear,bear,bw,bw_bear_40_n02134418_1043.png,True,-0.9190782912772708,0.018789617344737,1.0,-0.0018943001303824904,24.14782545703929,9,9.333333333333334,4,15.209462424151436,9
subject-02,1,268,0.571008920669556,airplane,airplane,bw,bw_airplane_40_n02690373_1442.png,True,-0.9604256870583594,0.0104445237666368,1.0,-0.000985034509636475,24.766497259028256,9,6.328088578088578,5,24.223085462696048,8
subject-02,1,269,0.755275964736938,clock,clock,bw,bw_clock_40_n04548280_7813.png,True,-0.018541565621069428,0.0955936163663864,1.0,-0.01242245219827602,26.778973028063774,10,3.6706709956709953,8,32.32762917731324,9
subject-02,1,270,0.814617872238159,elephant,elephant,bw,bw_elephant_40_n02504458_6336.png,True,0.2847856011769262,0.0387800671160221,1.0,-0.0043408775267771175,25.498353604227304,9,5.866666666666667,1,23.15512781350262,9
subject-02,1,271,0.846459150314331,elephant,elephant,cr,cr_elephant_40_n02504013_14918.png,True,0.4475428341808315,0.0225221067667007,1.0,-0.0023207751565499164,23.79935247451067,9,8.416666666666666,1,17.192002943090273,0
subject-02,1,272,0.692345857620239,keyboard,keyboard,cr,cr_keyboard_40_n04505470_996.png,True,-0.3402098756195297,0.0133408373221755,1.0,-0.0013449291469227872,24.43699010554701,9,4.998484848484848,6,26.7191434327797,6
subject-02,1,273,0.912322044372559,chair,chair,cr,cr_chair_40_n04099969_23961.png,True,0.784202134379225,1.6840888261795044,1.0,-0.5383220717517853,29.884283423423767,10,3.16511544011544,9,31.220551505827295,10
subject-02,1,274,0.625852823257446,clock,clock,bw,bw_clock_40_n04548280_3330.png,True,-0.6800901486736579,0.1200373619794845,1.0,-0.015735035891810537,25.31850078701973,9,5.089260739260739,6,26.67117281320528,6
subject-02,1,275,0.593743085861206,clock,clock,cr,cr_clock_40_n02708093_2394.png,True,-0.8442196160459143,0.0461340583860874,1.0,-0.005210779562995048,24.19329311326146,9,4.976190476190476,6,27.955907619247977,6
subject-02,1,276,1.36170721054077,bear,bear,cr,cr_bear_40_n02132136_8896.png,True,3.081242034083247,0.0361325480043888,1.0,-0.003931132925516278,24.66238629259169,9,9.083333333333332,4,17.11512219675903,9
subject-02,1,277,0.727567911148071,airplane,airplane,cr,cr_airplane_40_n02690373_2059.png,True,-0.16017175154701332,0.0115189813077449,1.0,-0.0011068148960740238,22.72208602586761,9,7.149242424242424,4,20.119479536186326,3
subject-02,1,278,1.189453125,keyboard,keyboard,cr,cr_keyboard_40_n04505470_4878.png,True,2.2007623539282686,0.0839847922325134,1.0,-0.01030461149006697,26.06911313533783,9,5.237373737373737,6,27.321807172790322,9
subject-02,1,279,0.715166807174683,oven,oven,cr,cr_oven_40_n04111531_18430.png,True,-0.2235602048645572,0.009751028381288,1.0,-0.00091457453273849,22.836728905211203,8,5.222222222222222,6,23.75891321775356,5
subject-02,1,280,0.855238914489746,bird,bird,bw,bw_bird_40_n01614925_267.png,True,0.4924207476929369,0.4784099757671356,1.0,-0.08067499491461862,25.79963044822216,9,3.699404761904762,8,31.37121313432818,9
subject-02,1,281,0.778928995132446,dog,dog,cr,cr_dog_40_n02106662_9600.png,True,0.10236130046743099,0.1735032200813293,1.0,-0.024136292441038362,25.70051220059395,9,5.433333333333334,6,24.600686966375754,9
subject-02,1,282,0.842394828796387,elephant,elephant,bw,bw_elephant_40_n02504458_3485.png,True,0.4267679857995469,0.0400979556143283,1.0,-0.004440436220825407,24.28376438608393,9,7.894444444444445,1,20.19445404397899,1
subject-02,1,283,0.728256940841675,knife,knife,bw,bw_knife_40_n03041632_10000.png,True,-0.1566497645802763,0.0127065479755401,1.0,-0.001227595590644426,23.703658189624548,9,5.184523809523809,8,22.28131461250958,9
subject-02,1,284,0.596235990524292,cat,cat,bw,bw_cat_40_n02123159_4879.png,True,-0.8314770915738823,0.165943443775177,1.0,-0.022489679404561615,24.75037968158722,9,5.292099567099567,6,24.760654945396023,5
subject-02,1,285,0.69390606880188,oven,oven,bw,bw_oven_40_n04111531_7189.png,True,-0.33223482969900603,0.0132177798077464,1.0,-0.00133776698904326,25.66861459892243,9,5.228113553113553,6,25.530925894704776,6
subject-02,1,286,0.571978092193604,bicycle,bicycle,cr,cr_bicycle_40_n02835271_14383.png,True,-0.9554717503733157,0.0173087138682603,1.0,-0.0017231639589557072,22.51301120588323,8,8.75,3,15.213102846500782,8
subject-02,1,287,0.643878936767578,elephant,elephant,cr,cr_elephant_40_n02504458_1661.png,True,-0.5879493636930785,0.0343585014343261,1.0,-0.0037031108959611455,23.91763286665082,9,8.416666666666666,1,18.060449125817335,0
subject-02,1,288,0.811444044113159,airplane,airplane,bw,bw_airplane_40_n02690373_1800.png,True,0.26856252487894505,0.0124235786497592,1.0,-0.0011976377536122304,25.00776569917798,9,7.16068931068931,4,22.47507084923468,9
subject-02,1,289,0.555277824401855,car,car,cr,cr_car_40_n03100240_3286.png,True,-1.0408354524743106,0.0270293597131967,1.0,-0.003087752852435188,24.281104976311326,9,5.081089743589743,6,30.089267333577144,5
subject-02,1,290,0.567173004150391,elephant,elephant,bw,bw_elephant_40_n02504458_5444.png,True,-0.9800330394139947,0.0272982139140367,1.0,-0.0028816814945216017,23.812791803269647,9,7.477777777777778,1,19.234420814486626,5
subject-02,1,291,0.638883829116821,cat,cat,cr,cr_cat_40_n02123159_1794.png,True,-0.6134819411809855,0.0801934450864791,1.0,-0.009720568231989824,25.11654664389789,9,4.308080808080808,7,28.503707358830017,8
subject-02,1,292,0.526689052581787,cat,cat,bw,bw_cat_40_n02124075_12369.png,True,-1.1869674445784943,0.1251174807548523,1.0,-0.017134597419780913,24.93090681731701,9,4.725,7,26.068154845587948,9
subject-02,1,293,1.01238918304443,knife,knife,cr,cr_knife_40_n03041632_29125.png,True,1.295697011120359,0.010687967762351,1.0,-0.0010136136800707968,24.324323928449303,9,5.844877344877345,6,21.50528854142573,5
subject-02,1,294,0.784230947494507,oven,oven,bw,bw_oven_40_n04111531_14329.png,True,0.12946231990211654,0.0511737391352653,1.0,-0.006509643857037445,26.864513210952282,10,3.686381673881674,8,30.796160617391863,6
subject-02,1,295,0.716336011886597,truck,truck,bw,bw_truck_40_n03796401_1710.png,True,-0.21758379514661103,0.0595705173909664,1.0,-0.007016420862512235,25.338663097471,9,6.076190476190476,6,22.22539524581709,9
subject-02,1,296,1.07961511611938,clock,clock,cr,cr_clock_40_n02708093_6696.png,True,1.6393235083736992,0.0263012498617172,1.0,-0.0027617169457844677,23.109342746436596,9,5.862337662337662,5,25.67253880009566,6
subject-02,1,297,0.875761985778809,bear,bear,bw,bw_bear_40_n02134084_32585.png,True,0.5973247747159426,0.024018608033657,1.0,-0.002491117340112391,23.930623750202358,9,10.583333333333332,4,14.98291617615774,8
subject-02,1,298,1.0454888343811,boat,airplane,bw,bw_airplane_40_n02690373_3620.png,False,1.4648864403908455,0.0207916535437107,1.0,-0.002121252993545897,24.646794782951474,9,5.348290598290598,6,24.540376557358528,3
subject-02,1,299,0.74522590637207,dog,dog,cr,cr_dog_40_n02099849_8726.png,True,-0.0699126094303235,0.4674422442913055,1.0,-0.08009804218302864,26.790517777204514,10,3.1801587301587295,9,29.442710296997003,9
subject-02,1,300,1.14921402931213,car,car,bw,bw_car_40_n04285008_9404.png,True,1.9950795337515845,0.6441537737846375,1.0,-0.38178028677503256,25.259283632040024,8,4.952457264957265,6,31.06212248501387,8
subject-02,1,301,1.35509490966797,bicycle,dog,cr,cr_dog_40_n02110185_7540.png,False,3.0474431460087272,1.013951539993286,0.5,-1.404066432867436,27.520055294036865,9,1.8079365079365077,9,33.28155096223616,10
subject-02,1,302,0.830728054046631,clock,clock,bw,bw_clock_40_n04548280_5456.png,True,0.3671330687648847,0.0262887924909591,1.0,-0.002757413552236116,25.272417820990086,9,4.981623931623932,6,28.41076335046622,8
subject-02,1,303,0.744483947753906,car,car,bw,bw_car_40_n04285008_658.png,True,-0.07370514349277164,0.021134678274393,1.0,-0.0022018933858244643,23.961234264075756,8,5.014423076923077,6,28.583749624490455,8
subject-02,1,304,0.58040714263916,chair,chair,bw,bw_chair_40_n04099969_9847.png,True,-0.9123865160404742,0.0623032599687576,1.0,-0.007308962192364464,25.491058848798275,9,4.1186868686868685,8,26.146604024920595,6
subject-02,1,305,0.636094808578491,keyboard,keyboard,bw,bw_keyboard_40_n03085013_20161.png,True,-0.6277380669722847,0.0406957790255546,1.0,-0.004489830111397816,23.39652564097196,9,5.092929292929293,6,23.722482060628028,6
subject-02,1,306,0.620043992996216,car,car,cr,cr_car_40_n04285008_901.png,True,-0.7097820830880189,0.0378165654838085,1.0,-0.004163815657916751,24.238244358450174,9,5.229166666666666,6,30.12517957563731,4
subject-02,1,307,0.619801044464111,boat,boat,bw,bw_boat_40_n04612504_1748.png,True,-0.7110239186309637,0.1336399912834167,1.0,-0.017467780215469842,25.45128294825554,9,5.660714285714286,7,21.834990382924627,9
subject-02,1,308,0.755855083465576,clock,clock,cr,cr_clock_40_n02708093_6610.png,True,-0.015581390416155723,0.0431409180164337,1.0,-0.004804810962447823,22.29787732148543,8,5.121861471861472,6,25.790518261511007,6
subject-02,1,309,0.683475017547607,chair,chair,cr,cr_chair_40_n04429376_21546.png,True,-0.38555332512516355,0.0004155280767008,1.0,-2.99815857652723e-05,23.281127218622714,8,5.499242424242424,6,23.39063611068774,8
subject-02,1,310,0.763607025146484,bottle,bottle,bw,bw_bottle_40_n04560804_15679.png,True,0.02404279098052023,0.0515931695699691,1.0,-0.005965407192186599,25.87446056306362,9,4.697557997557997,7,25.57535880483607,9
subject-02,1,311,0.669354915618896,knife,knife,bw,bw_knife_40_n03041632_35365.png,True,-0.4577284656503764,0.0096044484525918,1.0,-0.0009044921817060725,25.0269859675318,9,6.742857142857143,5,20.383675004414254,5
subject-02,1,312,0.565093994140625,bottle,keyboard,cr,cr_keyboard_40_n03085013_3489.png,False,-0.9906599343447653,0.369381844997406,1.0,-0.06944901063977553,27.033677399158478,9,2.804813242313242,9,33.382079837080205,9
subject-02,1,313,0.690732002258301,chair,chair,bw,bw_chair_40_n03376595_17859.png,True,-0.3484591246775979,0.1025192216038703,1.0,-0.012946243689087159,25.405478980392218,9,4.9810606060606055,7,23.868267303998053,7
subject-02,1,314,0.692460060119629,bird,bird,cr,cr_bird_40_n02056570_6364.png,True,-0.33962612760670247,0.5467585921287537,1.0,-0.09502662111105004,26.49012539535761,9,2.9703754578754573,8,34.02302267010387,9
subject-02,1,315,0.910429954528809,truck,truck,cr,cr_truck_40_n03417042_2778.png,True,0.7745306850477363,0.0660977512598037,1.0,-0.007875497780627405,25.316766932606697,9,5.209523809523809,8,22.681122108531202,9
subject-02,1,316,0.758121013641357,bird,bird,bw,bw_bird_40_n01537544_2875.png,True,-0.003999049886107844,0.8101813197135925,1.0,-0.16056619766099944,27.454282343387604,9,4.120375457875458,7,31.648992235205494,9
subject-02,1,317,0.860109090805054,bottle,bottle,cr,cr_bottle_40_n04560804_15293.png,True,0.5173147365405099,0.1433425098657608,1.0,-0.019434508824671185,27.94401289522648,10,2.3876123876123874,9,34.382487810373554,9
subject-02,1,318,0.779775857925415,elephant,elephant,cr,cr_elephant_40_n02504013_10351.png,True,0.10669005399886515,0.0212226286530494,1.0,-0.002164917465358025,24.300845336169004,9,9.0,1,18.317302051464637,0
subject-02,1,319,0.875296115875244,keyboard,keyboard,bw,bw_keyboard_40_n03085013_22820.png,True,0.5949434728014074,0.1377009451389312,1.0,-0.018971819120097023,25.204426035284996,9,4.49491341991342,6,27.36610976247084,9
subject-02,1,320,0.619395017623901,airplane,airplane,bw,bw_airplane_40_n02690373_9812.png,True,-0.7130993317120531,0.0196297690272331,1.0,-0.002004963078894988,24.00781155540608,9,6.445609945609945,5,23.128937340101004,3
subject-02,1,321,0.764209985733032,keyboard,keyboard,bw,bw_keyboard_40_n04505470_464.png,True,0.027124834246566035,0.0253927074372768,1.0,-0.0026601737490931057,25.163345459848642,9,5.9393939393939394,5,24.287993844693826,9
subject-02,1,322,0.739886045455933,car,car,bw,bw_car_40_n02814533_95054.png,True,-0.09720739908220433,0.0771456062793731,1.0,-0.011509355807817421,25.855714917182922,9,4.228708791208791,8,30.8202139218643,9
subject-02,1,323,0.667656898498535,boat,boat,bw,bw_boat_40_n02951358_34662.png,True,-0.4664079089642435,0.0463197752833366,1.0,-0.005281303231219706,25.24760965257883,9,5.7178571428571425,7,22.348629690142467,9
subject-02,1,324,0.903542995452881,truck,truck,bw,bw_truck_40_n03796401_1853.png,True,0.7393278769089513,0.0829646289348602,1.0,-0.010122095195645704,25.633913150057197,9,5.276190476190476,7,22.93487477826869,9
subject-02,1,325,0.755325078964233,car,car,bw,bw_car_40_n03100240_23849.png,True,-0.018290517415136126,0.6782686114311218,1.0,-0.3790777238267682,26.35022270679474,9,4.129166666666666,7,32.863750003994895,8
subject-02,1,326,,na,chair,cr,cr_chair_40_n04429376_20906.png,False,,0.0011178564745932,1.0,-8.678812877366851e-05,24.358389794128016,9,4.9,7,24.56433015870739,8
subject-02,1,327,0.769207954406738,truck,truck,cr,cr_truck_40_n03417042_10283.png,True,0.052672035901807204,0.0514359101653099,1.0,-0.005867795003296662,23.699188807979226,9,5.126190476190476,7,21.743090117071063,8
subject-02,1,328,0.594758987426758,cat,dog,bw,bw_dog_40_n02093256_7181.png,False,-0.83902681796105,0.983462929725647,1.0,-0.22003618725213686,28.51764714717865,10,2.6377344877344875,9,31.311425288094664,9
subject-02,1,329,0.782670021057129,cat,bird,cr,cr_bird_40_n02013706_2849.png,False,0.1214836179397606,0.8830982446670532,1.0,-0.18018524951149195,27.12394118309021,9,4.161385836385836,7,30.7850483531868,9
subject-02,1,330,0.810474157333374,bicycle,bicycle,bw,bw_bicycle_40_n03792782_4591.png,True,0.26360493215206915,0.0444729328155517,1.0,-0.005233607835577956,24.565404694527388,9,7.5,3,18.04715789023776,9
subject-02,1,331,0.692572116851807,clock,clock,cr,cr_clock_40_n02708093_57.png,True,-0.3390533477193778,0.0353272184729576,1.0,-0.0038585503435748856,24.816263247281313,9,5.029004329004328,6,27.33611200469044,6
subject-02,1,332,1.50013089179993,knife,knife,cr,cr_knife_40_n03041632_6708.png,True,3.788797028894056,0.0153647661209106,1.0,-0.0016433382952967034,26.41778814792633,9,4.451190476190476,8,26.059101707497216,9
subject-02,1,333,0.925979137420654,boat,boat,bw,bw_boat_40_n03344393_547.png,True,0.8540105971572374,0.097828671336174,1.0,-0.012440436570219388,25.517686918377876,9,6.712301587301587,4,22.244740818753588,9
subject-02,1,334,0.670026063919067,elephant,elephant,bw,bw_elephant_40_n02504013_8638.png,True,-0.45429787972949115,0.0761488378047943,1.0,-0.009488394276928762,24.740136109292507,9,7.333333333333333,1,20.523116626160444,9
subject-02,1,335,0.609561920166016,bottle,bottle,bw,bw_bottle_40_n02823428_6767.png,True,-0.763361376164997,0.0413225069642066,1.0,-0.004593655042299797,24.791907664388418,9,4.6459706959706955,7,24.260181209630673,0
subject-02,1,336,0.543305158615112,clock,clock,bw,bw_clock_40_n03196217_5365.png,True,-1.1020339367333034,0.0081053916364908,1.0,-0.0007678833623981205,23.87067230604589,9,4.280952380952381,7,28.144613493207874,8
subject-02,1,337,0.645175933837891,car,car,bw,bw_car_40_n02814533_32461.png,True,-0.581319741167459,0.0401793792843818,1.0,-0.0054472961487970414,24.861311800777912,9,5.050595238095238,6,29.885782994322945,5
subject-02,1,338,0.918921947479248,knife,knife,cr,cr_knife_40_n03041632_20707.png,True,0.8179376510619686,0.0192507691681385,1.0,-0.0020301073125815563,26.108513612300158,9,4.839423076923077,7,27.282550107131055,9
subject-02,1,339,0.562814950942993,bird,bird,bw,bw_bird_40_n02009912_1919.png,True,-1.002309302308438,0.5992118120193481,1.0,-0.10848412925098457,26.460924685001373,9,4.099542124542125,7,31.915459125195373,9
subject-02,1,340,0.680663824081421,bird,bird,cr,cr_bird_40_n02002556_15337.png,True,-0.3999227882133139,0.6913421750068665,1.0,-0.1353232480897673,26.135276675224304,9,3.0896825396825394,8,34.79462440020866,9
subject-02,1,341,0.582329988479614,cat,cat,bw,bw_cat_40_n02125311_17543.png,True,-0.9025578569101249,0.001271583372727,1.0,-9.91274372236531e-05,24.71623552229721,9,4.725,7,26.408192270710025,8
subject-02,1,342,0.772277116775513,keyboard,knife,bw,bw_knife_40_n03041632_85416.png,False,0.06836011141141929,2.6847755908966064,1.0,-2.0731728219912537,30.427673816680908,9,5.544444444444444,5,26.690463989023318,5
subject-02,1,343,0.690047025680542,knife,knife,bw,bw_knife_40_n03041632_20413.png,True,-0.35196039407394064,0.0166901685297489,1.0,-0.001664353858038237,25.19016494974494,9,5.492857142857143,5,22.040189734022295,5
subject-02,1,344,0.891839981079102,oven,oven,bw,bw_oven_40_n04111531_12702.png,True,0.6795077204213703,0.0438710711896419,1.0,-0.0063143227448497945,26.30428096279502,9,4.220039682539682,7,28.686515453266438,6
subject-02,1,345,0.755614995956421,keyboard,keyboard,bw,bw_keyboard_40_n03085013_7992.png,True,-0.016808601791760015,0.0317005477845668,1.0,-0.003395235022596178,22.997691597789526,9,5.932575757575758,5,22.158079819765895,6
subject-02,1,346,0.575538158416748,cat,cat,bw,bw_cat_40_n02123045_3568.png,True,-0.9372744114849876,0.0700067356228828,1.0,-0.008289686822532966,24.082263285294175,9,4.733766233766234,7,25.121497902868413,7
subject-02,1,347,0.705537080764771,truck,truck,cr,cr_truck_40_n03796401_9384.png,True,-0.27278271475604227,0.0323112644255161,1.0,-0.0035849619670947764,25.264949027448893,9,5.459523809523809,8,23.2185167890399,9
subject-02,1,348,0.731005907058716,bicycle,bicycle,cr,cr_bicycle_40_n03792782_3296.png,True,-0.1425983771316794,0.0365226194262504,1.0,-0.004019878722753506,23.70059311389923,9,9.583333333333332,2,15.220566649934323,8
subject-02,1,349,0.614789962768555,elephant,elephant,cr,cr_elephant_40_n02504458_1179.png,True,-0.736638147719825,0.0249012783169746,1.0,-0.0026265275127306275,23.647588443011045,9,8.0,1,19.059921429526018,8
subject-02,1,350,0.844663858413696,knife,knife,cr,cr_knife_40_n03041632_18859.png,True,0.43836616917753973,0.1484835743904113,1.0,-0.03125346406515289,26.935211718082428,9,3.9305555555555554,8,27.052267657873728,9
subject-02,1,351,0.73241400718689,knife,knife,bw,bw_knife_40_n03041632_101553.png,True,-0.1354008494411833,0.0169890094548463,1.0,-0.0017279405657151762,26.120743887498975,9,4.794444444444444,8,23.481590173709574,9
subject-02,1,352,0.676265001296997,bear,bear,bw,bw_bear_40_n02134418_7795.png,True,-0.42240744549229275,0.0388291478157043,1.0,-0.004280057609624309,23.737270146608353,9,9.333333333333334,4,15.276597531054998,9
subject-02,1,353,0.586132049560547,cat,cat,cr,cr_cat_40_n02123045_7646.png,True,-0.8831235572012962,0.1029165610671043,1.0,-0.013247350267086497,25.524840883910656,9,4.258080808080808,7,29.225553821602126,9
subject-02,1,354,0.771910905838013,car,oven,bw,bw_oven_40_n04111531_978.png,False,0.06648821799242148,1.3937726020812988,1.0,-0.3595639096720616,29.580498695373535,10,4.219047619047618,7,31.76640063276211,10
subject-02,1,355,0.937835931777954,truck,truck,cr,cr_truck_40_n04467665_3125.png,True,0.9146168026391269,0.3670799732208252,1.0,-0.09376512224688358,26.435264945030212,9,4.152380952380952,9,23.852403690576807,9
subject-02,1,356,0.895593881607056,dog,dog,bw,bw_dog_40_n02106662_50272.png,True,0.6986958466467088,1.8728089332580569,1.0,-0.5982220992273521,28.595550060272217,9,3.87063492063492,9,28.0533949328491,9
subject-02,1,357,1.20937490463257,chair,clock,bw,bw_clock_40_n03196217_127.png,False,2.3025928684495134,0.0373246632516384,1.0,-0.004180455026243619,26.663909669965506,9,3.3004329004329,9,30.739313808506978,9
subject-02,1,358,0.801118850708008,boat,boat,bw,bw_boat_40_n03344393_11855.png,True,0.21578512364422167,0.1614830046892166,1.0,-0.022444082123760964,25.139200553297997,9,6.170634920634921,7,21.001564758934,9
subject-02,1,359,0.705125093460083,bird,bird,bw,bw_bird_40_n02009229_2503.png,True,-0.2748885948524171,0.3916690945625305,1.0,-0.06276397353205915,25.630424350500107,9,4.145833333333333,7,30.60590072674521,9
subject-02,1,360,0.648849010467529,airplane,airplane,cr,cr_airplane_40_n02690373_5342.png,True,-0.5625447476693631,0.0293148458003997,1.0,-0.0031065267663811487,23.102435063337907,8,5.934498834498834,6,22.13693745522459,3
subject-02,1,361,0.648688793182373,airplane,airplane,cr,cr_airplane_40_n02690373_7145.png,True,-0.563363701040173,0.0154032744467258,1.0,-0.0015360583414085918,24.483814347535372,9,6.433705183705183,5,24.06924629113008,3
subject-02,1,362,0.640328884124756,knife,knife,cr,cr_knife_40_n03041632_36277.png,True,-0.606095517995732,0.0079831816256046,1.0,-0.0007328691719543896,22.601576980843674,8,6.461111111111111,5,21.14554446396109,5
subject-02,1,363,0.748192071914673,bird,bird,bw,bw_bird_40_n01818515_10536.png,True,-0.05475100394480568,0.3024371862411499,1.0,-0.04670525564356178,28.520841002464294,10,2.917063492063492,8,35.849950916238086,8
subject-02,1,364,0.637962818145752,knife,knife,cr,cr_knife_40_n03041632_14293.png,True,-0.6181897043825388,0.0225342959165573,1.0,-0.0023554865200651606,26.27190224826336,9,4.580158730158731,5,25.743555761048853,9
subject-02,1,365,0.843941926956177,bottle,bottle,bw,bw_bottle_40_n04591713_2680.png,True,0.4346760042864453,0.0537803061306476,1.0,-0.006283252448722292,26.207425821572542,9,4.109462759462759,8,26.66205415235517,9
subject-02,1,366,0.848000049591064,chair,chair,cr,cr_chair_40_n04099969_7998.png,True,0.45541916697183377,0.0220279153436422,1.0,-0.0022690389405062112,23.860420233977493,8,5.519444444444444,0,23.60269379599061,8
subject-02,1,367,0.629465103149414,truck,truck,cr,cr_truck_40_n04467665_64492.png,True,-0.6616259187314458,0.0025611603632569,1.0,-0.00021197658226948234,23.545098793460056,9,6.376190476190476,5,19.933356637624218,8
subject-02,1,368,0.641331911087036,dog,dog,cr,cr_dog_40_n02102177_5870.png,True,-0.6009685286638817,0.4683358371257782,1.0,-0.07808699617390401,26.28061267733574,9,5.437301587301587,6,24.61848324792746,9
subject-02,1,369,0.913039207458496,car,car,bw,bw_car_40_n04285008_2906.png,True,0.7878679256580929,0.1048759371042251,1.0,-0.013792241798732825,25.423694744706154,9,4.92275641025641,6,31.08749194158865,9
subject-02,1,370,0.710880041122437,boat,boat,cr,cr_boat_40_n03344393_8160.png,True,-0.2454720822562108,0.0900425985455513,1.0,-0.011198163410940055,23.877816535532475,9,6.301190476190476,5,19.858870223627974,9
subject-02,1,371,0.76865291595459,airplane,airplane,bw,bw_airplane_40_n02690373_4233.png,True,0.049834947438640906,0.0237499792128801,1.0,-0.0024555050002655655,23.790006674826145,8,7.171800421800421,4,21.61737343497659,8
subject-02,1,372,0.932969093322754,truck,truck,bw,bw_truck_40_n03417042_3236.png,True,0.889739875320116,0.0703972950577735,1.0,-0.008667070859567508,27.016223944723606,9,5.059523809523809,7,24.193791289285272,9
subject-02,1,373,1.40825414657593,dog,dog,cr,cr_dog_40_n02100583_1267.png,True,3.319167487193802,1.0040370225906372,1.0,-0.2175727856615658,27.337223768234253,9,3.6273809523809524,9,25.94059008627465,9
subject-02,1,374,0.714264869689941,dog,dog,bw,bw_dog_40_n02106550_12642.png,True,-0.2281704736172101,0.2040012776851654,1.0,-0.029383370762603386,25.439952582120895,9,3.7178571428571425,9,25.543471678521108,9
subject-02,1,375,0.586076974868774,bicycle,bicycle,bw,bw_bicycle_40_n02835271_8137.png,True,-0.8834050724225155,0.0148874055594205,1.0,-0.0014687829066499338,24.629855875857174,9,8.75,2,17.695215042532986,8
subject-02,1,376,0.645742893218994,bicycle,bicycle,cr,cr_bicycle_40_n02835271_7351.png,True,-0.5784217186737264,0.0215089805424213,1.0,-0.002216289873272821,23.444890346378088,8,7.916666666666666,3,17.12944006487087,8
subject-02,1,377,0.791425943374634,bottle,bottle,cr,cr_bottle_40_n04560804_3683.png,True,0.16623966339073445,0.1140647381544113,1.0,-0.014687888666870767,25.56353633105755,9,4.433705183705183,7,27.865111630173,9
subject-02,1,378,0.581365823745728,oven,oven,cr,cr_oven_40_n04111531_8687.png,True,-0.9074862013023267,0.0011796276085078,1.0,-9.31663996382801e-05,23.51704688044265,8,5.228571428571428,6,23.750555167889026,6
subject-02,1,379,0.865216016769409,airplane,airplane,bw,bw_airplane_40_n02690373_19104.png,True,0.543418875235125,0.0114148529246449,1.0,-0.0010920763534931594,23.03442212101072,9,7.709498834498834,3,19.387963125174466,3
subject-02,1,380,0.649185180664062,bicycle,bicycle,bw,bw_bicycle_40_n03792782_49707.png,True,-0.5608264080073936,0.033637523651123,1.0,-0.0036569264629662357,25.40199474617839,9,7.283333333333333,6,19.655830473998787,9
subject-02,1,381,0.67087197303772,bottle,bottle,bw,bw_bottle_40_n02823428_10814.png,True,-0.44997400092050116,0.2233984470367431,1.0,-0.03527982875211689,27.333500385284424,9,4.523351648351648,7,26.991622461928944,9
subject-02,1,382,0.616798162460327,oven,oven,cr,cr_oven_40_n04111531_12929.png,True,-0.7263732009306224,0.0151471644639968,1.0,-0.001507762709118005,25.482806019484997,9,5.12979797979798,6,25.872079800962688,9
subject-02,1,383,0.844481945037842,dog,dog,bw,bw_dog_40_n02095570_513.png,True,0.4374363158711003,1.110975742340088,1.0,-0.24657973698169874,26.97974318265915,9,3.9063492063492062,8,27.267544177153987,9
subject-02,1,384,1.0542778968811,dog,clock,cr,cr_clock_40_n03196217_10578.png,False,1.5098118824467932,1.8625867366790771,1.0,-1.0156206333088282,29.966225385665894,10,1.5606532356532352,10,37.15378121887267,10
subject-02,1,385,0.78823184967041,cat,keyboard,cr,cr_keyboard_40_n03085013_20398.png,False,0.14991299924078885,0.7123824954032898,1.0,-0.3967102495376361,27.170597314834595,9,4.833578921078921,6,32.122702830921455,9
subject-02,1,386,1.30781316757202,elephant,elephant,cr,cr_elephant_40_n02504013_7026.png,True,2.805761719254068,0.0200664009898901,1.0,-0.0020438443343810007,23.39608739130199,9,8.033333333333333,1,18.083610018310804,0
subject-02,1,387,0.675965070724487,dog,dog,bw,bw_dog_40_n02088466_5521.png,True,-0.42394054570134293,0.4212787747383117,1.0,-0.06953309506774683,26.25160977244377,9,3.9718253968253965,8,27.96093007834037,9
subject-02,1,388,0.593463182449341,chair,chair,cr,cr_chair_40_n04099969_13948.png,True,-0.8456503470836108,0.1493791192770004,1.0,-0.020399767524020944,26.743335708975792,9,4.415909090909091,8,26.35129094323275,9
subject-02,1,389,0.579275131225586,car,car,bw,bw_car_40_n04285008_5548.png,True,-0.9181728115830523,0.0485365092754364,1.0,-0.005751248457178216,25.529160857200623,9,4.230296092796093,7,30.917323097563465,9
subject-02,1,390,0.82542610168457,bear,bear,cr,cr_bear_40_n02134084_20500.png,True,0.34003204933019915,0.0387576855719089,1.0,-0.00427257509976648,23.46252110466594,9,9.583333333333332,4,14.272025575460166,4
subject-02,1,391,0.602994918823242,boat,boat,cr,cr_boat_40_n03662601_15143.png,True,-0.7969287149233827,0.0282999165356159,1.0,-0.0030096715013130148,23.921293685911223,9,7.041666666666666,5,20.565962475721932,9
subject-02,1,392,0.720753908157349,chair,chair,bw,bw_chair_40_n02791124_4306.png,True,-0.19500164341872717,0.1723515093326568,1.0,-0.026972554148266076,26.80920758843422,9,4.500213675213676,7,27.984469378088356,9
subject-02,1,393,0.670682907104492,knife,knife,cr,cr_knife_40_n03041632_29276.png,True,-0.4509404146452855,0.0117760002613067,1.0,-0.0011250742824732215,24.794680543243885,9,6.852777777777778,5,19.96380626739928,5
subject-02,1,394,0.626259088516235,bicycle,bicycle,cr,cr_bicycle_40_n02835271_10469.png,True,-0.6780135169119572,0.0258552357554435,1.0,-0.0027042203556691623,23.963975965976715,9,9.083333333333332,2,15.892564385791246,8
subject-02,1,395,0.722210884094238,bottle,chair,cr,cr_chair_40_n02791124_7942.png,False,-0.1875542862029131,0.0463447570800781,1.0,-0.0052499055038612175,25.94635573029518,9,3.9194444444444443,8,28.080090029459644,9
subject-02,1,396,0.63189697265625,oven,oven,cr,cr_oven_40_n04111531_5519.png,True,-0.6491953764959129,0.0168902836740016,1.0,-0.0016827428377381576,25.171614571940154,9,5.247222222222222,6,24.94197874820585,5
subject-02,1,397,0.593820095062256,bear,bear,cr,cr_bear_40_n02134084_23974.png,True,-0.8438259822084553,0.0296214781701564,1.0,-0.003162910416536673,24.123993383720517,9,9.416666666666666,4,14.900134328245175,9
subject-02,1,398,0.618088960647583,chair,oven,bw,bw_oven_40_n04111531_615.png,False,-0.7197752641008991,2.13895583152771,0.3333333333333333,-1.796928428268192,29.515875339508057,9,2.045436507936508,7,33.97409879098789,6
subject-02,1,399,0.623544931411743,cat,keyboard,bw,bw_keyboard_40_n03085013_3910.png,False,-0.6918869769912993,0.1165211051702499,1.0,-0.020580275481933717,26.191063448786736,9,4.7012626262626265,6,26.961116160617408,9
subject-02,1,400,0.653291940689087,airplane,airplane,bw,bw_airplane_40_n02690373_3493.png,True,-0.5398346344772877,0.01585085503757,1.0,-0.0015737870966166655,23.40648539713584,8,7.66068931068931,3,20.61400059619002,3
subject-02,1,401,0.701481103897095,clock,clock,bw,bw_clock_40_n04548280_4473.png,True,-0.2935149093159333,0.1892540454864502,1.0,-0.03031625995582531,27.040889263153076,9,3.593986568986569,8,32.27197805315625,9
subject-02,1,402,0.735055923461914,oven,oven,bw,bw_oven_40_n04111531_887.png,True,-0.12189664958707433,0.0193833168596029,1.0,-0.001990987697425077,25.177335461601615,9,5.098611111111111,6,26.983545370191717,6
subject-02,1,403,0.53880500793457,bicycle,bicycle,cr,cr_bicycle_40_n02835271_8322.png,True,-1.1250365332720949,0.0181946530938148,1.0,-0.001836972819187875,23.610569819808006,8,8.75,3,16.442412725136794,8
subject-02,1,404,0.82660698890686,dog,dog,cr,cr_dog_40_n02089867_2298.png,True,0.34606817439810034,0.6698819994926453,1.0,-0.12397789599332207,25.46620985865593,9,5.002777777777777,7,23.543499214772588,9
subject-02,1,405,0.606545925140381,boat,boat,cr,cr_boat_40_n04612504_18536.png,True,-0.778777685898281,0.0665439143776893,1.0,-0.00791617000173118,24.079294707160443,9,5.8273809523809526,6,21.200851420234134,8
subject-02,1,406,0.648355007171631,bicycle,bicycle,cr,cr_bicycle_40_n02835271_8502.png,True,-0.5650698538960298,0.033233281224966,1.0,-0.0036130771553819505,22.925316732376814,8,8.916666666666666,3,15.999392268777154,8
subject-02,1,407,1.02241492271423,keyboard,keyboard,cr,cr_keyboard_40_n04505470_665.png,True,1.3469437495072594,0.0557447224855423,1.0,-0.0064677089894397445,24.434942917432636,9,4.963203463203463,6,26.562330314982386,6
subject-02,1,408,0.582095146179199,boat,bear,bw,bw_bear_40_n02132136_10654.png,False,-0.9037582573122817,1.0690789222717283,0.3333333333333333,-3.8951389060195454,27.885701417922974,9,4.916666666666666,5,26.933902713717675,4
subject-02,1,409,0.591752767562866,elephant,elephant,bw,bw_elephant_40_n02504013_257.png,True,-0.8543931617892708,0.0319933220744133,1.0,-0.0034436203477851684,24.785796883050352,9,7.433333333333334,1,20.487746861716914,0
subject-02,1,410,0.579786062240601,truck,truck,bw,bw_truck_40_n03417042_22513.png,True,-0.9155611790329774,0.0790123492479324,1.0,-0.009779974428254129,25.33543512225151,9,5.326190476190476,8,22.842247625666737,9
subject-02,1,411,0.803323984146118,bear,bear,bw,bw_bear_40_n02132136_10134.png,True,0.22705670061838068,0.0522140003740787,1.0,-0.005971703145714328,22.55423417687416,9,10.25,3,13.0556365212718,9
subject-02,1,412,0.769291877746582,boat,boat,bw,bw_boat_40_n03344393_7614.png,True,0.053101011476995905,0.0361934900283813,1.0,-0.003943041040942072,24.97928488254547,9,7.160714285714286,2,20.307849650237195,9
subject-02,1,413,0.578976154327393,chair,chair,cr,cr_chair_40_n02791124_392.png,True,-0.9197010370696542,0.038997396826744,1.0,-0.004293107240783741,24.399852899834514,8,4.653185703185703,7,25.745426982736387,8
subject-02,1,414,1.10676503181458,car,oven,bw,bw_oven_40_n04111531_19000.png,False,1.7781007629885768,0.1768700927495956,1.0,-0.025622761274004376,28.06573413312435,10,3.751388888888889,7,31.078389760775202,6
subject-02,1,415,0.944675207138062,dog,dog,bw,bw_dog_40_n02110063_16336.png,True,0.9495758746556476,0.4139124453067779,1.0,-0.068359045018493,26.380734473466873,9,3.595238095238095,8,28.57843287058438,9
subject-02,1,416,1.00655508041382,knife,knife,cr,cr_knife_40_n03041632_44212.png,True,1.2658758965612207,0.0097803538665175,1.0,-0.0009479245719189281,25.103082372806966,9,5.247557997557998,7,24.72410459350379,5
subject-02,1,417,0.634207010269165,cat,cat,bw,bw_cat_40_n02123597_11613.png,True,-0.6373875800527684,0.0768654346466064,1.0,-0.00932365447789373,25.177782114595175,9,3.6075757575757574,8,28.6504420625488,9
subject-02,1,418,0.725971937179565,airplane,airplane,cr,cr_airplane_40_n02690373_60.png,True,-0.16832959955923485,0.014494040980935,1.0,-0.0014190008048093569,22.9807723662816,9,7.175407925407925,4,19.944481401807877,3
subject-02,1,419,0.784201145172119,clock,clock,bw,bw_clock_40_n04548280_4354.png,True,0.12930998482569958,0.0686205849051475,1.0,-0.00835057078862096,25.85295870155096,9,5.466666666666667,6,27.323046442338526,9
subject-02,1,420,0.547651052474976,oven,oven,cr,cr_oven_40_n04111531_14876.png,True,-1.079819826550036,0.0133157828822731,1.0,-0.0012931837097530537,23.439466448151506,8,5.124145299145299,6,24.18062702307986,8
subject-02,1,421,1.12781095504761,knife,bottle,cr,cr_bottle_40_n04560804_2005.png,False,1.8856773565922078,0.2404831647872924,1.0,-0.03499065689040092,26.865797638893127,9,5.26541514041514,6,25.74023508451946,9
subject-02,1,422,0.731415033340454,chair,chair,bw,bw_chair_40_n02791124_957.png,True,-0.14050712120264447,0.0647577345371246,1.0,-0.007746763382849968,25.458299927413464,9,3.703052503052503,8,29.15073100046149,9
subject-02,1,423,0.637143850326538,truck,truck,cr,cr_truck_40_n04467665_54349.png,True,-0.6223758722824466,0.1674619317054748,1.0,-0.023054087387233822,24.74811912700534,9,6.292857142857143,6,21.23809221024504,0
subject-02,1,424,0.624836206436157,cat,cat,cr,cr_cat_40_n02124075_9206.png,True,-0.6852866028003545,0.0008081406122073,1.0,-6.163310197836393e-05,23.944324828102253,8,4.453185703185703,7,27.728928864738027,8
subject-02,1,425,0.726875782012939,bear,bear,bw,bw_bear_40_n02132136_7647.png,True,-0.1637095813616953,0.0570543557405471,1.0,-0.006617578735632247,24.305586203932762,9,9.416666666666666,4,15.313719857821665,9
subject-02,1,426,0.676660060882568,bottle,keyboard,bw,bw_keyboard_40_n04505470_4107.png,False,-0.42038809171932556,0.0006215123576112,1.0,-5.155934689110619e-05,22.114957909710938,8,5.869119769119769,5,22.032422231321483,5
subject-02,1,427,0.696511030197144,bear,bear,bw,bw_bear_40_n02134418_5405.png,True,-0.31891952533964874,0.030301010236144,1.0,-0.0032332898042190085,24.44137283693999,9,9.916666666666666,3,15.348640982641976,9
subject-02,1,428,0.832216024398804,knife,knife,cr,cr_knife_40_n03041632_8618.png,True,0.37473885446017585,0.336040735244751,1.0,-0.06072949796293765,27.124833345413208,9,4.076923076923077,9,28.262456425144673,9
subject-02,1,429,0.659940958023071,car,car,cr,cr_car_40_n04285008_8093.png,True,-0.5058480695886108,0.1004329472780227,1.0,-0.013008015684926362,24.50844642147422,9,5.275595238095238,6,29.586516712172223,5
subject-02,1,430,0.969852924346924,bear,elephant,bw,bw_elephant_40_n02504458_2556.png,False,1.0782722032535808,0.0900955945253372,1.0,-0.011276886780736252,24.72968477755785,9,6.166666666666666,1,21.75309241321548,9
subject-02,1,431,1.02361607551575,bottle,knife,bw,bw_knife_40_n03041632_5102.png,False,1.3530834624271553,0.3622220754623413,1.0,-0.06487058208238981,27.078716158866882,9,4.474242424242425,8,26.289337941794262,9
subject-02,1,432,0.751394033432007,airplane,airplane,bw,bw_airplane_40_n02690373_3899.png,True,-0.03838412333468801,0.0146439597010612,1.0,-0.0014450256712126434,24.684552542865276,9,6.1038461538461535,5,24.831581913605408,3
subject-02,1,433,0.927592039108276,bicycle,bicycle,cr,cr_bicycle_40_n03792782_7570.png,True,0.8622549714928626,0.0269231051206588,1.0,-0.0028517936141205205,24.206646747887135,9,7.25,3,18.190097194840874,8
subject-02,1,434,0.504937887191772,cat,cat,cr,cr_cat_40_n02123597_660.png,True,-1.2981488954304428,0.1201864928007125,1.0,-0.015630774324267543,25.618423365056515,9,3.326129426129426,8,31.70807535051472,9
subject-02,1,435,0.568905115127563,bear,bear,cr,cr_bear_40_n02134084_5274.png,True,-0.9711793247727102,0.0571742057800293,1.0,-0.006620278756881304,24.1787316724658,9,9.416666666666666,4,15.266790007099736,9
subject-02,1,436,0.868569135665894,dog,dog,cr,cr_dog_40_n02111500_9179.png,True,0.5605583993528273,1.0762817859649658,1.0,-0.23842778853811783,26.718299865722656,9,4.394444444444444,8,25.856428584676475,9
subject-02,1,437,0.814426898956299,car,car,bw,bw_car_40_n04285008_14334.png,True,0.2838094380072557,0.1176311671733856,1.0,-0.016919003503786896,25.253245383501053,9,4.319617882117882,7,31.167120286487144,8
subject-02,1,438,0.558306932449341,airplane,airplane,bw,bw_airplane_40_n02690373_4150.png,True,-1.0253521153074014,0.0108921695500612,1.0,-0.0010342580148186937,22.765764474868774,9,7.699999999999999,3,18.748919524422764,3
subject-02,1,439,0.802299022674561,car,car,bw,bw_car_40_n02814533_45594.png,True,0.22181759267029,0.3500467538833618,1.0,-0.07731027804226125,25.623692482709885,9,4.941468253968254,6,30.940399267832376,9
subject-02,1,440,0.648138046264648,cat,cat,bw,bw_cat_40_n02123394_4877.png,True,-0.56617885325234,0.0727695003151893,1.0,-0.008718477762804431,25.477371729910374,9,4.242063492063492,7,28.834346803716333,9
subject-02,1,441,0.733683109283447,bear,bear,cr,cr_bear_40_n02132136_860.png,True,-0.12891381254709408,0.0198552720248699,1.0,-0.0020219846406451902,23.762688608840108,9,8.833333333333332,4,15.387870004062902,9
subject-02,1,442,0.678050994873047,airplane,airplane,bw,bw_airplane_40_n02690373_2316.png,True,-0.4132783090328433,0.0132161453366279,1.0,-0.0012792182720625812,24.295504854992032,9,6.979700854700854,4,22.69183378414451,8
subject-02,1,443,0.837261915206909,bear,bear,cr,cr_bear_40_n02134084_1090.png,True,0.4005310109182914,0.0317367389798164,1.0,-0.0034009167379838185,24.501261865138076,9,9.75,4,15.478035094533558,9
subject-02,1,444,0.743098974227905,bird,bird,cr,cr_bird_40_n01817953_10964.png,True,-0.08078445916396847,0.1800910234451294,1.0,-0.024926059076403207,25.569630574434996,9,3.171103896103896,8,32.579913325392866,8
subject-02,1,445,0.729430913925171,bottle,bottle,bw,bw_bottle_40_n03983396_3817.png,True,-0.15064898125010417,0.0701149329543113,1.0,-0.008452453040775586,24.037527779582888,8,4.408272283272283,7,25.12144139691778,8
subject-02,1,446,0.661006927490234,car,car,cr,cr_car_40_n02814533_11051.png,True,-0.5003993485753692,0.0443935506045818,1.0,-0.005180941819205585,24.73197202011943,9,5.292200854700854,6,29.020593302785432,9
subject-02,1,447,0.70873498916626,airplane,airplane,cr,cr_airplane_40_n02690373_7387.png,True,-0.2564365517163183,0.0155825484544038,1.0,-0.0015371328748699303,23.54700824432075,9,6.171367521367522,5,22.84700061324127,3
subject-02,1,448,0.726459980010986,bird,bear,cr,cr_bear_40_n02133161_9949.png,False,-0.16583496034784853,0.7162808179855347,0.5,-2.275514621735742,28.276099801063538,10,5.45,9,24.458249767529022,9
subject-02,1,449,0.714409112930298,bicycle,bicycle,cr,cr_bicycle_40_n02835271_26731.png,True,-0.2274331718473546,0.0222522541880607,1.0,-0.002287379302071831,23.312050372362137,9,8.916666666666666,3,15.830324736963865,8
subject-02,1,450,0.582147836685181,bottle,bottle,cr,cr_bottle_40_n04560804_19001.png,True,-0.9034889288971757,0.0124988965690135,1.0,-0.0012274165570801384,24.415301259607077,9,5.476923076923077,6,22.374581319220052,0
subject-02,1,451,0.685804128646851,bicycle,bicycle,bw,bw_bicycle_40_n02835271_4341.png,True,-0.37364803423310844,0.019229270517826,1.0,-0.001979401418135774,24.750329323112965,9,6.833333333333333,6,18.894907046312078,8
subject-02,1,452,0.897640943527222,airplane,boat,cr,cr_boat_40_n03662601_35008.png,False,0.7091594383755598,0.0586341097950935,1.0,-0.007850025917362835,24.197316507808864,9,6.727777777777778,6,20.624431086526453,9
subject-02,1,453,0.737504959106445,clock,knife,bw,bw_knife_40_n03041632_7380.png,False,-0.10937836234752754,0.0180396996438503,1.0,-0.0019324007238365765,25.780715223401785,9,6.035714285714286,5,22.362564479270436,9
subject-02,1,454,1.11544513702393,oven,bottle,bw,bw_bottle_40_n02823428_3298.png,False,1.8224692680051446,0.1770258545875549,1.0,-0.024493439664240686,25.797034174203873,9,3.3086691086691085,8,30.431425067976516,9
subject-02,1,455,0.929461002349854,knife,knife,bw,bw_knife_40_n03041632_29037.png,True,0.8718082088050566,0.024613868445158,1.0,-0.002561449461624975,25.507053240202367,9,4.633333333333333,8,24.79823170147437,9
subject-02,1,456,1.3329918384552,knife,clock,cr,cr_clock_40_n04548280_7153.png,False,2.934462922574454,0.0364854261279106,1.0,-0.004042380594569071,25.69067992269993,9,2.6434274059274054,9,33.90258629836356,9
subject-02,1,457,0.662729024887085,oven,oven,cr,cr_oven_40_n04111531_3570.png,True,-0.4915968185197546,0.0341757237911224,1.0,-0.003869021536798751,24.199648968875408,9,5.162734487734488,6,25.672641418976166,8
subject-02,1,458,0.98466682434082,oven,oven,cr,cr_oven_40_n04111531_9455.png,True,1.1539937043577513,0.0095576476305723,1.0,-0.0009143358960366702,25.41248892666772,9,5.054040404040404,6,27.914964077854766,9
subject-02,1,459,0.862258911132812,knife,knife,cr,cr_knife_40_n03041632_23546.png,True,0.5283035796128381,0.0108952838927507,1.0,-0.001037360668440884,25.649846408050507,9,5.145634920634921,7,24.723147067247613,9
subject-02,1,460,0.68607497215271,oven,oven,bw,bw_oven_40_n04111531_11868.png,True,-0.3722636130586436,0.0080043114721775,1.0,-0.000746051542686823,25.66976187005639,9,4.3220238095238095,7,28.055976418821764,6
subject-02,1,461,1.17190480232239,knife,knife,bw,bw_knife_40_n03041632_21477.png,True,2.1110638048928005,0.0094027165323495,1.0,-0.0008811062913670625,25.482344161253422,9,5.670634920634921,7,22.034412759763015,9
subject-02,1,462,1.11576080322266,elephant,elephant,bw,bw_elephant_40_n02504013_8308.png,True,1.824082801134539,0.0171706136316061,1.0,-0.001713551107014532,23.473638189956546,9,5.408333333333333,8,20.639495052765874,8
subject-02,1,463,0.611745119094849,truck,truck,bw,bw_truck_40_n04467665_12177.png,True,-0.7522019178070783,0.0749334990978241,1.0,-0.009030583404978722,25.129786413162947,9,5.576190476190476,7,22.144061955949436,9
subject-02,1,464,0.503648042678833,keyboard,keyboard,bw,bw_keyboard_40_n03085013_23789.png,True,-1.304741957537718,0.0518950670957565,1.0,-0.006115081731297729,23.750457033514977,9,5.90050505050505,5,22.391824269075755,5
subject-02,1,465,1.48372983932495,elephant,elephant,cr,cr_elephant_40_n02504458_5788.png,True,3.7049627709602575,0.0529149249196052,1.0,-0.006030767116119034,23.366489156149328,9,8.5,1,17.504728222828593,0
subject-02,1,466,0.719162940979004,airplane,airplane,bw,bw_airplane_40_n02690373_4134.png,True,-0.20313389913811142,0.0524074807763099,1.0,-0.006049176599701946,24.897699855268,9,7.698412698412698,3,21.21240471596104,3
subject-02,1,467,0.932723045349121,boat,oven,cr,cr_oven_40_n04111531_8959.png,False,0.8884821969292257,0.3339152932167053,1.0,-0.056579883231089305,27.625440418720245,10,3.34484126984127,8,31.38627951672253,9
subject-02,1,468,0.832798004150391,car,car,cr,cr_car_40_n02814533_83874.png,True,0.37771365383242433,0.7037527561187744,1.0,-0.1845604752581089,27.92378830909729,10,3.1545634920634917,8,36.41443999504534,10
subject-02,1,469,0.740477800369263,oven,oven,cr,cr_oven_40_n04111531_10749.png,True,-0.09418263380489145,0.0019530701683834,1.0,-0.0001586205393198155,22.42851333587896,8,5.238131313131313,6,22.616241869149295,5
subject-02,1,470,0.672341108322144,truck,truck,bw,bw_truck_40_n03417042_29849.png,True,-0.4424644909935049,0.068835511803627,1.0,-0.008204527611868207,25.233458951115608,9,5.40952380952381,7,21.948059490963484,8
subject-02,1,471,0.750246047973633,bicycle,bicycle,bw,bw_bicycle_40_n03792782_67333.png,True,-0.04425207047822554,0.1958591938018798,1.0,-0.02936366732995492,25.994486570358276,9,9.083333333333332,2,18.54525531816775,9
