subject_id,Session,trial,rt,object_response,category,condition,item_id,response_correct,rt_zscore,output_entropy,output_rank_correct,output_logprob_correct,auc_entropy,layer_biggest_change_entropy,auc_rank_correct,layer_biggest_change_rank_correct,auc_logprob_correct,layer_biggest_change_logprob_correct
subject-01,1,1,1.15696287155151,keyboard,chair,0,0_chair_20_n03376595_3070.png,False,1.0180962828316347,1.723757028579712,1.0,-1.0929366588308251,27.27517306804657,10,1.1396825396825392,10,46.36013492617995,10
subject-01,1,2,0.752756118774414,car,car,180,180_car_20_n02814533_29367.png,True,-0.9480407467808324,1.0964820384979248,1.0,-0.44604528974662533,26.522099256515503,10,2.5467032967032965,9,42.761888730293435,6
subject-01,1,3,0.856472969055176,car,car,270,270_car_20_n02814533_31083.png,True,-0.44354264393930676,1.1019186973571775,0.1428571428571428,-5.036479918927853,26.524458289146423,10,0.46739926739926685,9,50.9189324890124,6
subject-01,1,4,0.968296051025391,car,car,180,180_car_20_n03100240_1703.png,True,0.10038568164280857,0.7978030443191528,0.3333333333333333,-3.549235090108419,25.481626868247986,10,2.425335775335775,9,44.69183713101193,6
subject-01,1,5,0.645937919616699,bottle,bottle,180,180_bottle_20_n04591713_2359.png,True,-1.4676243889579337,0.02322968095541,1.0,-0.002817304110328113,24.178488813340664,10,7.116666666666666,9,21.023392490354947,10
subject-01,1,6,0.930321931838989,bicycle,dog,90,90_dog_20_n02111500_8796.png,False,-0.08432751621035889,2.116788148880005,1.0,-1.4514924701601073,27.939870595932007,10,2.0362554112554108,10,38.910785277564706,6
subject-01,1,7,1.11369395256042,bear,bear,180,180_bear_20_n02132136_4512.png,True,0.8076281912542574,1.5250167846679688,0.25,-2.9731618827688133,27.355109930038452,10,1.4773809523809522,8,35.382330185934585,6
subject-01,1,8,0.56744909286499,chair,chair,90,90_chair_20_n03376595_4820.png,True,-1.8494086803561376,0.0867126360535621,1.0,-0.011298708597405654,25.924016274511814,10,1.3809523809523805,10,44.45616229212924,10
subject-01,1,9,0.725367069244385,bottle,bottle,270,270_bottle_20_n04591713_6111.png,True,-1.0812661917218187,0.0011885486310347,1.0,-9.549120006970077e-05,24.368293675011955,10,7.083333333333333,9,20.2342926919076,10
subject-01,1,10,1.0814688205719,chair,bottle,270,270_bottle_20_n04560804_14111.png,False,0.6508791393112334,1.385434627532959,0.2,-3.785070203295103,27.053123116493225,10,5.0885281385281385,1,26.432706826028205,1
subject-01,1,11,0.81303596496582,cat,dog,0,0_dog_20_n02099601_8656.png,False,-0.6548283327823318,0.8512000441551208,1.0,-0.4889457317427463,27.411467969417572,10,2.5558913308913307,10,34.7391156450498,10
subject-01,1,12,0.713118076324463,cat,cat,0,0_cat_20_n02125311_14054.png,True,-1.1408475777077192,0.0012918489519506,1.0,-0.0001176068795598027,26.31405768566765,10,5.391666666666667,6,27.878831515138014,10
subject-01,1,13,0.938475131988525,bear,bear,0,0_bear_20_n02132136_10385.png,True,-0.04466883012036043,0.1795685440301895,1.0,-0.028374636618065597,26.310599222779274,10,2.652380952380952,10,31.22265007782878,10
subject-01,1,14,0.710515022277832,bottle,bottle,90,90_bottle_20_n02823428_10417.png,True,-1.1535093180571836,0.0056006736122071,1.0,-0.0005678358250920178,25.16494427388534,10,7.916666666666666,1,18.80667099925648,10
subject-01,1,15,1.19635391235352,keyboard,keyboard,0,0_keyboard_20_n03085013_23566.png,True,1.209701651677408,0.0249989684671163,1.0,-0.0028896318211201638,25.793440049514174,10,2.2467754467754464,9,38.18561079556037,10
subject-01,1,16,0.956080913543701,truck,truck,90,90_truck_20_n03417042_12560.png,True,0.04096897482246971,1.7363169193267822,0.3333333333333333,-1.4609047065186906,26.545660734176636,10,0.6692363192363189,10,44.896181035458255,6
subject-01,1,17,0.975800037384033,truck,truck,180,180_truck_20_n04467665_69063.png,True,0.1368864707762575,1.9221181869506836,0.25,-2.220422172764685,28.01016616821289,10,0.4675879675879673,10,44.42560889913865,6
subject-01,1,18,0.949490070343018,oven,oven,180,180_oven_20_n04111531_9712.png,True,0.008909884309505524,0.0083223758265376,1.0,-0.0008456108956978008,26.20808972697705,10,1.6208333333333331,10,53.88940687365283,6
subject-01,1,19,0.707451105117798,oven,oven,180,180_oven_20_n04111531_10375.png,True,-1.1684127825406927,0.0401498265564441,1.0,-0.005478640142386862,24.899639386683702,10,1.0416666666666665,10,57.56420038010154,10
subject-01,1,20,0.743339061737061,keyboard,keyboard,0,0_keyboard_20_n04505470_1744.png,True,-0.9938470684810607,0.0007867811364121,1.0,-6.407704602361053e-05,22.614610671822447,9,2.976190476190476,9,36.65243376560748,9
subject-01,1,21,0.669005155563354,boat,boat,90,90_boat_20_n04273569_7296.png,True,-1.3554210512998492,0.0101079437881708,0.0833333333333333,-11.251421614004416,25.756071040406823,10,1.326785714285714,3,42.90659334391462,3
subject-01,1,22,0.766723155975342,dog,dog,0,0_dog_20_n02101006_4807.png,True,-0.8801024729987929,0.0787668228149414,1.0,-0.010057852087661147,26.24078607559204,10,3.131782106782107,9,34.88171104022785,10
subject-01,1,23,0.586733818054199,clock,clock,90,90_clock_20_n02708093_1986.png,True,-1.755604180456272,0.0005105111049488,1.0,-3.963787434579661e-05,23.894637701218016,10,10.083333333333332,3,14.71534266955606,10
subject-01,1,24,0.766526937484741,bottle,bottle,0,0_bottle_20_n04560804_15562.png,True,-0.881056916331604,0.0019531671423465,1.0,-0.0001601705071224375,25.19020347041078,10,7.083333333333333,1,18.938645692027166,10
subject-01,1,25,0.514270067214966,cat,cat,0,0_cat_20_n02124075_13594.png,True,-2.1080813789463133,0.0104880901053547,1.0,-0.0011687549517253057,24.508762893266976,9,4.90515873015873,7,27.52581727261818,9
subject-01,1,26,0.754002094268799,bear,bear,90,90_bear_20_n02134418_4365.png,True,-0.9419800896031153,1.0464239120483398,0.3333333333333333,-2.6373157092803416,27.30845081806183,10,1.459523809523809,9,34.1331155793236,6
subject-01,1,27,1.1221330165863,oven,bear,180,180_bear_20_n02132136_8650.png,False,0.848677372552085,0.9208659529685974,1.0,-0.2257881866962354,27.72745507955551,10,2.477380952380952,10,30.50645293488583,10
subject-01,1,28,0.965617895126343,bird,bird,90,90_bird_20_n02009912_12219.png,True,0.08735863187677696,0.3169612884521484,1.0,-0.06048460540745128,25.918874859809875,10,2.4107142857142856,10,34.635611042744856,10
subject-01,1,29,1.01562881469727,dog,dog,90,90_dog_20_n02100236_1662.png,True,0.3306210716500054,2.087921142578125,0.2,-2.8436371232104865,27.790014028549194,10,1.0643217893217891,9,40.44645902079121,6
subject-01,1,30,0.583348989486694,clock,clock,90,90_clock_20_n04548280_1947.png,True,-1.7720686178753364,0.0032537749502807,1.0,-0.00029282088298728377,23.197284238645807,10,9.5,3,15.283154793680056,10
subject-01,1,31,1.14523601531982,dog,dog,270,270_dog_20_n02109047_66167.png,True,0.9610546670752002,1.107190728187561,1.0,-0.5652327309465979,27.117709755897522,10,2.01985236985237,10,36.387247858751635,10
subject-01,1,32,0.649070978164673,oven,oven,90,90_oven_20_n04111531_21055.png,True,-1.4523846078686935,0.0026567119639366,1.0,-0.0002430972871453392,23.289383782772347,10,2.3422619047619047,9,54.62094378041739,6
subject-01,1,33,0.70674204826355,clock,clock,0,0_clock_20_n02708093_2012.png,True,-1.1718617673180605,0.0300732236355543,1.0,-0.003418021886562188,25.619060216471553,10,9.5,3,17.51857990689279,10
subject-01,1,34,1.27048206329346,elephant,elephant,0,0_elephant_20_n02504458_6119.png,True,1.5702748026660338,0.0003944751806557,1.0,-2.849142607946206e-05,25.585533392149955,10,4.491666666666666,7,30.296635594651725,6
subject-01,1,35,0.766396999359131,chair,chair,0,0_chair_20_n04099969_12707.png,True,-0.8816889596078854,7.665225712116808e-05,1.0,-5.0664076402407395e-06,25.07256579467503,10,2.2498168498168494,9,42.579276928537645,9
subject-01,1,36,1.00817179679871,keyboard,keyboard,270,270_keyboard_20_n03085013_19054.png,True,0.2943487458659603,0.4579017162322998,1.0,-0.1195310083651805,26.004444241523743,10,2.3912087912087907,9,40.221880829046235,10
subject-01,1,37,0.780220985412598,chair,chair,0,0_chair_20_n02791124_422.png,True,-0.8144465132859744,0.0333828628063201,1.0,-0.004023888327732315,26.220302313566208,10,2.1730158730158724,9,43.460087055934615,10
subject-01,1,38,0.682131052017212,bicycle,bicycle,0,0_bicycle_20_n02835271_23830.png,True,-1.2915742429833617,0.0036367310676723,1.0,-0.0003420699509764026,24.393087757984176,10,3.1754329004329005,9,30.611217280739766,6
subject-01,1,39,0.815639019012451,bird,bird,90,90_bird_20_n01534433_14735.png,True,-0.6421665924328674,1.199958086013794,1.0,-0.5090437022823198,27.158241033554077,10,1.7798340548340545,10,35.845825803927696,10
subject-01,1,40,0.8075270652771,bird,bird,90,90_bird_20_n02011460_13994.png,True,-0.6816246482718601,1.6158006191253662,0.2,-3.0426116519698203,27.521628856658936,10,1.077380952380952,9,36.55890296787068,6
subject-01,1,41,0.749439001083374,boat,boat,270,270_boat_20_n04273569_17522.png,True,-0.9641758258687684,1.730461359024048,1.0,-1.1170702051063701,27.55399179458618,10,2.588095238095238,10,29.83344069331384,10
subject-01,1,42,1.10510993003845,bear,bear,180,180_bear_20_n02132136_5537.png,True,0.7658739047968518,0.9966574311256408,0.5,-0.8564481903236546,27.085439145565033,10,1.8345238095238092,10,31.005154405690643,10
subject-01,1,43,0.820925951004028,bear,bear,90,90_bear_20_n02132136_19248.png,True,-0.6164499692189679,0.6865398287773132,1.0,-0.5067952043858749,27.045497119426727,10,2.711904761904761,10,29.881590349150954,10
subject-01,1,44,0.824733018875122,bird,bird,270,270_bird_20_n01537544_1886.png,True,-0.5979316810800918,1.9138625860214231,1.0,-0.7707462497280473,28.34389352798462,10,1.973015873015873,10,34.58700793617718,10
subject-01,1,45,0.678874015808105,clock,clock,180,180_clock_20_n03196217_4776.png,True,-1.3074170745380471,0.0072675780393183,1.0,-0.0007446199646036464,24.86208544531837,10,10.5,2,15.688325428323834,10
subject-01,1,46,0.632420063018799,boat,boat,270,270_boat_20_n04612504_17610.png,True,-1.5333777645151672,1.7280659675598145,0.25,-2.8870876877760274,27.472548127174377,10,1.8950757575757575,1,32.06010623636688,10
subject-01,1,47,1.04631114006042,elephant,bear,90,90_bear_20_n02134418_1814.png,False,0.4798656244355298,0.5218073129653931,0.5,-1.9491324660462324,26.903270840644836,10,2.069047619047619,10,31.355561837513914,0
subject-01,1,48,0.710211038589478,keyboard,keyboard,180,180_keyboard_20_n03085013_20330.png,True,-1.1549879514099535,0.0079813282936811,1.0,-0.0009432710113097747,24.80907586030662,10,3.6147186147186146,8,36.2410292922159,10
subject-01,1,49,0.725833892822266,bottle,bottle,180,180_bottle_20_n02823428_14574.png,True,-1.0789954747769337,0.0125445388257503,1.0,-0.0012876333201381803,24.99964514002204,10,7.083333333333333,9,19.791829192251576,10
subject-01,1,50,0.77583909034729,bicycle,bicycle,0,0_bicycle_20_n03792782_7105.png,True,-0.8357608681021325,0.0190540179610252,1.0,-0.002054595178725542,26.082841597497463,10,2.2067210567210562,10,30.869011052989286,10
subject-01,1,51,0.915474891662598,elephant,elephant,0,0_elephant_20_n02504458_1302.png,True,-0.15654628858461536,0.0002424281701678,1.0,-1.7523919106938383e-05,26.458715395317995,10,5.2004329004329,6,30.24255834579449,10
subject-01,1,52,0.849301099777222,airplane,airplane,90,90_airplane_20_n02690373_3877.png,True,-0.4784279536528272,1.998211145401001,0.25,-2.919424794530238,27.33571493625641,10,2.793589743589744,0,30.434528887948918,6
subject-01,1,53,1.07718086242676,bicycle,boat,90,90_boat_20_n02951358_15422.png,False,0.6300217111939019,2.0521044731140137,0.125,-3.345137349301609,27.7131187915802,10,1.4672619047619047,1,35.77710854695821,7
subject-01,1,54,0.852817058563232,car,car,270,270_car_20_n02814533_46458.png,True,-0.46132567439531647,0.0172163099050521,0.125,-10.263856740408777,25.27014635503292,10,0.40043290043290014,9,55.28067553239426,6
subject-01,1,55,0.58676290512085,car,car,0,0_car_20_n02814533_39547.png,True,-1.7554626955393762,0.0127418218180537,1.0,-0.0016553983085499518,24.112729567103088,10,2.844877344877345,9,41.3897260804125,6
subject-01,1,56,1.13060688972473,boat,boat,180,180_boat_20_n04273569_6586.png,True,0.8898958718652157,1.514338731765747,1.0,-0.7992667778663062,27.625697135925293,10,3.9686868686868686,10,25.1959219793775,10
subject-01,1,57,0.670358896255493,clock,clock,90,90_clock_20_n02708093_3394.png,True,-1.348836204102169,0.0242723599076271,1.0,-0.002872356379961494,24.72387544065714,10,9.2,10,17.176230837319554,10
subject-01,1,58,0.792074918746948,keyboard,keyboard,180,180_keyboard_20_n03085013_25419.png,True,-0.7567867708024643,0.0657375901937484,1.0,-0.01187878887458967,24.34416590631008,10,3.2420634920634916,9,36.39706077144413,10
subject-01,1,59,0.946245908737183,bottle,bottle,180,180_bottle_20_n04557648_1871.png,True,-0.00687032277376617,0.3983901739120483,1.0,-0.08836214984427802,26.301488280296326,10,6.1909090909090905,10,21.411399200320965,10
subject-01,1,60,0.915585041046143,knife,chair,90,90_chair_20_n04099969_6944.png,False,-0.1560105014403162,0.5560672879219055,0.3333333333333333,-4.4985251066698195,26.17478173971176,10,0.4336038961038957,10,50.1411873386094,7
subject-01,1,61,0.675534963607788,boat,boat,270,270_boat_20_n04273569_1495.png,True,-1.3236588471698683,1.1544227600097656,0.0909090909090909,-6.249226636739065,26.43564212322235,10,1.3615800865800864,1,37.503024715347856,6
subject-01,1,62,0.647359848022461,keyboard,keyboard,90,90_keyboard_20_n03085013_7317.png,True,-1.460707864004259,0.0027587637305259,1.0,-0.0002642026841000735,24.93287517875433,10,3.64047619047619,8,35.88492492714355,10
subject-01,1,63,0.81305193901062,knife,knife,90,90_knife_20_n03041632_7448.png,True,-0.6547506320492831,0.5417718887329102,1.0,-0.1209765981689087,26.27477192878723,10,2.319191919191919,10,36.28834962091468,10
subject-01,1,64,1.13102507591248,car,truck,0,0_truck_20_n03417042_11000.png,False,0.891930007473686,1.1531542539596558,1.0,-0.4214133025182936,27.385170817375183,10,2.343106893106893,10,39.94924444726067,10
subject-01,1,65,0.830668926239014,bird,bird,0,0_bird_20_n01582220_8827.png,True,-0.5690583206220752,0.0037393646780401,1.0,-0.0003415333257853976,26.260951169067994,10,2.7984126984126982,9,33.15569679783671,10
subject-01,1,66,1.19664120674133,airplane,airplane,270,270_airplane_20_n02690373_9247.png,True,1.2110991051597952,1.90893816947937,0.1428571428571428,-3.267984597743323,27.026906967163086,10,2.0126373626373626,4,32.22980069757134,6
subject-01,1,67,0.656315088272095,bear,bear,270,270_bear_20_n02133161_14397.png,True,-1.4171479052878075,0.9446631669998168,0.5,-1.422578544610384,27.03805899620056,10,1.7416666666666663,10,31.9468037293599,10
subject-01,1,68,0.638268947601318,oven,oven,270,270_oven_20_n04111531_13560.png,True,-1.5049276990954001,1.0873472690582275,0.25,-2.859085680922666,26.04921042919159,10,0.3095238095238094,10,58.99436209540858,6
subject-01,1,69,0.712180852890015,bear,bear,180,180_bear_20_n02132136_545.png,True,-1.1454064072839905,1.259207010269165,1.0,-0.3851020807244264,27.808210611343384,10,2.4396825396825395,10,31.894079379703363,10
subject-01,1,70,0.683822870254517,bear,cat,90,90_cat_20_n02125311_73072.png,False,-1.2833449235549121,2.210125207901001,0.25,-1.9391545114237154,27.98774778842926,10,3.151190476190476,9,31.10091380374622,0
subject-01,1,71,0.705695152282715,bicycle,bicycle,0,0_bicycle_20_n03792782_30530.png,True,-1.1769540646137648,0.076737180352211,1.0,-0.010834645513142166,25.921647921204567,10,2.8984126984126983,9,30.775713808926305,6
subject-01,1,72,1.01773595809937,knife,knife,90,90_knife_20_n03041632_4975.png,True,0.34087061013769304,0.7245126962661743,1.0,-0.19356145608024533,26.8942734003067,10,4.292929292929292,7,34.46061151702832,10
subject-01,1,73,1.40926289558411,cat,dog,90,90_dog_20_n02107683_3120.png,False,2.2453306533968536,1.4133527278900146,0.125,-5.16272533448128,26.807382345199585,10,0.7170385170385167,9,43.91995091811173,6
subject-01,1,74,1.089115858078,elephant,elephant,90,90_elephant_20_n02504013_7316.png,True,0.6880757559047959,1.4850355386734009,0.0769230769230769,-5.490450648729574,27.171262860298157,10,1.0856893106893104,2,40.80218596878741,6
subject-01,1,75,1.15481901168823,boat,truck,90,90_truck_20_n03796401_7284.png,False,1.0076681486291885,0.8954178094863892,0.25,-3.182636198247782,27.057231545448303,10,0.571317571317571,10,44.581305703935165,6
subject-01,1,76,0.990966081619263,bicycle,chair,270,270_chair_20_n03376595_497.png,False,0.21065693838660499,1.5271079540252686,1.0,-0.8185003572031101,27.33004057407379,10,1.2587662337662333,10,46.31722146791591,10
subject-01,1,77,0.970529079437256,truck,truck,270,270_truck_20_n03796401_19845.png,True,0.11124754829540673,0.2478351145982742,1.0,-0.0423054717784001,25.440950229763985,10,1.5244200244200243,10,41.94725833159682,10
subject-01,1,78,0.880265951156616,chair,chair,90,90_chair_20_n04099969_1941.png,True,-0.32780914163350716,1.1387428045272827,1.0,-0.35961318428697275,26.926503658294678,10,1.3206349206349202,10,44.85392840617743,10
subject-01,1,79,0.846113920211792,truck,truck,90,90_truck_20_n03417042_28886.png,True,-0.4939309894644823,0.3393675684928894,1.0,-0.06314617272838013,25.724081218242645,10,2.3573926073926073,9,43.07863342883769,10
subject-01,1,80,0.9339919090271,car,car,0,0_car_20_n02814533_12185.png,True,-0.06647606272076993,0.163424476981163,1.0,-0.03594603240740008,25.22199486196041,10,3.3107142857142855,8,41.15589522876542,6
subject-01,1,81,0.73320198059082,bicycle,bicycle,90,90_bicycle_20_n02835271_1621.png,True,-1.0431557217306069,0.8759316205978394,0.5,-1.1069310346507522,25.335134148597717,10,1.4178571428571425,10,36.0193136063856,6
subject-01,1,82,0.7153000831604,cat,cat,0,0_cat_20_n02123597_32226.png,True,-1.1302338895159016,0.0026407723780721,1.0,-0.00023528721079334544,24.680264997994527,10,5.585714285714285,6,25.882651261628347,9
subject-01,1,83,0.789007902145386,bicycle,bicycle,90,90_bicycle_20_n03792782_5048.png,True,-0.771705311547608,1.6104655265808103,0.5,-1.3877772314980392,27.109397649765015,10,1.6797008547008545,10,32.916343951458884,10
subject-01,1,84,0.832736968994141,airplane,airplane,0,0_airplane_20_n02690373_10044.png,True,-0.5589989749734904,0.0007483618101105,1.0,-6.085819413789329e-05,25.151630963548087,10,6.333333333333333,0,21.471976244428557,10
subject-01,1,85,0.976622104644775,car,car,180,180_car_20_n03100240_5752.png,True,0.14088515924712575,0.5965437293052673,1.0,-0.18123191019598028,25.755097091197968,10,3.014224664224664,9,41.403475083298474,6
subject-01,1,86,0.710433959960938,car,car,90,90_car_20_n02814533_68219.png,True,-1.1539036202845867,1.0547263622283936,0.3333333333333333,-3.274516885885877,26.43196475505829,10,1.4816849816849813,9,47.59829596298749,6
subject-01,1,87,0.944056034088135,airplane,airplane,0,0_airplane_20_n02690373_1171.png,True,-0.017522281475893964,0.0002483764255885,1.0,-1.8358399105197946e-05,24.53154558330425,10,6.75,0,21.063428640554157,9
subject-01,1,88,1.13441491127014,bird,bird,90,90_bird_20_n01817953_6970.png,True,0.908418798853825,0.7630914449691772,0.1666666666666666,-4.547732726409189,25.81139647960663,10,0.5747766122766119,10,42.710862747725315,6
subject-01,1,89,0.831950187683105,car,car,90,90_car_20_n04285008_15503.png,True,-0.5628260260041985,1.6078341007232666,0.1111111111111111,-5.103592771956479,26.907756805419922,10,0.6896214896214892,9,48.34699816382408,6
subject-01,1,90,0.592129945755005,boat,boat,270,270_boat_20_n03344393_11886.png,True,-1.729356408947806,0.4039815664291382,1.0,-0.09821667489581645,26.607768774032593,10,3.0123376623376625,10,25.305911934472643,10
subject-01,1,91,1.26144409179688,boat,boat,0,0_boat_20_n04273569_30203.png,True,1.5263124237351529,0.1357412934303283,1.0,-0.01936328380968667,26.390144050121307,10,3.2500000000000004,10,26.999443755406517,10
subject-01,1,92,1.09711909294128,keyboard,keyboard,180,180_keyboard_20_n03085013_22069.png,True,0.7270049828740879,0.0068391510285437,1.0,-0.0007328095236128646,24.237357134465128,10,3.284498834498834,9,34.9015089633549,10
subject-01,1,93,0.923164129257202,knife,knife,0,0_knife_20_n03041632_26314.png,True,-0.11914440289030004,0.0039319042116403,1.0,-0.0003594806134096176,25.224811697378755,10,3.988131313131313,8,33.70492529488727,10
subject-01,1,94,0.884984016418457,boat,bicycle,270,270_bicycle_20_n03792782_18308.png,False,-0.3048595922860487,1.9868234395980835,1.0,-1.0547759571710134,27.740720629692078,10,1.954340104340104,10,33.26926376496864,10
subject-01,1,95,0.742593050003052,car,car,180,180_car_20_n04285008_8396.png,True,-0.9974758086856298,1.045522928237915,0.5,-1.5009831571307402,26.06192684173584,10,2.368106893106893,9,43.316788044875814,6
subject-01,1,96,0.962476015090942,bear,bear,90,90_bear_20_n02133161_12349.png,True,0.07207594142749468,0.5935091972351074,0.2,-5.280856889646773,27.106487274169922,10,1.759523809523809,6,35.116544069766476,6
subject-01,1,97,0.784189939498901,bear,bear,270,270_bear_20_n02132136_18303.png,True,-0.7951407804047242,0.3234966397285461,0.5,-2.7023188541382086,26.462145388126373,10,1.6202380952380948,10,33.32660900059095,0
subject-01,1,98,0.620628118515015,cat,cat,180,180_cat_20_n02123394_6853.png,True,-1.5907359817659574,0.2929426729679107,1.0,-0.05687107658969918,25.943324238061905,10,5.002777777777778,6,28.260705079377672,10
subject-01,1,99,0.789850950241089,cat,cat,180,180_cat_20_n02123597_4805.png,True,-0.7676045683825872,1.9171221256256104,0.5,-2.184322249109788,27.701032161712646,10,2.4305555555555554,8,34.266595452459235,6
subject-01,1,100,1.3218150138855,oven,car,0,0_car_20_n03100240_17587.png,False,1.8199678478832544,0.1636640727519989,0.2,-6.500332964115098,25.140016049146652,10,0.8887667887667885,9,51.39170032156582,6
subject-01,1,101,0.887484073638916,bear,bird,180,180_bird_20_n01601694_19236.png,False,-0.2926988477078771,2.1824893951416016,1.0,-1.4101208791376014,28.26526141166687,10,1.7757936507936503,10,34.44308720740472,10
subject-01,1,102,0.58344292640686,cat,cat,0,0_cat_20_n02123597_2341.png,True,-1.771611691176519,0.2315614372491836,1.0,-0.04555531728474814,25.92231346666813,10,5.428968253968254,6,28.15582835871107,10
subject-01,1,103,0.805047988891602,elephant,elephant,270,270_elephant_20_n02504013_7883.png,True,-0.6936833381558797,1.3643672466278076,1.0,-0.7772423379812146,28.026206016540527,10,2.628210678210678,10,34.119951267701055,10
subject-01,1,104,0.874961137771606,chair,chair,270,270_chair_20_n03376595_14240.png,True,-0.3536127432799243,1.959139347076416,1.0,-0.9849538854474947,27.3148010969162,10,1.289560439560439,10,47.151813343021146,10
subject-01,1,105,0.806765079498291,airplane,airplane,0,0_airplane_20_n02690373_10188.png,True,-0.6853310892094778,0.0003706575953401,1.0,-2.801457544898803e-05,23.86776498571271,9,5.416666666666666,8,20.68182493701628,9
subject-01,1,106,0.700643062591553,truck,truck,90,90_truck_20_n03417042_8634.png,True,-1.2015283710806208,0.955352246761322,0.25,-3.2235540963697393,26.206901609897614,10,0.5275696525696523,10,45.909612921903545,6
subject-01,1,107,0.896597146987915,knife,knife,90,90_knife_20_n03041632_32774.png,True,-0.24837115936041815,1.0511459112167358,1.0,-0.3235031398432504,26.660112261772156,10,2.1484848484848484,10,35.46900337963821,10
subject-01,1,108,0.69025993347168,bottle,bottle,90,90_bottle_20_n03983396_4115.png,True,-1.2520338475615829,0.0016552646411582,1.0,-0.00014103453444099632,24.324439330841415,10,7.333333333333333,9,19.71699852236248,10
subject-01,1,109,0.910145998001099,keyboard,clock,270,270_clock_20_n04548280_8552.png,False,-0.18246702118681962,0.0005690805264748,1.0,-4.261822915823138e-05,23.700395917112473,10,10.583333333333332,2,14.457986896736093,10
subject-01,1,110,0.781790018081665,car,car,0,0_car_20_n02814533_6233.png,True,-0.8068144457608046,0.6893596649169922,1.0,-0.5807434292302611,25.805773496627808,10,3.488369963369963,8,40.02549962911633,6
subject-01,1,111,0.747710943222046,bear,elephant,0,0_elephant_20_n02504458_9870.png,False,-0.9725814215871149,0.0002432725741527,1.0,-1.7345102055051605e-05,25.735079970152583,10,3.886111111111111,8,32.341823073242196,6
subject-01,1,112,0.797506093978882,bicycle,bicycle,270,270_bicycle_20_n02835271_3956.png,True,-0.7303685215662669,0.0546925961971282,1.0,-0.008657691639481943,25.15334364771843,10,3.1039682539682536,9,30.92951265672369,10
subject-01,1,113,0.865594863891602,knife,knife,90,90_knife_20_n03041632_14817.png,True,-0.3991720462318056,1.7219860553741455,1.0,-1.040150862578891,27.59899091720581,10,1.9024531024531024,10,35.97836903181775,10
subject-01,1,114,0.851068019866943,chair,chair,90,90_chair_20_n04099969_8642.png,True,-0.4698333248078152,0.5816256403923035,1.0,-0.15626437685058933,26.10542756319046,10,1.3677960927960924,10,45.15643735803191,10
subject-01,1,115,0.735033988952637,clock,clock,0,0_clock_20_n02708093_240.png,True,-1.03424449139123,0.0014788089320063,1.0,-0.00013882885396140554,24.308001178316772,10,9.5,3,16.027813047027376,10
subject-01,1,116,1.00674510002136,bear,bear,180,180_bear_20_n02133161_3896.png,True,0.28740902666358614,1.3308310508728027,0.3333333333333333,-1.8235116130815854,27.677884101867676,10,1.4952380952380948,8,33.31882801547965,0
subject-01,1,117,0.690579891204834,bottle,bottle,270,270_bottle_20_n04557648_11000.png,True,-1.2504775134757646,0.0050934143364429,1.0,-0.0004916803604429175,25.153344947844744,10,5.7,10,20.74248184348316,10
subject-01,1,118,1.02677512168884,keyboard,keyboard,90,90_keyboard_20_n03085013_2853.png,True,0.38483878763071677,0.0146902054548263,1.0,-0.001895434766582742,22.207290217280388,9,3.6837662337662334,8,36.953242318464255,9
subject-01,1,119,0.548312902450562,boat,boat,90,90_boat_20_n04273569_7097.png,True,-1.9424906794099004,1.4327428340911863,0.1111111111111111,-5.1914380063832155,26.84239673614502,10,1.6825396825396826,1,34.59371410278291,3
subject-01,1,120,0.761907815933228,bicycle,bicycle,270,270_bicycle_20_n03792782_40932.png,True,-0.9035251850191363,0.8913130164146423,1.0,-0.41009103849423917,26.17870742082596,10,2.6678571428571427,10,32.47430030696039,10
subject-01,1,121,0.845890998840332,chair,chair,270,270_chair_20_n04429376_44914.png,True,-0.49501532058984854,1.0887572765350342,0.25,-3.384161484050269,26.031071424484253,10,0.45936147186147147,10,48.914814952827,7
subject-01,1,122,1.17961382865906,bottle,bear,180,180_bear_20_n02134418_2122.png,False,1.1282747625807776,0.5771635174751282,0.3333333333333333,-4.219571856732718,26.503351986408234,10,1.3278138528138523,10,37.139855421060936,0
subject-01,1,123,0.889256954193115,keyboard,keyboard,90,90_keyboard_20_n03085013_22704.png,True,-0.28407522605202423,0.0102891214191913,1.0,-0.0010820518818484787,25.24433581903577,10,2.793290043290043,9,37.17701965126672,10
subject-01,1,124,0.721160173416138,truck,truck,0,0_truck_20_n03417042_6838.png,True,-1.1017293176117513,0.473872572183609,1.0,-0.12718775551070483,25.88756838440895,10,2.081934731934732,10,39.40518552383401,10
subject-01,1,125,0.860905885696411,elephant,elephant,0,0_elephant_20_n02504458_3628.png,True,-0.42198011066237295,0.0002421578392386,1.0,-1.704707370629704e-05,26.1096198996529,10,5.324999999999999,6,31.041585327858872,10
subject-01,1,126,0.700773954391479,cat,cat,90,90_cat_20_n02123597_10141.png,True,-1.2008916889546069,0.0349564664065837,1.0,-0.004180574734932636,26.01899529621005,10,5.33611111111111,6,28.853029626968365,10
subject-01,1,127,0.734537124633789,bicycle,bicycle,0,0_bicycle_20_n02835271_6383.png,True,-1.0366613321027438,0.0021796643268316,1.0,-0.00018497031869272153,25.55469469423406,10,3.143290043290043,9,31.0264967443019,10
subject-01,1,128,0.880431890487671,car,car,180,180_car_20_n04285008_7154.png,True,-0.327001981779757,1.1372857093811035,1.0,-0.554171208759068,25.699913501739502,10,2.964224664224664,9,42.78939239645759,6
subject-01,1,129,0.768196105957031,bird,bird,0,0_bird_20_n02007558_1068.png,True,-0.8729377695843429,0.3883729577064514,1.0,-0.10084787278186626,26.089015066623688,10,1.5900904650904648,10,36.34563244135984,10
subject-01,1,130,0.696199893951416,cat,cat,90,90_cat_20_n02125311_1896.png,True,-1.2231407719921998,1.2928131818771362,0.5,-0.8839520276004702,27.343478560447693,10,3.5972222222222223,8,32.281221845071016,10
subject-01,1,131,0.815906047821045,keyboard,keyboard,0,0_keyboard_20_n04505470_1903.png,True,-0.6408677145072934,0.0066365110687911,1.0,-0.0007260692839497117,23.12322188494727,10,3.4996392496392494,9,36.007735994961095,6
subject-01,1,132,0.753910064697266,bicycle,bicycle,90,90_bicycle_20_n03792782_66159.png,True,-0.9424277386024638,0.535606861114502,0.5,-2.444613035039612,26.484765887260437,10,1.8789682539682537,9,34.98654776495123,6
subject-01,1,133,0.867797136306763,bear,bear,90,90_bear_20_n02134418_5219.png,True,-0.3884597824831344,0.5417211055755615,1.0,-0.18886780960827929,26.721930146217346,10,2.0408730158730153,10,32.021944812347016,10
subject-01,1,134,1.01319718360901,car,car,90,90_car_20_n02814533_92229.png,True,0.31879316454024553,1.7257390022277832,0.25,-2.4849289719766077,27.14517080783844,10,0.8880952380952376,7,45.99680979439271,6
subject-01,1,135,0.723058938980103,cat,dog,90,90_dog_20_n02090721_1002.png,False,-1.092493367790984,0.4647656679153442,0.5,-3.928446549496822,26.530532002449036,10,1.9242424242424243,8,38.67119909115128,6
subject-01,1,136,1.0889151096344,car,truck,270,270_truck_20_n04467665_46263.png,False,0.6870992780357666,1.971153736114502,0.3333333333333333,-2.1682867374961736,27.56627655029297,10,0.49029304029304,10,45.943618759198465,6
subject-01,1,137,0.844803094863892,bottle,bottle,180,180_bottle_20_n03983396_704.png,True,-0.5003070884241204,0.0602752827107906,1.0,-0.009389655441339228,25.437059726566076,10,6.083333333333333,1,19.908419136359758,10
subject-01,1,138,0.928635120391846,truck,truck,180,180_truck_20_n03796401_4149.png,True,-0.09253248167769972,1.3174293041229248,0.25,-2.5997641845406694,27.2074077129364,10,0.9076923076923074,7,45.26461684907413,6
subject-01,1,139,0.724356889724731,bird,bird,0,0_bird_20_n02006656_2030.png,True,-1.0861798933027598,0.001394307357259,1.0,-0.0001111092302631362,25.339711343985982,10,2.963492063492063,9,32.74898637518135,10
subject-01,1,140,0.780128002166748,cat,cat,90,90_cat_20_n02123394_234.png,True,-0.8148988011350592,0.019724041223526,1.0,-0.0026739791931535395,25.812926679849625,10,5.428968253968254,6,27.502422466409744,10
subject-01,1,141,0.839982986450195,oven,chair,90,90_chair_20_n04429376_19916.png,False,-0.5237529946931395,0.2885441780090332,0.1666666666666666,-5.886568388649582,24.563858151435852,10,0.4339285714285709,8,53.07910551095202,7
subject-01,1,142,0.881727933883667,truck,truck,270,270_truck_20_n04467665_14024.png,True,-0.32069778499099716,2.013411521911621,0.2,-2.7163250431367674,27.016013979911804,10,0.551415251415251,10,45.149144409683394,6
subject-01,1,143,1.50014019012451,oven,chair,90,90_chair_20_n04429376_14729.png,False,2.6873747625545565,1.195608377456665,0.25,-3.013156838049851,26.168294548988342,10,0.7065476190476188,9,49.23924218880057,7
subject-01,1,144,0.663640975952148,car,car,270,270_car_20_n02814533_82321.png,True,-1.3815134213422184,1.3567448854446411,1.0,-0.7683054243799198,26.35135781764984,10,1.8578754578754575,10,45.19407529253417,6
subject-01,1,145,0.739259958267212,clock,clock,180,180_clock_20_n04548280_3701.png,True,-1.0136885885066145,0.0069644297473132,1.0,-0.00074593224443493,25.04248283756897,10,9.333333333333332,2,16.684048608674644,10
subject-01,1,146,0.822924852371216,boat,boat,270,270_boat_20_n02951358_11442.png,True,-0.606726940176109,1.5345771312713623,0.1111111111111111,-4.5224398655273905,27.647338151931763,10,1.665873015873016,3,33.06864101196021,3
subject-01,1,147,0.840892791748047,bear,bear,90,90_bear_20_n02132136_17349.png,True,-0.5193275320467229,0.6707195043563843,1.0,-0.19739134591076163,26.74694335460663,10,2.3690476190476186,10,30.47747822337814,10
subject-01,1,148,,na,airplane,90,90_airplane_20_n02690373_4982.png,False,,1.244462490081787,0.5,-2.678075372944526,26.12437379360199,10,2.941666666666667,10,30.429366539578716,6
subject-01,1,149,1.02631402015686,airplane,airplane,0,0_airplane_20_n02690373_2232.png,True,0.38259590378424807,0.0078971525654196,1.0,-0.0007622762375317977,26.45880378689617,10,5.366666666666667,0,22.837429158011048,10
subject-01,1,150,0.650339126586914,cat,cat,180,180_cat_20_n02123045_909.png,True,-1.4462160974346594,1.252708077430725,1.0,-0.4853358711648467,27.34429633617401,10,5.355555555555555,6,29.026016119027762,10
subject-01,1,151,0.758072853088379,clock,clock,180,180_clock_20_n04548280_1190.png,True,-0.922179159512738,0.4056472778320312,1.0,-0.08868821447471296,24.911975145339966,10,9.916666666666666,2,16.08122459356313,10
subject-01,1,152,1.12404108047485,bear,oven,90,90_oven_20_n04111531_1855.png,False,0.857958551157761,0.3860343098640442,0.3333333333333333,-3.783278172865862,26.211985170841217,10,0.34090909090909083,10,60.59548656767245,6
subject-01,1,153,0.619884967803955,boat,boat,270,270_boat_20_n03662601_21408.png,True,-1.594350805421325,0.9708718061447144,0.3333333333333333,-3.0981969321986687,26.1251163482666,10,1.9886294261294257,10,32.84617293032918,3
subject-01,1,154,0.901571035385132,dog,dog,90,90_dog_20_n02088364_15877.png,True,-0.2241772385717645,1.8729791641235352,1.0,-1.0433162165677088,28.332594871520996,10,2.127020202020202,10,36.66789038719515,10
subject-01,1,155,0.807277917861938,knife,knife,90,90_knife_20_n03041632_15250.png,True,-0.6828365477649209,0.2821158766746521,1.0,-0.05735606133606983,25.809678852558136,10,3.077453102453102,7,34.76176407892179,10
subject-01,1,156,0.777352094650269,oven,oven,0,0_oven_20_n04111531_17006.png,True,-0.8284013329988423,0.000601043284405,1.0,-5.13805237528905e-05,26.12656043964671,10,2.3970238095238097,9,52.37371750651021,6
subject-01,1,157,0.591292858123779,clock,clock,90,90_clock_20_n04548280_11763.png,True,-1.733428159301991,0.0006970680551603,1.0,-5.5255032237964616e-05,24.842503360589035,10,9.5,3,16.58934359442011,10
subject-01,1,158,0.866878986358643,bird,bird,270,270_bird_20_n02028035_8327.png,True,-0.39292583506472256,1.7672686576843262,1.0,-0.6739329610748259,28.451420545578003,10,1.9317460317460315,10,32.60043368432419,10
subject-01,1,159,0.926613092422485,car,car,90,90_car_20_n04285008_5641.png,True,-0.10236800282661326,0.8639941215515137,0.3333333333333333,-3.1025353940908933,26.13817870616913,10,1.6145604395604394,9,47.59186226071691,6
subject-01,1,160,1.08650684356689,oven,oven,90,90_oven_20_n04111531_10727.png,True,0.6753850227444858,1.2828516960144043,0.2,-3.120885427812832,25.542483925819397,10,0.2984848484848484,9,62.41012407284033,6
subject-01,1,161,0.928154945373535,elephant,elephant,270,270_elephant_20_n02504458_1971.png,True,-0.0948681425188651,0.0407529063522815,1.0,-0.004946764420759284,26.312266368418932,10,2.1778138528138524,10,34.15010208091031,10
subject-01,1,162,0.787765979766846,bottle,bottle,180,180_bottle_20_n04560804_15941.png,True,-0.7777462536139527,0.198323518037796,1.0,-0.044338907544319704,25.398864895105362,10,6.916666666666666,1,18.56440011038892,10
subject-01,1,163,0.665618896484375,elephant,elephant,0,0_elephant_20_n02504458_151.png,True,-1.371892446993512,0.0002703907375689,1.0,-1.9848543691245146e-05,26.299489522207296,10,5.209523809523809,6,28.966467480995515,6
subject-01,1,164,0.741531133651733,bear,bear,180,180_bear_20_n02133161_15427.png,True,-1.0026411678646503,1.177924633026123,0.5,-1.4205776280140563,27.12167716026306,10,1.5908730158730156,10,33.344249195693166,10
subject-01,1,165,,na,bear,180,180_bear_20_n02134084_20605.png,False,,0.0084259388968348,1.0,-0.0008778848085148124,26.248995292000473,10,2.074206349206349,10,32.69435689113168,10
subject-01,1,166,0.895142078399658,bottle,bottle,90,90_bottle_20_n04560804_2693.png,True,-0.2554488843423553,0.0637329518795013,1.0,-0.00827087544835811,25.676036924123764,10,5.892857142857142,10,20.91457605370839,10
subject-01,1,167,0.715176105499268,airplane,airplane,270,270_airplane_20_n02690373_8214.png,True,-1.1308369399813416,0.3366763591766357,0.0714285714285714,-8.875532881420366,24.781453371047974,10,1.941208791208791,0,39.48042279901122,6
subject-01,1,168,0.596733808517456,boat,boat,0,0_boat_20_n02951358_14966.png,True,-1.7069623618560181,0.4275007247924804,1.0,-0.09491067603847254,26.491310596466064,10,2.164285714285714,10,31.447575758203634,10
subject-01,1,169,1.07462406158447,oven,knife,90,90_knife_20_n03041632_14801.png,False,0.6175849550565224,0.3844878077507019,0.5,-3.340988437860477,26.014800488948822,10,2.687373737373737,7,36.872578049892894,5
subject-01,1,170,0.982661962509155,dog,dog,90,90_dog_20_n02110063_8776.png,True,0.17026415432616762,2.034966230392456,0.3333333333333333,-2.3037431961312547,28.027560472488403,10,1.0679292929292927,9,39.89335098060133,6
subject-01,1,171,0.912036895751953,dog,dog,180,180_dog_20_n02100236_7671.png,True,-0.1732693418763622,1.2322261333465576,0.1111111111111111,-4.660053580468176,26.86432111263275,10,1.0385642135642135,9,41.92657395402392,6
subject-01,1,172,0.701947927474976,oven,oven,0,0_oven_20_n04111531_21248.png,True,-1.195181264931818,0.0114712100476026,1.0,-0.0011943555750214309,26.12757628969848,10,2.175595238095238,9,53.80767242277158,6
subject-01,1,173,1.39378190040588,knife,knife,270,270_knife_20_n03041632_17100.png,True,2.170028205661758,1.5893640518188477,1.0,-0.7656246176241971,27.8754163980484,10,2.452453102453102,10,34.86950955699773,10
subject-01,1,174,0.979604959487915,knife,knife,0,0_knife_20_n03041632_3781.png,True,0.1553943215032318,1.0453205108642578,0.5,-1.5903452601343409,26.133156776428223,10,2.0595959595959594,7,36.65408232770547,6
subject-01,1,175,1.50007009506226,bottle,oven,270,270_oven_20_n04111531_46651.png,False,2.687033807099123,1.345278024673462,0.25,-3.5918172873442864,27.345308542251587,10,0.5394230769230768,8,59.14573838885761,6
subject-01,1,176,0.809221029281616,clock,clock,0,0_clock_20_n04548280_8303.png,True,-0.6733848914315135,0.015292840078473,1.0,-0.0017229848366460683,24.717132763937116,10,10.0,2,15.904288384120242,10
subject-01,1,177,0.656942129135132,airplane,airplane,0,0_airplane_20_n02690373_2070.png,True,-1.4140978615875799,0.0004640770202968,1.0,-3.46905049677759e-05,24.05483984472812,10,7.416666666666666,0,19.998994682259372,9
subject-01,1,178,0.925101041793823,car,car,180,180_car_20_n03100240_574.png,True,-0.10972289908016647,1.436650276184082,0.3333333333333333,-2.116746123988591,27.082242608070374,10,1.8709457209457205,9,44.07530749800519,6
subject-01,1,179,0.936727046966553,bear,dog,90,90_dog_20_n02095570_11263.png,False,-0.053171841683122244,0.7831363677978516,1.0,-0.32425604945159253,27.04091787338257,10,2.451262626262626,10,34.58892188978908,10
subject-01,1,180,0.890494108200073,oven,bottle,180,180_bottle_20_n03983396_9667.png,False,-0.27805747823434995,1.267489314079285,0.3333333333333333,-2.2876396222218314,26.676241993904114,10,4.124542124542124,1,25.915679808991634,10
subject-01,1,181,0.606384038925171,clock,clock,0,0_clock_20_n02708093_3535.png,True,-1.6600218413957777,0.0016602410469204,1.0,-0.0001420479568330947,23.126884473720565,10,9.583333333333332,4,14.312464033770217,10
subject-01,1,182,0.774178028106689,bird,bird,180,180_bird_20_n01531178_17239.png,True,-0.843840584626655,1.7817823886871338,0.5,-2.007195912687466,27.555495262145996,10,1.5734487734487732,9,35.926442322496115,6
subject-01,1,183,0.8039231300354,elephant,elephant,180,180_elephant_20_n02504458_2272.png,True,-0.6991548614173577,0.1185311377048492,1.0,-0.016308305396045768,25.946640640497208,10,3.067099567099567,10,31.604551117153477,10
subject-01,1,184,0.663590908050537,knife,knife,90,90_knife_20_n03041632_50648.png,True,-1.3817569609532616,1.7794973246054724e-05,1.0,-1.0728841814970589e-06,24.20673778951823,10,4.249675324675325,8,30.20053518813372,9
subject-01,1,185,0.937499046325684,bottle,knife,0,0_knife_20_n03041632_33225.png,False,-0.049416692823296665,2.0231289863586426,0.25,-2.617155526096568,28.278916835784912,10,1.5116161616161614,7,38.28625722291908,6
subject-01,1,186,0.913179159164429,airplane,airplane,0,0_airplane_20_n02690373_736.png,True,-0.16771315960723737,0.0002441048563923,1.0,-1.7643130492738116e-05,23.218778097623726,9,6.283333333333333,0,20.733809712577383,9
subject-01,1,187,1.08919501304626,bottle,knife,270,270_knife_20_n03041632_2546.png,False,0.6884607804327247,0.6241004467010498,1.0,-0.15617950303657677,25.85991370677948,10,3.829040404040404,8,34.14607691570886,10
subject-01,1,188,1.15701389312744,airplane,boat,180,180_boat_20_n04273569_13053.png,False,1.0183444612924255,0.0150362271815538,1.0,-0.001760899774219486,25.626883389428258,10,3.0982905982905984,10,27.797165991436458,10
subject-01,1,189,1.4551088809967,bear,airplane,180,180_airplane_20_n02690373_3588.png,False,2.468334076668396,0.8179761171340942,1.0,-0.24412334768068364,26.825708627700806,10,5.583333333333334,0,22.10008465093245,10
subject-01,1,190,0.546577215194702,cat,keyboard,0,0_keyboard_20_n03085013_21004.png,False,-1.9509333859261238,0.1067298427224159,1.0,-0.021976037752655542,25.029042460024357,10,1.9261904761904758,10,37.72438828891782,10
subject-01,1,191,1.05639696121216,boat,boat,180,180_boat_20_n03662601_16627.png,True,0.528924939511892,0.134582981467247,1.0,-0.02076258082599943,25.97899554669857,10,3.0,10,26.70981971396625,10
subject-01,1,192,1.3643159866333,elephant,bird,180,180_bird_20_n02017213_6478.png,False,2.026700505712158,2.022993326187134,0.25,-2.3031473824540156,27.94026482105255,10,1.1396825396825392,9,36.11367455253999,6
subject-01,1,193,0.793920040130615,bear,bear,90,90_bear_20_n02134418_998.png,True,-0.7478117562792457,0.2454655766487121,1.0,-0.0464511604491679,26.35739117860794,10,2.8285714285714283,10,30.433307083271238,10
subject-01,1,194,1.14582204818726,car,truck,90,90_truck_20_n04467665_71055.png,False,0.9639052402368993,1.484302043914795,0.3333333333333333,-1.926312496257828,27.432299613952637,10,0.9411477411477407,9,43.763392956709055,6
subject-01,1,195,0.727725028991699,car,car,90,90_car_20_n02814533_23979.png,True,-1.0697966357540432,0.582849383354187,0.125,-5.5243387194858435,26.486647725105286,10,0.34888167388167346,9,49.39635542199494,6
subject-01,1,196,0.993421077728271,bear,elephant,180,180_elephant_20_n02504458_6805.png,False,0.22259849731483247,1.3384535312652588,0.1666666666666666,-4.63799493463842,27.649453163146973,10,3.308008658008658,8,36.79621138313686,6
subject-01,1,197,0.693391084671021,clock,clock,90,90_clock_20_n04548280_4841.png,True,-1.2368033441718123,1.8976664543151855,1.0,-1.0455051974640617,25.782296657562256,10,9.0,4,17.376391646965757,10
subject-01,1,198,0.667504072189331,boat,boat,90,90_boat_20_n03662601_6832.png,True,-1.3627226007814577,1.3944921493530271,0.3333333333333333,-1.5839517913731154,26.847642183303833,10,1.8894230769230766,10,30.746172778533563,10
subject-01,1,199,0.94675612449646,oven,oven,270,270_oven_20_n04111531_766.png,True,-0.004388538165977662,0.0454299822449684,1.0,-0.00613337282445054,25.756253518164158,10,1.6470238095238094,10,52.71892362550097,10
subject-01,1,200,0.742691993713379,clock,clock,0,0_clock_20_n04548280_1305.png,True,-0.9969945280257083,0.07614616304636,1.0,-0.011440019400019808,25.13546446710825,10,8.916666666666666,10,18.121879206994205,10
subject-01,1,201,0.870580911636353,bicycle,bicycle,0,0_bicycle_20_n03792782_19083.png,True,-0.37491898010904157,0.001004556659609,1.0,-8.172130708222816e-05,25.69874463463202,10,3.1833333333333327,9,29.250768970310197,9
subject-01,1,202,1.50008916854858,elephant,bird,90,90_bird_20_n01860187_20081.png,False,2.687126584093767,0.9314229488372804,1.0,-0.316389875938675,27.771899700164795,10,1.7091269841269838,10,33.77268160666741,10
subject-01,1,203,0.786112070083618,oven,oven,0,0_oven_20_n04111531_4817.png,True,-0.7857911787654689,0.0013466665986925,1.0,-0.0001151031931795535,25.619207699084654,10,2.34775641025641,9,50.769967161203,6
subject-01,1,204,0.755856037139893,car,car,180,180_car_20_n02814533_33360.png,True,-0.9329621657198544,0.5117268562316895,1.0,-0.1497895438306101,25.93024444580078,10,2.8308913308913306,9,42.25553556987701,10
subject-01,1,205,0.673985958099365,clock,clock,270,270_clock_20_n04548280_4035.png,True,-1.3311934988506222,0.0167488418519496,1.0,-0.0018407945376917904,24.271510656923056,10,9.583333333333332,4,15.721803562895941,10
subject-01,1,206,0.7295081615448,keyboard,keyboard,270,270_keyboard_20_n03085013_7879.png,True,-1.0611231464635447,0.0431331284344196,1.0,-0.005850527991197505,24.759192932397127,10,2.4480519480519476,9,38.2074098861847,10
subject-01,1,207,0.669287204742432,airplane,airplane,0,0_airplane_20_n02690373_2598.png,True,-1.3540491114909596,0.0020874959882348,1.0,-0.00018973958373635696,25.207072876160964,10,5.5,0,21.715947858781863,9
subject-01,1,208,0.61906099319458,cat,cat,180,180_cat_20_n02123045_436.png,True,-1.5983587715916625,0.0095899626612663,1.0,-0.0010594375202300974,24.16401582211256,10,5.559523809523809,6,25.7778858887169,9
subject-01,1,209,0.861243009567261,airplane,airplane,270,270_airplane_20_n02690373_813.png,True,-0.42034027728133616,1.569795846939087,0.5,-1.2862814826296693,27.010585069656372,10,2.565079365079365,10,28.365915551134524,10
subject-01,1,210,0.824725151062012,cat,cat,0,0_cat_20_n02123159_1008.png,True,-0.5979699515903966,0.0026223475579172,1.0,-0.00024071252453832035,23.980201285565272,9,5.465079365079365,6,26.118403117501487,9
subject-01,1,211,0.856802940368652,bottle,bottle,90,90_bottle_20_n03983396_5452.png,True,-0.44193760193128073,0.0202753022313117,1.0,-0.002360206402651331,25.70525450259447,10,6.361111111111111,1,21.117669243336685,10
subject-01,1,212,1.00657820701599,dog,dog,90,90_dog_20_n02090379_13010.png,True,0.2865972279601088,0.4099309146404266,1.0,-0.10694874326826047,26.463982075452805,10,2.0328144078144077,10,36.94893778597813,10
subject-01,1,213,1.10631704330444,airplane,chair,180,180_chair_20_n04099969_4162.png,False,0.7717455288478938,0.7972865104675293,0.5,-2.149265792168863,26.963101148605347,10,0.7190476190476185,10,47.96362574249705,7
subject-01,1,214,1.12836217880249,keyboard,keyboard,270,270_keyboard_20_n04505470_206.png,True,0.8789771793033792,0.0384860448539257,1.0,-0.005347816940348969,23.915747325867414,10,2.881385281385281,9,38.87030949840934,10
subject-01,1,215,0.616216897964478,cat,cat,0,0_cat_20_n02123045_5290.png,True,-1.6121929812114395,1.2067127227783203,1.0,-0.6477794498921609,26.3436381816864,10,3.302380952380952,9,33.7634815455798,10
subject-01,1,216,1.42578601837158,elephant,bird,180,180_bird_20_n01843383_6001.png,False,2.3257022041789197,1.763352632522583,0.1666666666666666,-3.2287048368950337,27.456824779510498,10,0.6770202020202017,10,38.86669793878552,6
subject-01,1,217,1.00961494445801,knife,knife,0,0_knife_20_n03041632_24376.png,True,0.3013684852262104,1.163306474685669,1.0,-0.45404037592157354,26.102573037147522,10,2.4786435786435783,10,35.53463889433852,10
subject-01,1,218,0.973375797271729,bicycle,bicycle,90,90_bicycle_20_n02835271_2915.png,True,0.125094514751957,0.444088339805603,1.0,-0.08660933237511875,26.150736689567566,10,3.1845238095238093,9,31.222709446476713,10
subject-01,1,219,0.743526935577393,bicycle,bicycle,0,0_bicycle_20_n03792782_5517.png,True,-0.9929332150834259,0.0470779724419117,1.0,-0.006274195459174874,24.594848234206438,10,2.882081807081807,9,32.876753774289554,6
subject-01,1,220,0.742935180664062,bicycle,bicycle,90,90_bicycle_20_n02835271_7053.png,True,-0.9958116213434939,0.0601965747773647,1.0,-0.008680718984395033,25.386874850839376,10,2.4337662337662334,10,32.04163992128881,10
subject-01,1,221,0.740753889083862,clock,clock,180,180_clock_20_n04548280_7115.png,True,-1.0064218303980124,0.2728781700134277,1.0,-0.043456719339136855,24.166148245334625,10,7.916666666666666,4,16.900540979270883,10
subject-01,1,222,1.02456212043762,car,boat,270,270_boat_20_n04273569_29866.png,False,0.3740743368225387,0.3728914856910705,0.1,-6.30172605944588,25.485082924365997,10,1.2589285714285714,3,39.1805456525954,3
subject-01,1,223,0.65854287147522,clock,clock,90,90_clock_20_n02708093_3623.png,True,-1.4063115523087462,0.0292290467768907,1.0,-0.0038423950033969214,24.13053214736283,10,9.75,4,15.242234072082967,9
subject-01,1,224,0.98232889175415,bear,bear,180,180_bear_20_n02132136_7468.png,True,0.1686440360565017,1.4076465368270874,1.0,-0.92677224614748,27.718329548835754,10,2.060714285714285,10,32.06691931239064,10
subject-01,1,225,0.715999126434326,cat,cat,0,0_cat_20_n02123159_2137.png,True,-1.1268336126607414,0.0026696724817156,1.0,-0.00023373712655841279,24.942497829906642,10,5.498412698412698,6,25.57219587199076,9
subject-01,1,226,0.786041975021362,bottle,bottle,90,90_bottle_20_n03937543_5257.png,True,-0.7861321342209328,0.0214486848562955,1.0,-0.0025957508633842915,25.16757090203464,10,5.009523809523809,10,22.88865898887447,10
subject-01,1,227,0.727654218673706,cat,cat,0,0_cat_20_n02123394_937.png,True,-1.0701410703468055,0.0148695241659879,1.0,-0.001688773063798403,25.19334108941257,10,4.798412698412698,7,29.31658340343539,9
subject-01,1,228,0.735316038131714,boat,boat,0,0_boat_20_n03662601_11764.png,True,-1.0328725515823454,0.1054389476776123,1.0,-0.015830648823608084,25.39293372631073,10,2.944444444444444,10,27.375222050974664,10
subject-01,1,229,1.02131390571594,bear,bear,0,0_bear_20_n02132136_10412.png,True,0.3582744146278951,0.0018990016542375,1.0,-0.0001732857154643436,26.14307522540912,10,3.3952380952380947,9,29.20778165528398,10
subject-01,1,230,0.714964151382446,clock,clock,270,270_clock_20_n03196217_3600.png,True,-1.1318679243347685,0.0016036946326494,1.0,-0.00013304641742087337,24.52457961626351,10,10.583333333333332,2,15.22612010700214,10
subject-01,1,231,0.975135087966919,dog,dog,270,270_dog_20_n02102177_255.png,True,0.1336520327990966,1.5563173294067385,0.1428571428571428,-4.002794032990292,27.57873046398163,10,1.146103896103896,9,40.692816051409324,6
subject-01,1,232,0.872668981552124,bird,bird,270,270_bird_20_n01614925_1860.png,True,-0.36476221861604097,0.8462774753570557,1.0,-0.25817167729762874,26.693384766578674,10,2.246825396825397,10,33.091617711606936,10
subject-01,1,233,1.2689061164856,airplane,airplane,180,180_airplane_20_n02690373_1021.png,True,1.562609103480296,0.0096011785790324,1.0,-0.0009778152659486521,26.334416928701103,10,6.249999999999999,0,22.301966223089032,10
subject-01,1,234,0.74835205078125,chair,chair,180,180_chair_20_n03376595_9079.png,True,-0.9694629548533081,0.0024968450888991,1.0,-0.00021674597611530402,25.535034186206758,10,2.2050366300366298,9,43.462144964997876,10
subject-01,1,235,0.778028011322021,chair,chair,90,90_chair_20_n02791124_5199.png,True,-0.8251135482497415,0.1061873137950897,1.0,-0.013997491365337853,24.52833816409111,10,2.056202131202131,9,43.583750554769914,9
subject-01,1,236,0.786395072937012,keyboard,keyboard,90,90_keyboard_20_n03085013_24294.png,True,-0.7844146001068467,0.961845636367798,0.5,-1.1423908713719457,25.394031047821045,10,2.1464285714285714,9,39.3549780148869,10
subject-01,1,237,0.711734056472778,cat,cat,0,0_cat_20_n02123597_13286.png,True,-1.1475797083844603,0.0023427624255418,1.0,-0.00021310931124829733,24.441819371655583,10,4.984523809523809,7,27.95687666498963,9
subject-01,1,238,0.633449077606201,bird,bird,180,180_bird_20_n01560419_17392.png,True,-1.5283724456519814,0.7755637168884277,1.0,-0.17640841179085012,26.610920190811157,10,2.106349206349206,10,32.49802575159455,10
subject-01,1,239,0.717660903930664,oven,oven,270,270_oven_20_n04111531_6934.png,True,-1.1187504169989198,0.296488881111145,1.0,-0.06896080895954525,26.09738576412201,10,1.1075757575757574,10,56.20778138916385,10
subject-01,1,240,0.945204019546509,clock,clock,90,90_clock_20_n03196217_6707.png,True,-0.011938266108366177,0.8566229343414307,0.3333333333333333,-3.38703830332772,25.489150047302246,10,8.25,4,20.548537780502773,4
subject-01,1,241,1.06079506874084,knife,knife,180,180_knife_20_n03041632_15174.png,True,0.5503181547734983,1.2439182996749878,0.3333333333333333,-1.6140237233479746,27.204864144325256,10,1.6258658008658005,5,35.45811618078219,10
subject-01,1,242,0.632222890853882,oven,oven,180,180_oven_20_n04111531_13644.png,True,-1.534336846697711,0.0698719322681427,1.0,-0.009244783925815833,25.450491577386856,10,1.3375,10,55.340244886654425,6
subject-01,1,243,0.728299140930176,elephant,elephant,0,0_elephant_20_n02504458_3458.png,True,-1.0670040482140604,0.0002959107805509,1.0,-2.110026685944232e-05,24.301749262755038,10,4.024242424242424,8,31.363189166637213,6
subject-01,1,244,0.763720035552979,clock,clock,90,90_clock_20_n04548280_18914.png,True,-0.8947102108117471,0.0001265888276975,1.0,-8.583105682291418e-06,24.932075608259765,10,10.0,2,17.266895620600554,10
subject-01,1,245,0.905965089797974,dog,dog,180,180_dog_20_n02107908_2754.png,True,-0.20280373842149613,2.3235456943511963,0.5,-1.6933087859130016,28.381564140319824,5,1.1238566988566987,10,40.28419050496197,6
subject-01,1,246,0.93161678314209,airplane,airplane,0,0_airplane_20_n02690373_1306.png,True,-0.07802911798376466,0.0002699161996133,1.0,-1.966972622378643e-05,24.710323360108305,10,6.916666666666666,0,19.613417978244183,9
subject-01,1,247,0.769255876541138,chair,chair,90,90_chair_20_n03376595_10266.png,True,-0.8677828478172247,1.2192163467407229,0.3333333333333333,-2.4060230987227786,26.724546313285828,10,0.7809274059274054,9,46.941372133957444,7
subject-01,1,248,0.868831872940063,keyboard,keyboard,270,270_keyboard_20_n04505470_1416.png,True,-0.38342663052154513,0.0010117592755705,1.0,-8.595359167012722e-05,24.384058505529538,10,2.7980519480519477,9,35.181614300425856,9
subject-01,1,249,0.657024145126343,clock,clock,180,180_clock_20_n04548280_4686.png,True,-1.4136989205104393,9.027689520735294e-05,1.0,-6.02008724311432e-06,23.844891583619756,10,9.0,4,15.78544819700648,10
subject-01,1,250,1.10243010520935,truck,truck,270,270_truck_20_n04467665_69882.png,True,0.7528387370437934,0.9536359310150146,0.3333333333333333,-3.244502668020809,25.457138776779175,10,0.6037601287601284,10,47.74224738987759,6
subject-01,1,251,0.740628957748413,bottle,bottle,270,270_bottle_20_n04591713_2123.png,True,-1.0070295197131898,0.8324095606803894,0.5,-1.9620978225134236,26.373800575733185,10,6.366666666666666,1,21.493689702336756,1
subject-01,1,252,,na,oven,90,90_oven_20_n04111531_6933.png,False,,0.4089913964271545,1.0,-0.11973839149416088,26.557105123996735,10,1.2065476190476188,10,54.31429803466541,10
subject-01,1,253,1.25010418891907,car,car,270,270_car_20_n03100240_8898.png,True,1.471153021258355,0.0264717321842908,0.1428571428571428,-8.923175633648126,25.58160304836929,10,0.41187978687978627,7,53.92865416786757,6
subject-01,1,254,0.883949041366577,elephant,elephant,180,180_elephant_20_n02504458_5277.png,True,-0.3098939039600758,0.003421125235036,1.0,-0.00029878311084290154,25.58224326116033,10,3.787301587301587,8,32.77183301188191,10
subject-01,1,255,0.907590866088867,truck,truck,270,270_truck_20_n03417042_9967.png,True,-0.19489565933714326,0.0222473572939634,0.5,-6.232219399500886,25.565064234659076,10,1.624358974358974,7,47.778024356890285,6
subject-01,1,256,0.851587057113647,bear,bear,0,0_bear_20_n02134418_1017.png,True,-0.46730863083998436,0.0791706070303917,1.0,-0.011064962635285567,26.502952836453915,10,2.2702380952380947,10,30.677178502647678,10
subject-01,1,257,1.12345790863037,car,airplane,90,90_airplane_20_n02690373_1909.png,False,0.8551218945453174,1.679114580154419,0.2,-2.8755336265255487,27.498631715774536,10,2.5547619047619046,0,29.046079897700874,10
subject-01,1,258,0.835148096084595,airplane,airplane,0,0_airplane_20_n02690373_6753.png,True,-0.5472708031330322,0.000238038788666,1.0,-1.6987468047204637e-05,23.887609817276825,9,7.083333333333333,0,18.44154385233665,9
subject-01,1,259,0.753031969070435,airplane,airplane,0,0_airplane_20_n02690373_1972.png,True,-0.9466989594952161,0.0002959523990284,1.0,-2.187514389178389e-05,24.425202802260173,10,6.083333333333333,0,21.711846531350343,9
subject-01,1,260,0.708610057830811,oven,oven,90,90_oven_20_n04111531_9915.png,True,-1.1627754204012202,0.5539568662643433,1.0,-0.1491554033831771,26.11691689491272,10,1.0186868686868686,10,58.775951574576666,10
subject-01,1,261,0.832455158233643,elephant,elephant,270,270_elephant_20_n02504458_485.png,True,-0.5603697550699421,0.0133233722299337,1.0,-0.0013403931076429554,26.223528331145644,10,5.376190476190477,6,30.41649093443407,10
subject-01,1,262,1.06638407707214,elephant,elephant,180,180_elephant_20_n02504013_2431.png,True,0.5775041336407075,0.0048433216288685,1.0,-0.0004306766817471312,25.70799478609115,10,4.683333333333334,7,30.617131357945095,10
subject-01,1,263,0.700225830078125,clock,clock,180,180_clock_20_n02708093_1038.png,True,-1.2035578678393286,0.0041924980469048,1.0,-0.00038720712281946064,24.96849336894229,10,9.75,4,17.191354901119407,10
subject-01,1,264,0.679963111877441,cat,cat,270,270_cat_20_n02123597_5927.png,True,-1.3021195081416053,0.0888710618019104,1.0,-0.015237439176771483,25.43130737543106,10,4.871825396825397,7,28.480707825988745,9
subject-01,1,265,0.672258853912354,bicycle,bicycle,90,90_bicycle_20_n03792782_3202.png,True,-1.3395944557192319,0.0751944705843925,1.0,-0.012690138937101188,26.090012662112713,10,2.2107142857142854,10,31.09946114768819,10
subject-01,1,266,0.957509994506836,car,car,270,270_car_20_n02814533_45480.png,True,0.04792029114915078,1.0531076192855835,0.3333333333333333,-2.5388192437298818,26.455772757530212,10,0.8785714285714281,9,45.201283679129794,6
subject-01,1,267,1.21364092826843,truck,truck,90,90_truck_20_n03796401_4571.png,True,1.2937889210965505,2.047912836074829,1.0,-0.9838864740943977,26.63779306411743,10,1.331227106227106,10,45.2007296989123,10
subject-01,1,268,0.65937614440918,oven,oven,90,90_oven_20_n04111531_21011.png,True,-1.4022583573534997,0.7848628163337708,0.5,-1.9467761323643962,26.109200298786163,10,0.676923076923077,10,58.103607273466785,6
subject-01,1,269,0.76322603225708,airplane,airplane,0,0_airplane_20_n02690373_4310.png,True,-0.8971131349740588,0.0001598453090991,1.0,-1.0848104189701602e-05,23.818349943117937,10,7.083333333333333,0,19.167297186285428,9
subject-01,1,270,1.06085991859436,oven,oven,0,0_oven_20_n04111531_7134.png,True,0.5506335965554435,0.9904074668884276,1.0,-0.5276406665007806,26.854161739349365,10,1.0935897435897435,10,57.06130085752305,6
subject-01,1,271,1.15880703926086,dog,dog,270,270_dog_20_n02105251_1092.png,True,1.027066658505117,0.6289669871330261,0.5,-2.043681623766407,26.648259818553925,10,1.942099567099567,8,36.1361422805503,6
subject-01,1,272,1.09253287315369,knife,knife,180,180_knife_20_n03041632_34505.png,True,0.7046967545024198,0.0083043482154607,1.0,-0.0007836312003812372,26.361728420481086,10,3.231818181818182,7,34.076313560283445,10
subject-01,1,273,0.760502099990845,keyboard,keyboard,90,90_keyboard_20_n04505470_4520.png,True,-0.9103628495273292,0.1863018572330474,1.0,-0.03648186202319269,25.113323241472244,10,2.336122211122211,9,38.97935357365408,10
subject-01,1,274,0.854146003723145,car,boat,180,180_boat_20_n03344393_1519.png,False,-0.45486143729072237,1.4151098728179932,0.5,-1.2128023220016901,27.283055782318115,10,1.7783730158730158,10,31.601495551093663,10
subject-01,1,275,1.18414306640625,chair,chair,270,270_chair_20_n03376595_9535.png,True,1.150305819680854,0.0556961074471473,0.5,-5.271370832733904,25.02427516132593,10,0.7478937728937726,10,50.48949048177039,7
subject-01,1,276,1.03597283363342,bear,cat,270,270_cat_20_n02125311_1326.png,False,0.4295781738920837,1.293912410736084,1.0,-0.4050246671869736,26.958776473999023,10,4.256746031746031,8,31.46584785706609,10
subject-01,1,277,0.751894950866699,cat,cat,90,90_cat_20_n02123394_2948.png,True,-0.9522296280908039,0.0261059589684009,1.0,-0.0035184457753425764,26.0483706779778,10,5.442857142857143,6,27.606166209276218,10
subject-01,1,278,0.681572914123535,oven,oven,270,270_oven_20_n04111531_5429.png,True,-1.2942891297902959,0.3996704220771789,1.0,-0.09291484610458425,25.867331445217133,10,1.1879329004329002,10,55.73667952512506,6
subject-01,1,279,1.03113508224487,bear,elephant,0,0_elephant_20_n02504013_6645.png,False,0.40604644890298475,0.0445033721625804,1.0,-0.00571947629213367,26.670849960297346,10,5.2004329004329,6,31.5415032080778,10
subject-01,1,280,1.00289297103882,oven,keyboard,90,90_keyboard_20_n04505470_4159.png,False,0.268671552874789,0.0324079506099224,1.0,-0.004809722095789476,25.080657433718443,10,2.7793040293040288,9,38.74860715870776,10
subject-01,1,281,0.917140960693359,bottle,bottle,90,90_bottle_20_n02823428_6252.png,True,-0.14844221809899363,1.182132124900818,1.0,-0.5386497980476046,26.2263286113739,10,5.5555555555555545,10,21.805486860462917,10
subject-01,1,282,1.26669692993164,airplane,airplane,180,180_airplane_20_n02690373_15097.png,True,1.5518632080710277,1.693980693817139,1.0,-1.0225612548332819,27.41589379310608,10,4.783333333333333,0,25.04027911730462,10
subject-01,1,283,0.93033504486084,oven,cat,0,0_cat_20_n02123159_3420.png,False,-0.08426373202651219,0.277650773525238,0.3333333333333333,-4.9490707308060875,25.35802859067917,10,2.6234126984126984,9,38.222057452472264,6
subject-01,1,284,0.698273897171021,cat,cat,0,0_cat_20_n02124075_7835.png,True,-1.2130524335327741,0.1010343581438064,1.0,-0.013245236286763848,25.878014758229256,10,5.397222222222222,6,29.575661203635423,10
subject-01,1,285,0.652164936065674,cat,cat,90,90_cat_20_n02123045_6696.png,True,-1.4373350196185564,0.1557913422584533,1.0,-0.02840088197722216,25.430691182613373,10,5.28452380952381,6,28.47370920658184,9
subject-01,1,286,0.707879066467285,boat,boat,180,180_boat_20_n02951358_34766.png,True,-1.1663310987224773,0.8141289949417114,0.5,-1.4048559235000635,26.893853068351746,10,2.134722222222222,10,30.374306643276945,10
subject-01,1,287,0.937694072723389,bird,bird,0,0_bird_20_n01855672_8191.png,True,-0.048468048052655935,0.4365800619125366,1.0,-0.07782647680067582,26.63592302799225,10,1.647222222222222,10,34.74262048868734,10
subject-01,1,288,1.10736608505249,truck,truck,180,180_truck_20_n03796401_1150.png,True,0.7768482635555148,0.1259843409061432,1.0,-0.018515840262618804,24.99106076359749,10,2.756202131202131,9,42.36488200991694,10
subject-01,1,289,0.891158819198608,bicycle,bicycle,270,270_bicycle_20_n03792782_9782.png,True,-0.27482419996962254,1.5376365184783936,1.0,-0.7716713419173759,27.062639474868774,10,2.096367521367521,10,33.24017495311613,10
subject-01,1,290,0.775049924850464,boat,boat,270,270_boat_20_n03662601_12969.png,True,-0.8395995162571718,1.8878624439239504,0.1666666666666666,-3.01375064901018,27.551458716392517,10,1.8434523809523806,10,30.89966516531703,3
subject-01,1,291,1.06514286994934,truck,bottle,180,180_bottle_20_n02823428_4530.png,False,0.5714666707116759,0.1564026176929474,1.0,-0.028418910730508718,25.25641956925392,10,5.758333333333333,10,23.29188288754326,10
subject-01,1,292,1.11689305305481,chair,chair,0,0_chair_20_n02791124_2898.png,True,0.8231892126876141,0.0068692918866872,1.0,-0.0007050734303316821,25.44713661633432,10,2.252319902319902,9,44.47838252201955,10
subject-01,1,293,1.11858582496643,cat,cat,270,270_cat_20_n02123394_686.png,True,0.831423170965791,0.0380194000899791,1.0,-0.0055308423581999794,26.5694551281631,10,5.33015873015873,6,29.082186147646453,10
subject-01,1,294,0.970471143722534,dog,dog,180,180_dog_20_n02100735_4364.png,True,0.11096573817405324,0.8171606063842773,0.1428571428571428,-5.002301530381922,27.162654995918274,10,1.2828754578754578,9,41.6206107435525,6
subject-01,1,295,1.01411604881287,dog,dog,0,0_dog_20_n02102177_7968.png,True,0.32326269625914783,0.2643074691295624,1.0,-0.058622610987376166,26.433270186185837,10,2.6865440115440116,10,33.02667971720278,10
subject-01,1,296,1.30983781814575,knife,knife,270,270_knife_20_n03041632_15099.png,True,1.7617085340715783,1.259021520614624,1.0,-1.0389652118795671,27.53813660144806,10,4.426262626262626,7,33.92443878047911,10
subject-01,1,297,0.895869970321655,oven,oven,180,180_oven_20_n04111531_2937.png,True,-0.25190828228273693,0.0040111308917403,1.0,-0.0003772493417243726,24.865252829156816,10,2.3375,9,55.933913341086594,6
subject-01,1,298,0.66958212852478,cat,cat,0,0_cat_20_n02123394_3695.png,True,-1.352614547210665,0.0065829618833959,1.0,-0.0006760259165000856,25.70119904121384,10,5.40515873015873,6,27.43569594596167,10
subject-01,1,299,0.9095139503479,bear,bear,180,180_bear_20_n02134084_3696.png,True,-0.18554141884815595,0.0486451722681522,1.0,-0.0062574012585477285,25.55677965655923,10,2.102380952380952,10,33.487520223854936,10
subject-01,1,300,1.04728603363037,oven,oven,270,270_oven_20_n04111531_4671.png,True,0.484607688576321,0.9124245643615724,0.5,-1.21998067511327,26.892791390419006,10,0.6964285714285714,10,57.57264205601984,6
subject-01,1,301,1.18116784095764,dog,bear,180,180_bear_20_n02133161_2741.png,False,1.135833768222616,1.4116849899291992,0.3333333333333333,-2.533247865277166,27.845033407211304,10,1.3718253968253964,10,34.15266970817973,0
subject-01,1,302,0.706856966018677,boat,boat,90,90_boat_20_n03662601_3893.png,True,-1.1713027859250909,1.7426795959472656,0.5,-1.432404102817583,26.63023591041565,10,2.2642857142857142,10,31.358567755901802,10
subject-01,1,303,1.15849781036377,truck,boat,90,90_boat_20_n03344393_2790.png,False,1.0255625114788294,1.189536452293396,0.5,-2.0003035097528876,26.156131386756897,10,2.131684981684981,10,30.752510692675344,10
subject-01,1,304,0.786317110061646,keyboard,keyboard,180,180_keyboard_20_n03085013_3920.png,True,-0.784793826072616,0.7856513857841492,0.3333333333333333,-3.1114041857394885,24.66253012418747,10,2.5856893106893106,9,39.3439128824959,6
subject-01,1,305,0.720304012298584,chair,chair,90,90_chair_20_n04099969_1962.png,True,-1.1058938449606195,1.4394360780715942,0.5,-1.030290110853105,27.218793749809265,10,0.7900183150183147,10,45.50586089384588,10
subject-01,1,306,0.908137083053589,knife,knife,0,0_knife_20_n03041632_13846.png,True,-0.19223875815188596,0.0032033608295023,1.0,-0.0003151794207434234,25.64835044601932,10,4.248484848484848,7,33.91897369360603,10
subject-01,1,307,0.786009073257446,boat,boat,0,0_boat_20_n02951358_30117.png,True,-0.7862921745367623,0.8088924884796143,0.5,-1.0385943316022725,27.058687925338745,10,1.9444444444444444,10,29.718089516037978,10
subject-01,1,308,1.03589606285095,elephant,elephant,270,270_elephant_20_n02504458_9922.png,True,0.4292047464884849,0.4827277660369873,1.0,-0.10055591499719099,26.884202241897583,10,3.126190476190476,9,32.44968084676778,10
subject-01,1,309,0.593940019607544,boat,boat,180,180_boat_20_n03344393_5609.png,True,-1.7205518721523194,1.2346835136413574,0.5,-1.4194079909117263,26.31031620502472,10,2.01025641025641,10,30.305519357245007,10
subject-01,1,310,0.779311180114746,chair,chair,0,0_chair_20_n02791124_3180.png,True,-0.8188719759323911,0.0029967387672513,1.0,-0.0002910918435583062,25.914534982061014,10,2.4142246642246636,9,44.85911265935409,10
subject-01,1,311,1.47717690467834,bear,boat,90,90_boat_20_n02951358_12532.png,False,2.5756770595174836,2.069862365722656,0.3333333333333333,-1.798230147796186,28.15486240386963,10,1.5200757575757575,10,33.50389674649714,10
subject-01,1,312,1.34481000900269,boat,cat,180,180_cat_20_n02123597_1901.png,False,1.9318197926739868,0.5983286499977112,1.0,-0.15696315231411065,26.87257581949234,10,5.617857142857142,6,26.528206257621985,10
subject-01,1,313,0.773094892501831,elephant,elephant,270,270_elephant_20_n02504013_5173.png,True,-0.849109158212256,1.0117793083190918,0.3333333333333333,-3.26823896217359,27.395990133285522,10,2.140909090909091,8,35.585549781692414,6
subject-01,1,314,1.14880585670471,clock,car,180,180_car_20_n04285008_4834.png,False,0.9784190413427071,1.083551049232483,1.0,-0.41018867924847163,26.318397164344788,10,2.1856532356532354,10,42.16023295972209,6
subject-01,1,315,0.948256969451904,truck,truck,270,270_truck_20_n03417042_28584.png,True,0.0029118516031977526,0.4526242613792419,0.5,-2.3763091038515674,25.446418344974518,10,0.9036019536019533,10,45.604148699498154,6
subject-01,1,316,1.08224701881409,dog,dog,180,180_dog_20_n02093428_11151.png,True,0.654664440694342,1.5252244472503662,1.0,-0.6471900778751677,27.13676118850708,10,2.453943278943279,10,36.89565714613641,6
subject-01,1,317,0.945955038070679,bicycle,bicycle,90,90_bicycle_20_n03792782_1475.png,True,-0.008285171942693252,1.4462636709213257,0.0769230769230769,-6.3896295802451455,27.544463753700256,10,0.8753718503718502,3,39.983853931577286,6
subject-01,1,318,0.883764982223511,oven,knife,0,0_knife_20_n03041632_8666.png,False,-0.31078920195877235,0.3695212006568908,1.0,-0.10531060794734487,26.47465354204178,10,2.9774531024531026,9,33.960878820631144,10
subject-01,1,319,0.789606094360352,clock,clock,0,0_clock_20_n04548280_253.png,True,-0.7687955930518381,0.0158383212983608,1.0,-0.0018459897097047701,24.171145495027304,10,9.0,4,15.358789418522514,10
subject-01,1,320,0.935473203659058,airplane,airplane,180,180_airplane_20_n02690373_9441.png,True,-0.05927076937114427,0.0009204420493915,1.0,-7.510467270231707e-05,25.44137695163954,10,5.666666666666666,0,22.47702408511751,10
subject-01,1,321,0.828404903411865,airplane,airplane,270,270_airplane_20_n02690373_1946.png,True,-0.5800709498910381,1.2786754369735718,0.2,-3.588865362158541,27.054381847381592,10,2.2111111111111112,10,30.407493323407564,4
subject-01,1,322,0.82406210899353,car,car,90,90_car_20_n03100240_5044.png,True,-0.6011951118680929,0.7305834293365479,1.0,-0.18303938276690518,25.934306740760803,10,2.5725940725940726,9,42.7917696156342,10
subject-01,1,323,0.94841194152832,dog,dog,270,270_dog_20_n02111500_6559.png,True,0.003665664685003165,0.6167096495628357,0.5,-1.7510228322019656,26.591969907283783,10,2.026262626262626,8,35.461507935394536,6
subject-01,1,324,0.877915143966675,dog,dog,270,270_dog_20_n02096051_1852.png,True,-0.3392439062282763,1.738227605819702,0.5,-1.1519056990503032,27.906893253326416,10,1.2318181818181817,9,38.083079948763384,10
subject-01,1,325,1.02365589141846,cat,bear,270,270_bear_20_n02133161_5020.png,False,0.36966626986265116,1.9193871021270752,0.5,-1.6277454338529347,27.78063714504242,10,1.828571428571428,10,34.14492634780979,6
subject-01,1,326,0.869577169418335,chair,chair,90,90_chair_20_n02791124_2034.png,True,-0.37980136945427573,1.9009370803833008,1.0,-1.233222289416596,27.32939922809601,10,1.3545634920634917,10,47.06339749395725,7
subject-01,1,327,1.40127921104431,clock,clock,180,180_clock_20_n03196217_6526.png,True,2.206496522847081,0.0554598271846771,1.0,-0.007082089632023859,24.46983179450035,10,9.083333333333332,3,16.827020366793423,10
subject-01,1,328,1.18110680580139,boat,oven,180,180_oven_20_n04111531_9779.png,False,1.135536881839628,0.4582321047782898,0.2,-4.817673674721716,26.168183028697968,10,0.3837662337662337,8,60.08594347706381,6
subject-01,1,329,0.625093936920166,boat,boat,0,0_boat_20_n03662601_28640.png,True,-1.5690134081731941,0.0019438457675278,1.0,-0.00016738385042430124,25.661044378299266,10,4.366666666666667,9,23.79017766533189,10
subject-01,1,330,1.03861808776855,knife,knife,90,90_knife_20_n03041632_31301.png,True,0.44244518334227667,0.0005854008486494,1.0,-4.744642280492804e-05,25.570452654152177,10,4.473484848484849,7,31.748910834905153,10
subject-01,1,331,1.26845598220825,keyboard,keyboard,90,90_keyboard_20_n03085013_9209.png,True,1.5604195664057294,0.0050486922264099,1.0,-0.0004987171922941603,23.312170326709747,10,2.6635281385281386,9,39.278955574041476,10
subject-01,1,332,1.14425587654114,bear,elephant,90,90_elephant_20_n02504458_113.png,False,0.9562870892609207,1.7819095849990845,0.0769230769230769,-5.128935602726551,27.662168860435486,10,1.5713675213675211,9,39.03406450966227,6
subject-01,1,333,0.850161075592041,bicycle,bicycle,180,180_bicycle_20_n03792782_6058.png,True,-0.47424487090502554,1.8119540214538576,0.5,-1.5991032886825514,28.144830346107483,10,1.470238095238095,10,33.05413836415282,10
subject-01,1,334,0.891950845718384,keyboard,keyboard,0,0_keyboard_20_n04505470_4651.png,True,-0.2709716352653769,0.0001500588550698,1.0,-1.072889361394357e-05,24.38045785247232,10,3.4004329004329,9,31.966304233477175,6
subject-01,1,335,0.922007083892822,keyboard,keyboard,180,180_keyboard_20_n03085013_7009.png,True,-0.12477248733030313,0.55919349193573,0.5,-3.0146846996223906,26.160483837127686,10,3.1047619047619044,8,39.037059037270694,6
subject-01,1,336,0.755625009536743,truck,truck,270,270_truck_20_n04467665_44390.png,True,-0.9340859270679639,1.727003812789917,0.5,-1.5736084231928116,26.896968483924866,10,1.0315018315018312,10,44.12899809470652,6
subject-01,1,337,0.979441165924072,boat,boat,90,90_boat_20_n04273569_17340.png,True,0.15459759906138407,1.676059603691101,1.0,-1.0658239098167492,27.95497167110443,10,2.6670995670995667,10,28.539032190778723,10
subject-01,1,338,0.701312065124512,elephant,elephant,0,0_elephant_20_n02504013_1333.png,True,-1.198274217992088,0.0003172245051246,1.0,-2.2411597573523636e-05,26.5803545799281,10,3.491341991341991,9,30.998812862920488,10
subject-01,1,339,1.08306503295898,knife,knife,270,270_knife_20_n03041632_50034.png,True,0.6586434140538043,0.0468107759952545,1.0,-0.0068834758165464555,25.043614774942398,10,4.415151515151515,7,33.99746453912171,10
subject-01,1,340,0.812802076339722,clock,clock,90,90_clock_20_n02708093_2740.png,True,-0.655966010679638,1.063570261001587,1.0,-0.31705732036074474,26.034018397331238,10,9.416666666666666,2,17.333778438430315,10
subject-01,1,341,1.09686899185181,bear,bear,0,0_bear_20_n02132136_13975.png,True,0.7257884445313341,0.5867856740951538,1.0,-0.15112253529156153,26.36849808692932,10,2.117857142857143,10,32.218383468921274,10
subject-01,1,342,1.34848713874817,cat,elephant,90,90_elephant_20_n02504013_256.png,False,1.949706037536563,0.1262352466583252,1.0,-0.023224521206986534,26.76485013961792,10,3.341341991341991,9,32.195693541168694,10
subject-01,1,343,0.598232984542847,boat,boat,90,90_boat_20_n03344393_6588.png,True,-1.6996700900738744,1.5908050537109375,0.3333333333333333,-2.3566688853207105,26.95344066619873,10,1.640018315018315,10,33.627268498711025,10
subject-01,1,344,0.852023839950562,knife,knife,270,270_knife_20_n03041632_7173.png,True,-0.46518403766172234,0.0829500705003738,1.0,-0.011876014301142636,25.71269626915455,10,4.381818181818182,7,31.971197016031123,10
subject-01,1,345,0.867807865142822,boat,elephant,180,180_elephant_20_n02504458_1041.png,False,-0.3884075954236275,0.2221602648496627,0.0714285714285714,-7.224048251114079,27.192288801074028,10,1.36025641025641,9,41.79369926395345,6
subject-01,1,346,0.827805995941162,chair,chair,180,180_chair_20_n04099969_8021.png,True,-0.5829841475241072,0.8793795108795166,1.0,-0.27680974024032146,26.31700348854065,10,1.3423742923742918,10,45.485103832884825,10
subject-01,1,347,0.717448949813843,truck,truck,0,0_truck_20_n03796401_1791.png,True,-1.1197814013523413,0.0008838723879307,1.0,-7.56411549400012e-05,24.96042340504937,10,2.6058913308913305,9,41.25402797024139,10
subject-01,1,348,0.973546028137207,keyboard,keyboard,90,90_keyboard_20_n04505470_5007.png,True,0.12592254942950726,0.0468663871288299,1.0,-0.006054453647721296,25.08695074915886,10,2.9761904761904763,8,35.23113701589763,10
subject-01,1,349,0.895155906677246,bicycle,truck,180,180_truck_20_n03417042_29384.png,False,-0.25538162102120904,0.7515312433242798,1.0,-0.22104802260074471,26.661014437675476,10,1.7097735597735595,10,42.20904033749979,10
subject-01,1,350,1.26326990127563,bear,bird,90,90_bird_20_n01534433_1271.png,False,1.5351935015512066,0.7678346037864685,1.0,-0.1699886861995274,27.467709004878998,10,1.8730158730158728,10,32.673732778641735,10
subject-01,1,351,0.92280101776123,dog,dog,270,270_dog_20_n02113624_393.png,True,-0.12091064492659341,0.0024933009408414,1.0,-0.0002229462221221188,26.275606313254684,10,3.510786435786436,9,32.12858609903385,10
subject-01,1,352,0.756508111953735,cat,cat,90,90_cat_20_n02123159_5461.png,True,-0.9297903522141077,1.289035081863403,1.0,-0.39872838612083067,27.015766620635986,10,4.891269841269841,7,30.765640031226066,10
subject-01,1,353,1.33245801925659,knife,knife,270,270_knife_20_n03041632_9759.png,True,1.8717374109167646,0.0760246887803077,1.0,-0.010433916532857721,26.510484851896763,10,2.3496753246753244,10,33.467721262523646,10
subject-01,1,354,1.25624418258667,oven,chair,90,90_chair_20_n04429376_1754.png,False,1.5010190955594727,0.6834802627563477,0.3333333333333333,-3.5756154669520592,25.967382311820984,10,0.411544011544011,10,50.445956069824184,7
subject-01,1,355,0.999844074249268,knife,oven,90,90_oven_20_n04111531_1818.png,False,0.2538411502745873,1.777246356010437,0.1428571428571428,-3.5567234564925374,27.209754824638367,10,0.12454212454212439,10,62.369121716192765,6
subject-01,1,356,1.01203393936157,clock,clock,0,0_clock_20_n04548280_5798.png,True,0.31313492757695455,0.0003329043975099,1.0,-2.46766274024773e-05,24.165600967942737,10,9.5,3,14.673837976953253,10
subject-01,1,357,0.855601072311401,knife,oven,90,90_oven_20_n04111531_3099.png,False,-0.4477837123087901,0.7341901063919067,0.5,-2.1632692301903407,26.237300395965576,10,0.5761904761904761,10,59.247812671338295,6
subject-01,1,358,0.823548793792725,bottle,bottle,270,270_bottle_20_n04557648_581.png,True,-0.603691972737516,0.1549093723297119,1.0,-0.024733156491640693,25.00227427482605,10,6.083333333333333,10,18.86688198573209,10
subject-01,1,359,0.807235956192017,bird,bird,0,0_bird_20_n01531178_3183.png,True,-0.6830406571532207,1.139699935913086,1.0,-0.4893652965738538,26.259090423583984,10,2.263492063492063,10,33.91262860436298,10
subject-01,1,360,0.666965007781982,airplane,airplane,90,90_airplane_20_n02690373_8872.png,True,-1.365344710593709,0.3393736779689789,1.0,-0.06385071350134087,25.940640538930893,10,3.1416666666666666,10,26.83551401938662,10
subject-01,1,361,0.562775135040283,cat,cat,0,0_cat_20_n02123394_5301.png,True,-1.8721436829033888,0.0740006566047668,1.0,-0.012390708760565151,25.60928601026535,10,4.5777777777777775,7,31.08265335146552,10
subject-01,1,362,0.716938972473145,bicycle,bicycle,270,270_bicycle_20_n03792782_12844.png,True,-1.1222620262476968,0.9182631969451904,0.5,-2.1597613599362027,26.673507809638977,10,1.4936868686868685,10,34.54429747237743,6
subject-01,1,363,0.938502073287964,bear,bear,90,90_bear_20_n02132136_2691.png,True,-0.04453778261536694,1.4581940174102783,0.5,-1.224956760038163,27.0913827419281,10,2.026190476190476,10,31.5975330043945,10
subject-01,1,364,0.830166101455688,car,car,0,0_car_20_n02814533_27327.png,True,-0.5715041541444291,0.2640785276889801,1.0,-0.06335704467322097,25.254272013902664,10,2.506227106227106,9,41.72537202791293,6
subject-01,1,365,0.902124166488647,bird,bird,0,0_bird_20_n02027492_7653.png,True,-0.22148670572593865,0.266652375459671,1.0,-0.04877532868339378,26.4925836622715,10,2.806782106782107,9,32.370917888058386,10
subject-01,1,366,0.655925989151001,bear,bear,0,0_bear_20_n02133161_62.png,True,-1.4190405559793569,0.0753361135721206,1.0,-0.012380027260009748,26.401714459061623,10,2.560714285714285,10,29.694654029096345,10
subject-01,1,367,1.10187315940857,bottle,bottle,0,0_bottle_20_n04560804_9710.png,True,0.7501296487990347,0.003192048985511,1.0,-0.000288766588350367,24.898550849873573,10,7.416666666666666,9,20.284916674944398,10
subject-01,1,368,0.827595949172974,clock,clock,180,180_clock_20_n04548280_15154.png,True,-0.5840058541780597,0.0050132116302847,1.0,-0.000521855598668575,24.83016239013523,10,10.0,2,16.115391304395253,10
subject-01,1,369,0.835381984710693,oven,oven,180,180_oven_20_n04111531_114.png,True,-0.5461331252357255,1.9460864067077637,0.25,-2.1123596359643515,27.743447303771973,10,0.2047619047619046,10,59.76502839577766,6
subject-01,1,370,1.005126953125,bear,cat,180,180_cat_20_n02125311_24813.png,False,0.2795380583771149,0.1600956618785858,1.0,-0.02439265846325782,26.44416305422783,10,5.478968253968254,6,27.53623752964621,10
subject-01,1,371,0.805060148239136,airplane,airplane,90,90_airplane_20_n02690373_7647.png,True,-0.6936241928217698,1.761385440826416,0.1666666666666666,-3.2292488885578927,27.65514373779297,10,2.053113553113553,0,31.08574468107868,6
subject-01,1,372,0.801139831542969,bottle,bottle,0,0_bottle_20_n03983396_9823.png,True,-0.7126933443665797,0.0043327929452061,1.0,-0.0004167232840677365,25.415081870742142,10,6.116666666666666,9,20.378511252274066,10
subject-01,1,373,1.17283701896667,bear,bear,0,0_bear_20_n02134418_2398.png,True,1.095311096369608,0.6435293555259705,1.0,-0.17622896169825464,27.18230766057968,10,2.394047619047619,10,30.855015097558724,10
subject-01,1,374,0.796467065811157,keyboard,keyboard,90,90_keyboard_20_n04505470_4584.png,True,-0.7354225483516653,0.0016195974312722,1.0,-0.00014371712536492026,23.682261129375547,10,2.7904761904761903,9,35.54085974879149,9
subject-01,1,375,0.976539134979248,keyboard,keyboard,0,0_keyboard_20_n04505470_10055.png,True,0.14048157932025362,0.9723508358001708,0.5,-1.5117995024748314,25.812854528427124,10,2.4329836829836826,9,37.4629449969881,6
subject-01,1,376,0.68618106842041,boat,boat,270,270_boat_20_n04273569_10980.png,True,-1.2718742078747034,1.6209183931350708,0.25,-2.2583945831982284,27.75139355659485,10,1.9455128205128203,1,30.403211021130996,10
subject-01,1,377,1.16981482505798,car,car,180,180_car_20_n03100240_16210.png,True,1.0806105815619764,0.3418425917625427,1.0,-0.10045132137642994,25.653131306171417,10,3.5447802197802196,8,39.93137532251634,6
subject-01,1,378,0.843662023544312,keyboard,keyboard,0,0_keyboard_20_n04505470_1067.png,True,-0.5058574721310753,0.0039758649654686,1.0,-0.00040545337422898294,23.658530291635543,10,3.491341991341991,9,32.57443844762926,9
subject-01,1,379,1.35338091850281,elephant,elephant,0,0_elephant_20_n02504458_7867.png,True,1.9735102949475507,0.0004247910692356,1.0,-3.0875682642636034e-05,26.077979732246604,10,3.399675324675324,9,31.48406856537229,10
subject-01,1,380,0.723574161529541,keyboard,keyboard,180,180_keyboard_20_n04505470_807.png,True,-1.0899872292220918,0.0004614989156834,1.0,-3.8505341845951684e-05,23.0478120247717,10,3.105891330891331,9,35.15288756217821,9
subject-01,1,381,0.793004035949707,bicycle,bicycle,270,270_bicycle_20_n02835271_24104.png,True,-0.7522673714489314,1.3734639883041382,0.5,-1.2291137865676258,26.524529933929443,10,1.8710678210678209,9,34.58653937532087,6
subject-01,1,382,0.882763862609863,bottle,bottle,0,0_bottle_20_n03937543_6698.png,True,-0.315658834467238,0.0507495589554309,1.0,-0.006092892985428834,25.750609297305346,10,6.142857142857142,1,21.147065617968217,10
subject-01,1,383,0.746732950210571,bicycle,oven,0,0_oven_20_n04111531_10403.png,False,-0.977338561989526,0.5776811242103577,0.1666666666666666,-5.512316129402166,26.78888911008835,10,0.176129426129426,10,62.89754361890851,6
subject-01,1,384,0.726587057113647,truck,truck,0,0_truck_20_n03796401_8463.png,True,-1.075331943199363,0.0102482242509722,1.0,-0.0010556187866808538,24.933210532180965,10,3.506202131202131,8,40.034424233979756,10
subject-01,1,385,0.948745012283325,truck,truck,0,0_truck_20_n03796401_8176.png,True,0.005285782954668569,0.0103591652587056,1.0,-0.001178660942677867,24.63917362410575,10,2.4346764346764345,9,40.91104901124183,10
subject-01,1,386,0.800052881240845,bottle,bottle,90,90_bottle_20_n03937543_984.png,True,-0.7179804733511195,0.0009981868788599,1.0,-8.100599314662733e-05,25.314330863766372,10,6.083333333333333,9,20.861404952060923,10
subject-01,1,387,0.759997844696045,bicycle,bicycle,90,90_bicycle_20_n02835271_11697.png,True,-0.9128156413242812,0.8791606426239014,1.0,-0.42845512257630786,26.578877210617065,10,1.9039682539682536,10,34.334202062100715,10
subject-01,1,388,0.789821863174438,keyboard,keyboard,270,270_keyboard_20_n03085013_22417.png,True,-0.7677460532994825,0.004090828821063,1.0,-0.0003929910292191754,24.542154593393207,10,2.8059523809523808,9,36.47817704408046,6
subject-01,1,389,1.281653881073,truck,car,270,270_car_20_n03100240_7602.png,False,1.6246166078771649,1.2006458044052124,0.3333333333333333,-2.7964059008950004,25.880457282066345,10,0.9820568320568317,9,46.94664453490791,6
subject-01,1,390,0.891488790512085,bird,bird,90,90_bird_20_n01534433_14389.png,True,-0.27321915796159163,0.8274515867233276,1.0,-0.48252437179372315,26.58019495010376,10,2.1369047619047614,10,34.21604456657344,10
subject-01,1,391,1.14316701889038,bear,bear,0,0_bear_20_n02134084_2598.png,True,0.9509906825768973,0.0008664244087412,1.0,-7.856200772768156e-05,26.18306208786089,10,3.326190476190476,9,27.677821930568395,9
subject-01,1,392,1.50014710426331,bird,bird,180,180_bird_20_n01560419_19599.png,True,2.6874083942151596,0.9151251316070556,1.0,-0.2304505021053216,27.101194381713867,10,1.6968253968253966,10,34.05439998549479,10
subject-01,1,393,1.03683400154114,bicycle,bicycle,90,90_bicycle_20_n02835271_8747.png,True,0.43376705520207953,1.0314635038375854,1.0,-0.27015403759283513,26.53152906894684,10,2.264321789321789,10,32.102306193305736,10
subject-01,1,394,1.50000882148743,knife,knife,180,180_knife_20_n03041632_30821.png,True,2.686735761003697,0.0072362916544079,1.0,-0.0007344200300797575,25.862042834050953,10,4.626262626262626,7,31.006578768702592,10
subject-01,1,395,1.44255781173706,bear,chair,270,270_chair_20_n03376595_209.png,False,2.4072833350292098,2.1334800720214844,0.25,-2.446598914138306,28.00341296195984,5,0.3234487734487729,10,49.407404227221924,7
subject-01,1,396,1.1363251209259,chair,boat,180,180_boat_20_n04273569_29113.png,False,0.9177104148713933,0.010766721330583,1.0,-0.0011481078402197787,25.909467077814043,10,2.767832167832168,10,28.35033584199644,10
subject-01,1,397,1.04607510566711,oven,bird,270,270_bird_20_n02006656_6435.png,False,0.47871750912632177,1.7926523685455322,0.3333333333333333,-1.9714881789237437,28.01435089111328,10,1.2456349206349204,8,35.65027392170757,6
subject-01,1,398,0.863791942596436,airplane,airplane,90,90_airplane_20_n02690373_3492.png,True,-0.4079417916542864,1.287783145904541,0.125,-4.59991990065221,26.738783359527588,10,1.8972222222222224,4,32.96342458390356,6
subject-01,1,399,0.715699911117554,oven,oven,270,270_oven_20_n04111531_9380.png,True,-1.1282890517648398,0.0040310397744178,1.0,-0.00040455894238029214,25.45601663738489,10,2.0791666666666666,9,55.253557735181936,6
subject-01,1,400,0.82142186164856,keyboard,keyboard,270,270_keyboard_20_n04505470_510.png,True,-0.6140377673571868,0.0015694454777985,1.0,-0.0001334040929375416,24.87870758329518,10,2.438467088467088,9,38.72097780373986,10
subject-01,1,401,1.3832221031189,bird,bird,180,180_bird_20_n02027492_20576.png,True,2.118663382267573,0.0530324317514896,1.0,-0.006494585497645416,26.545469794422388,10,2.2305916305916305,10,33.30379573976347,10
subject-01,1,402,0.786903142929077,boat,bird,90,90_bird_20_n01855032_1920.png,False,-0.7819432529109607,1.7776204347610474,0.2,-2.871990626946645,28.001184344291687,10,0.9178571428571427,9,36.99290347966502,6
subject-01,1,403,0.836602926254272,boat,boat,180,180_boat_20_n04273569_15761.png,True,-0.5401942378635329,0.4381345808506012,1.0,-0.09269529472297275,26.551709085702896,10,2.9833333333333334,10,26.403750183771166,10
subject-01,1,404,0.568558931350708,oven,oven,180,180_oven_20_n04111531_10667.png,True,-1.8440102189779763,0.0458690375089645,1.0,-0.006091393763599924,25.7507756203413,10,1.2992424242424243,10,55.920818983897966,10
subject-01,1,405,0.790365934371948,knife,knife,270,270_knife_20_n03041632_36215.png,True,-0.7650995895261277,0.9117323160171508,1.0,-0.3003309219959885,26.728177428245544,10,2.2095959595959593,10,35.21444046306991,10
subject-01,1,406,0.906152963638306,bicycle,bicycle,180,180_bicycle_20_n02835271_2625.png,True,-0.20188988502386124,1.7017279863357544,1.0,-0.9586043337658942,27.22784388065338,10,2.5444444444444443,10,32.87699095626216,6
subject-01,1,407,0.962167024612427,bird,bird,270,270_bird_20_n02028035_20411.png,True,0.07057295411362074,0.1660667657852172,1.0,-0.02775022478071368,26.6386559009552,10,1.9940476190476188,10,32.71465470050234,10
subject-01,1,408,1.22164297103882,knife,knife,0,0_knife_20_n03041632_25656.png,True,1.3327123495037019,0.907339334487915,1.0,-0.3725934110823409,26.517095923423767,10,3.7255050505050504,8,35.19602105158106,10
subject-01,1,409,0.929463863372803,oven,oven,270,270_oven_20_n04111531_4332.png,True,-0.08850132125869162,1.118965744972229,1.0,-0.3817781039209237,26.038665294647217,10,1.1075757575757574,10,57.83476496517543,6
subject-01,1,410,1.05527210235596,keyboard,keyboard,180,180_keyboard_20_n04505470_3553.png,True,0.5234534162504237,0.0002157686831196,1.0,-1.5139694377543781e-05,25.5241417883517,10,3.8024891774891776,8,33.38825703133558,6
subject-01,1,411,0.929130077362061,bicycle,bicycle,180,180_bicycle_20_n02835271_18706.png,True,-0.09012491866565604,0.9818554520606996,0.5,-1.2512135843795742,26.582516849040985,10,1.6004329004329,10,34.156336409111724,6
subject-01,1,412,1.32314109802246,car,truck,270,270_truck_20_n03417042_10744.png,False,1.8264181684386276,1.134032964706421,0.25,-3.4393465157124017,26.716727018356323,10,0.5521728271728269,10,46.01373885704277,6
subject-01,1,413,0.782963037490845,clock,clock,0,0_clock_20_n03196217_11724.png,True,-0.8011086605877533,0.0007066387915983,1.0,-5.5016600512986624e-05,23.575796093442477,10,10.0,3,14.532622910045253,10
subject-01,1,414,0.800714015960693,bicycle,bicycle,270,270_bicycle_20_n02835271_14123.png,True,-0.714764590772897,0.2766958475112915,1.0,-0.06139918977768482,25.651333928108215,10,3.1261904761904757,9,31.03289662128348,10
subject-01,1,415,0.784199953079224,bicycle,bicycle,270,270_bicycle_20_n02835271_7900.png,True,-0.795092072482512,1.7563159465789795,1.0,-0.9464685172264252,27.57338571548462,10,2.0134920634920634,10,34.1746997914666,10
subject-01,1,416,1.09822392463684,truck,truck,270,270_truck_20_n03417042_2153.png,True,0.73237909029116,1.0752849578857422,1.0,-0.28174175033471205,25.963112115859985,10,1.7338217338217337,10,43.39778205593657,10
subject-01,1,417,0.935998916625977,bicycle,bicycle,270,270_bicycle_20_n03792782_10129.png,True,-0.05671360345517306,2.1045756340026855,0.3333333333333333,-1.972766058832388,28.64061188697815,10,1.537301587301587,9,32.81639081700316,6
subject-01,1,418,0.941879987716675,bear,bird,180,180_bird_20_n01514859_18430.png,False,-0.028106976856875503,0.32393479347229,1.0,-0.06457781329133368,26.325912475585938,10,2.249603174603174,10,31.65479157680767,10
subject-01,1,419,0.845623016357422,chair,chair,0,0_chair_20_n04099969_5010.png,True,-0.4963188373651546,0.0003148626419715,1.0,-2.3484505800462583e-05,25.148478181276005,10,2.0392246642246636,9,43.17295417084541,9
subject-01,1,420,0.899464130401611,truck,truck,0,0_truck_20_n03796401_588.png,True,-0.23442561734701964,0.0521161034703254,1.0,-0.006943373924960606,25.48874468356371,10,2.734737484737485,9,40.508010922980255,10
subject-01,1,421,1.12719702720642,car,car,0,0_car_20_n02814533_486.png,True,0.8733096646406328,0.3871806859970093,1.0,-0.13783175163434477,25.61893320083618,10,3.6209706959706955,8,40.11537993610816,6
subject-01,1,422,0.743030071258545,elephant,elephant,90,90_elephant_20_n02504013_3540.png,True,-0.9953500557949391,0.5333842039108276,1.0,-0.10755188891993987,27.010612845420837,10,3.761111111111111,9,31.595932716334424,10
subject-01,1,423,0.846820116043091,car,car,180,180_car_20_n02814533_55715.png,True,-0.49049592123631564,1.754114866256714,1.0,-0.7878119192730572,26.505128383636475,10,2.792374292374292,9,43.507853467553446,6
subject-01,1,424,0.867081165313721,bottle,bottle,180,180_bottle_20_n03983396_10896.png,True,-0.3919423989210754,0.1997171342372894,1.0,-0.03524074491793591,26.056501239538193,10,5.688034188034187,10,22.40580794889245,10
subject-01,1,425,0.946430921554565,clock,bottle,90,90_bottle_20_n04557648_15053.png,False,-0.0059703859253376415,0.0176126100122928,1.0,-0.002387928694356755,24.973472390323877,10,7.083333333333333,1,18.521124104651573,10
subject-01,1,426,0.916243076324463,car,car,0,0_car_20_n04285008_8281.png,True,-0.1528096951237287,0.0084994928911328,1.0,-0.0010763236574547082,24.39472519326955,10,3.653052503052503,8,38.32132983299898,6
subject-01,1,427,0.826178073883057,car,car,270,270_car_20_n02814533_38596.png,True,-0.5909026640203625,1.800566792488098,0.125,-4.268370678697146,27.19573450088501,10,0.6230269730269726,9,48.28089649989268,6
subject-01,1,428,0.881873846054077,elephant,elephant,270,270_elephant_20_n02504013_15219.png,True,-0.3199880409816671,1.313101291656494,0.5,-0.9066605711127,27.785799145698547,10,2.840909090909091,9,33.24439884395155,6
subject-01,1,429,1.04157781600952,elephant,elephant,180,180_elephant_20_n02504013_828.png,True,0.45684185349234163,0.0586441308259964,1.0,-0.008542021824251048,25.757536724209785,10,3.1595959595959595,9,32.37290569577056,10
subject-01,1,430,1.02971196174622,clock,oven,180,180_oven_20_n04111531_1439.png,False,0.3991241253871796,0.0973653495311737,1.0,-0.015475249830919864,25.225039929151535,10,1.5652777777777778,10,54.37169172964546,6
subject-01,1,431,0.761312007904053,bottle,bottle,90,90_bottle_20_n03983396_3315.png,True,-0.9064233063905708,0.7669001221656799,1.0,-0.2753197888081711,25.706986486911774,10,5.632575757575758,10,22.117924185927443,10
subject-01,1,432,0.865071058273315,airplane,airplane,90,90_airplane_20_n02690373_4024.png,True,-0.40171993444831217,0.1471921801567077,1.0,-0.020545716667482575,25.59334272146225,10,6.166666666666666,0,23.012682619508965,10
subject-01,1,433,1.11904406547546,elephant,elephant,270,270_elephant_20_n02504013_10301.png,True,0.8336521382630527,0.2033690214157104,1.0,-0.037711213830181646,26.54147696495056,10,3.1011904761904763,9,33.30478382970535,10
subject-01,1,434,0.66889500617981,oven,oven,180,180_oven_20_n04111531_7067.png,True,-1.3559568384441436,0.0004779122245963,1.0,-3.862455573300229e-05,25.387778284348315,10,2.020833333333333,9,54.6189713022101,6
subject-01,1,435,0.842811107635498,knife,knife,90,90_knife_20_n03041632_36834.png,True,-0.509996485806406,0.0177394337952137,1.0,-0.002105543807258316,24.752382654696703,10,2.9345959595959594,10,34.091637879756256,10
subject-01,1,436,0.754284143447876,car,car,90,90_car_20_n02814533_18148.png,True,-0.9406081497942305,0.1704639494419098,0.25,-5.216968716831225,25.177560597658157,10,1.7681318681318678,9,48.845607459648036,6
subject-01,1,437,1.22428297996521,elephant,cat,90,90_cat_20_n02125311_41284.png,False,1.345553845280358,0.515294075012207,1.0,-0.1096363032416331,26.941871404647827,10,5.371825396825397,6,28.827449920909988,10
subject-01,1,438,0.819906949996948,bicycle,bicycle,0,0_bicycle_20_n02835271_18188.png,True,-0.6214065801599463,0.0808489620685577,1.0,-0.014053948427218545,24.790169149637222,10,3.1440476190476185,9,31.898853885768514,10
subject-01,1,439,1.11198878288269,bottle,bottle,0,0_bottle_20_n04591713_2903.png,True,0.7993339279295524,0.0165862366557121,1.0,-0.0018210292448704618,25.03401344269514,10,5.849999999999999,10,21.848928290615202,10
subject-01,1,440,1.42169713973999,knife,knife,0,0_knife_20_n03041632_54191.png,True,2.305813135943601,0.0229463651776313,1.0,-0.0025506931668170603,25.3368876054883,10,3.969119769119769,8,32.948607787192785,10
subject-01,1,441,1.05349397659302,car,truck,180,180_truck_20_n03417042_8867.png,False,0.5148042809210296,1.0117226839065552,0.5,-1.3056450438474614,25.986151218414307,10,1.9672161172161169,7,43.22778059947553,6
subject-01,1,442,0.867568969726562,bottle,oven,270,270_oven_20_n04111531_8421.png,False,-0.38956962728204303,0.041314385831356,0.3333333333333333,-6.514933763789136,25.624316357076168,10,0.7435897435897435,9,63.581114826789175,6
subject-01,1,443,0.973411083221436,elephant,elephant,270,270_elephant_20_n02504013_4062.png,True,0.12526615219212192,1.2550138235092163,1.0,-0.6109100203122967,27.280202269554138,10,2.841666666666667,10,33.00011881528846,6
subject-01,1,444,0.95511794090271,keyboard,keyboard,270,270_keyboard_20_n04505470_1649.png,True,0.03628489630337531,0.0013992160093039,1.0,-0.00013024463029786353,24.456437644315884,10,3.2094988344988344,9,36.34778368533348,10
subject-01,1,445,0.666774034500122,boat,boat,180,180_boat_20_n03344393_7967.png,True,-1.3662736402529785,0.3136475682258606,0.25,-4.6810218031113004,26.053827822208405,10,1.9714285714285715,1,32.73468051035168,0
subject-01,1,446,0.820597887039185,bicycle,bicycle,0,0_bicycle_20_n02835271_10265.png,True,-0.6180457335275246,0.0009572146227583,1.0,-7.558154578826774e-05,25.36856647708919,10,4.876190476190476,7,27.416734590020152,9
subject-01,1,447,0.928224802017212,bicycle,bicycle,180,180_bicycle_20_n02835271_6742.png,True,-0.09452834677583481,1.0989981889724731,0.2,-3.7758939793174875,26.76656174659729,10,1.6087662337662336,9,35.564271795732736,6
subject-01,1,448,0.970201015472412,cat,cat,180,180_cat_20_n02123045_3168.png,True,0.10965178398684526,0.0185525864362716,1.0,-0.0021147423122504514,25.223339840769768,10,4.715079365079365,7,28.799020925037354,9
subject-01,1,449,0.90587592124939,car,car,180,180_car_20_n03100240_8489.png,True,-0.20323747087164262,0.8042991757392883,0.3333333333333333,-2.8502801654954326,26.072305619716644,10,2.1595238095238094,9,44.963906196366814,6
subject-01,1,450,0.897706985473633,oven,oven,270,270_oven_20_n04111531_1826.png,True,-0.24297269798225676,0.6868284344673157,1.0,-0.2818796186155751,26.084459602832794,10,1.0213675213675213,10,56.77283038147921,10
subject-01,1,451,0.921557903289795,bear,dog,180,180_dog_20_n02104365_1592.png,False,-0.12695738555510366,1.0285091400146484,0.3333333333333333,-2.8501134602976648,27.361092805862427,10,1.676165501165501,8,38.137398823666935,6
subject-01,1,452,0.843538999557495,boat,boat,90,90_boat_20_n02951358_4343.png,True,-0.5064558837467882,1.0439634323120115,0.1666666666666666,-4.7149597676388115,26.2652006149292,10,1.434523809523809,10,36.05503602585305,7
subject-01,1,453,0.763245820999146,bottle,bottle,0,0_bottle_20_n02823428_4282.png,True,-0.8970168788420716,0.0045410208404064,1.0,-0.00044886409493079764,24.60266874358058,10,7.75,1,20.043115494016888,10
subject-01,1,454,0.955173969268799,bird,bird,0,0_bird_20_n01817953_2043.png,True,0.03655742872525988,0.0074585941620171,1.0,-0.0007185536720552862,25.780100491363555,10,2.3714285714285714,9,36.252684501391435,10
subject-01,1,455,1.07091617584229,cat,dog,0,0_dog_20_n02110958_14369.png,False,0.5995491072900395,0.0382629558444023,1.0,-0.004546112184710022,25.916198007762432,10,2.3856893106893104,10,36.60168913018608,10
subject-01,1,456,0.948718070983887,dog,dog,270,270_dog_20_n02108000_1044.png,True,0.005154735449680482,1.4191642999649048,1.0,-0.7177211914110265,27.022160053253174,10,2.1206099456099454,10,36.86792056850125,6
subject-01,1,457,0.974478006362915,dog,dog,270,270_dog_20_n02087394_1428.png,True,0.13045586533224166,2.31239652633667,0.125,-3.4047788965821075,28.752406120300293,10,0.867171717171717,9,40.299600121795166,6
subject-01,1,458,0.93044900894165,airplane,airplane,90,90_airplane_20_n02690373_2856.png,True,-0.08370938948327952,1.514115571975708,0.3333333333333333,-2.744402954156872,26.37034845352173,10,2.6,0,30.790658183590207,6
subject-01,1,459,1.27196002006531,chair,chair,0,0_chair_20_n03376595_19165.png,True,1.5774638600415882,1.1023179292678833,1.0,-0.3778037919102958,26.25694179534912,10,1.4801948051948048,10,45.59348085509745,10
subject-01,1,460,0.945932149887085,chair,chair,270,270_chair_20_n04099969_42125.png,True,-0.008396504336315364,1.4090547561645508,1.0,-0.8329901795963043,26.930734276771545,10,1.2566849816849812,10,46.77776884582348,10
subject-01,1,461,0.813969850540161,bottle,bottle,270,270_bottle_20_n02823428_12656.png,True,-0.650285739180128,0.046388179063797,1.0,-0.005754965266966044,24.81993594765663,10,6.783333333333333,10,20.16132529204051,10
subject-01,1,462,0.745635986328125,bicycle,bicycle,180,180_bicycle_20_n02835271_5861.png,True,-0.9826743988962732,0.0529164336621761,1.0,-0.00786762786681824,24.967975046485662,10,2.5051587301587297,10,33.18429890461217,10
subject-01,1,463,0.847195148468018,airplane,airplane,90,90_airplane_20_n02690373_19345.png,True,-0.48867169357834545,0.0007956607732921,1.0,-6.163310197836393e-05,25.219884453574196,10,6.416666666666666,8,21.332973033668953,9
subject-01,1,464,0.829172849655151,clock,clock,90,90_clock_20_n02708093_8069.png,True,-0.5763355161425845,0.0038427982944995,1.0,-0.0003678879253739868,24.249899951042607,10,10.083333333333332,3,15.082214534447322,10
