subject_id,Session,trial,rt,object_response,category,condition,item_id,response_correct,rt_zscore,output_entropy,output_rank_correct,output_logprob_correct,auc_entropy,layer_biggest_change_entropy,auc_rank_correct,layer_biggest_change_rank_correct,auc_logprob_correct,layer_biggest_change_logprob_correct
subject-01,1,1,0.809584140777588,knife,knife,True,true_knife_35_n03041632_86251.png,True,-0.3913784928065919,0.0077106179669499,1.0,-0.000707041772881979,23.164897539674712,8,6.331818181818182,5,22.1834840427189,5
subject-01,1,2,0.997450113296509,car,car,False,false_car_35_n03100240_16866.png,True,0.6832788419822048,0.0596912652254104,1.0,-0.008419873634179658,24.5722943469882,9,4.060851648351648,7,32.875806860328375,8
subject-01,1,3,1.25921511650085,keyboard,keyboard,False,false_keyboard_35_n03085013_21127.png,True,2.180663796334308,0.3410275280475616,1.0,-0.05928311368192941,27.50217953324318,10,5.0405594405594405,6,28.287539399541185,9
subject-01,1,4,0.825117111206055,truck,truck,True,true_truck_35_n03417042_10694.png,True,-0.3025246126802782,0.0585484057664871,1.0,-0.006766330768458449,24.207462624646723,9,6.45952380952381,5,21.70451332517497,8
subject-01,1,5,1.07885599136353,bird,bird,True,true_bird_35_n01614925_1962.png,True,1.1489481847943295,0.8597869873046875,1.0,-0.17283770034842025,27.507994413375854,9,4.043986568986568,7,32.661609453158334,9
subject-01,1,6,1.35673904418945,clock,knife,False,false_knife_35_n03041632_99875.png,False,2.738533871488076,1.3266184329986572,1.0,-0.4704437514148797,28.212276220321655,9,6.45,5,24.92214022972465,5
subject-01,1,7,1.18241000175476,bicycle,bicycle,True,true_bicycle_35_n03792782_14935.png,True,1.7413123863663968,0.0318663828074932,1.0,-0.0034351273277315585,24.695333044975996,9,9.083333333333332,2,17.11081645916701,8
subject-01,1,8,0.976280927658081,elephant,elephant,False,false_elephant_35_n02504013_5027.png,True,0.5621838916151232,0.06812584400177,1.0,-0.008117212394594196,25.309337258338928,9,6.366666666666666,8,23.054076813497833,9
subject-01,1,9,1.33407497406006,dog,dog,False,false_dog_35_n02090721_129.png,True,2.608887672795741,0.9425795078277588,1.0,-0.20945372453070255,28.4787917137146,10,3.4,8,29.949340367377076,9
subject-01,1,10,1.02587699890137,airplane,airplane,True,true_airplane_35_n02690373_9241.png,True,0.8458903075438526,0.0116167115047574,1.0,-0.001115407506965748,22.886704034172,9,6.015018315018315,5,23.362088973647424,3
subject-01,1,11,0.957607984542847,truck,truck,True,true_truck_35_n04467665_62080.png,True,0.4553682984993493,0.0130690410733222,1.0,-0.0012756971027478971,24.75337065383792,9,5.95952380952381,7,21.72337054968265,8
subject-01,1,12,,na,keyboard,True,true_keyboard_35_n04505470_2669.png,False,,0.0525021366775035,1.0,-0.006073463244719911,25.202781528234482,9,4.965151515151515,6,27.08016613416183,9
subject-01,1,13,1.09343695640564,bear,oven,False,false_oven_35_n04111531_688.png,False,1.2323562699345185,0.0728249475359916,1.0,-0.008965207549569846,26.73751389235258,9,4.539357864357864,6,28.997261783494547,9
subject-01,1,14,0.905143022537231,car,car,True,true_car_35_n03100240_21982.png,True,0.15525085049757098,0.2825739681720733,1.0,-0.0640447033680278,24.88228467106819,9,3.775595238095238,8,31.29848610282683,8
subject-01,1,15,1.00899195671082,bicycle,bicycle,True,true_bicycle_35_n02835271_4191.png,True,0.7493021165319583,0.0223791804164648,1.0,-0.002294906713948613,22.448915532324463,8,8.25,3,16.163648944169665,8
subject-01,1,16,0.904927968978882,car,car,True,true_car_35_n02814533_25278.png,True,0.15402067091393742,0.0458531305193901,1.0,-0.0058412351046231,24.04687660187483,9,4.174837662337662,7,31.47049800026141,8
subject-01,1,17,0.862505912780762,knife,knife,False,false_knife_35_n03041632_23087.png,True,-0.08864793606618267,2.6408486366271973,1.0,-1.5976877498260038,30.41118860244751,9,5.761544011544011,6,28.775793058729093,5
subject-01,1,18,0.832413911819458,clock,clock,True,true_clock_35_n03196217_11252.png,True,-0.2607844284705212,0.0509677231311798,1.0,-0.005906167208778167,25.575666517019272,9,3.93525641025641,8,30.61063837540344,9
subject-01,1,19,0.736093997955322,boat,boat,False,false_boat_35_n04273569_2040.png,True,-0.8117671345584674,0.0999454706907272,1.0,-0.012736802832315224,23.963073554448783,9,6.037301587301587,7,20.456116155358853,9
subject-01,1,20,0.896195888519287,knife,knife,True,true_knife_35_n03041632_84869.png,True,0.10407019724354176,0.0075249839574098,1.0,-0.0006889689549930715,24.14689564332366,9,6.62063492063492,5,20.26888287695954,5
subject-01,1,21,0.767853975296021,clock,clock,True,true_clock_35_n04548280_503.png,True,-0.63008924928592,0.038737840950489,1.0,-0.004311604486804735,22.479073864640668,8,5.155927405927406,6,25.65097216182319,6
subject-01,1,22,0.895647048950195,truck,truck,False,false_truck_35_n03417042_10654.png,True,0.1009306480178955,0.098851628601551,1.0,-0.01248038958740776,25.506380692124367,9,5.292857142857143,8,23.108801986344616,9
subject-01,1,23,0.861499071121216,boat,boat,True,true_boat_35_n03344393_2919.png,True,-0.09440741320775532,0.0459685921669006,1.0,-0.005193224316769537,24.920284658670425,9,5.684523809523809,8,22.28601416114702,9
subject-01,1,24,0.859068870544434,chair,chair,False,false_chair_35_n04099969_7718.png,True,-0.10830898803703269,0.0555211901664733,1.0,-0.006485946541231298,25.359444350004196,9,3.908766233766234,8,28.94211957698312,9
subject-01,1,25,0.817170858383179,oven,oven,True,true_oven_35_n04111531_3477.png,True,-0.3479798846792017,0.0590902939438819,1.0,-0.00709961804005107,24.81144765764475,9,5.087301587301587,6,25.780348890678653,6
subject-01,1,26,1.21084594726562,dog,dog,False,false_dog_35_n02113712_913.png,True,1.90397567767543,0.6064340472221375,1.0,-0.11197290770642548,26.866661071777344,9,5.163492063492063,6,26.270400812507116,9
subject-01,1,27,1.50014901161194,oven,chair,False,false_chair_35_n02791124_13701.png,False,3.5588877189996544,0.1572045981884002,1.0,-0.02222618265366839,27.365638703107834,10,3.309498834498834,9,30.181029319575376,10
subject-01,1,28,0.970507144927979,airplane,airplane,True,true_airplane_35_n02690373_8538.png,True,0.5291558883147588,0.0156258773058652,1.0,-0.0015436994933337724,23.267829980701208,9,7.128943278943279,4,21.56694525133049,3
subject-01,1,29,1.03416514396667,chair,knife,True,true_knife_35_n03041632_98864.png,False,0.8933013195903317,1.1546965837478638,1.0,-0.3252374872442511,28.624601244926453,10,5.4103535353535355,7,26.996573877109096,5
subject-01,1,30,1.028235912323,clock,clock,False,false_clock_35_n04548280_5466.png,True,0.8593840955710116,0.0402970612049102,1.0,-0.004447441024114733,24.544261845760047,9,5.095670995670996,6,28.10313904742746,6
subject-01,1,31,0.818020105361938,keyboard,keyboard,True,true_keyboard_35_n04505470_4033.png,True,-0.3431219027757538,0.0502220466732978,1.0,-0.005714081119087302,23.843227975070477,9,4.994094794094794,6,25.035346167516607,6
subject-01,1,32,1.3261079788208,oven,boat,False,false_boat_35_n03344393_7503.png,False,2.5633137471119087,0.0637343749403953,1.0,-0.007677387040401179,25.101554833352566,9,6.958333333333334,5,21.27312272720879,9
subject-01,1,33,1.11171197891235,bottle,bottle,False,false_bottle_35_n02823428_3402.png,True,1.336895621669906,0.2224761843681335,1.0,-0.032042226969853434,27.207623183727264,9,4.798351648351648,7,25.1741074606489,0
subject-01,1,34,0.909416913986206,truck,boat,True,true_boat_35_n03662601_15766.png,False,0.17969896492803059,0.0585224516689777,1.0,-0.007129513088622622,25.33436532691121,9,4.041666666666666,9,24.26763489927835,9
subject-01,1,35,0.899144887924194,dog,dog,True,true_dog_35_n02097047_1351.png,True,0.12093947803068338,0.92659592628479,1.0,-0.1951667514153979,27.57396924495697,9,5.552380952380952,6,25.670453995230517,9
subject-01,1,36,0.802856922149658,keyboard,keyboard,True,true_keyboard_35_n03085013_23562.png,True,-0.4298604741058115,0.2026221454143524,1.0,-0.02978931102730296,25.92805951833725,9,4.911255411255411,6,29.030956928252024,9
subject-01,1,37,0.776731967926025,clock,clock,False,false_clock_35_n04548280_7872.png,True,-0.5793041083148813,1.5373103618621826,1.0,-0.4431554324829756,29.50759196281433,10,4.402453102453102,7,32.49999707778586,9
subject-01,1,38,0.976433038711548,dog,dog,False,false_dog_35_n02106166_16884.png,True,0.5630540186376962,1.1667110919952393,1.0,-0.27865973205542,28.43295395374298,9,3.6301587301587297,8,27.98132490016937,9
subject-01,1,39,0.870317935943604,oven,oven,True,true_oven_35_n04111531_3353.png,True,-0.04396050343043752,0.014040695503354,1.0,-0.0013747720235824314,24.300711502786726,9,5.106721056721057,6,24.263277755188287,5
subject-01,1,40,1.07212591171265,knife,knife,False,false_knife_35_n03041632_46185.png,True,1.1104498374696024,0.1034516915678978,1.0,-0.013636519573149358,25.548502065241337,9,6.462301587301587,5,21.967603971546723,9
subject-01,1,41,1.05015897750854,knife,knife,True,true_knife_35_n03041632_14766.png,True,0.9847914936580741,0.0009218488121405,1.0,-7.021673668276704e-05,22.283907485601958,8,5.672594072594072,6,24.083623338887193,5
subject-01,1,42,1.17180490493774,knife,chair,True,true_chair_35_n02791124_2150.png,False,1.6806476213333987,0.0940460115671157,1.0,-0.011761419079686324,25.920934265479445,9,4.131746031746031,8,26.149589104178776,9
subject-01,1,43,1.06363916397095,elephant,elephant,False,false_elephant_35_n02504458_4631.png,True,1.061902750486079,0.0325472801923751,1.0,-0.0035130624641453827,24.700201569125056,9,8.083333333333334,5,20.445740169257107,0
subject-01,1,44,1.00745391845703,chair,chair,False,false_chair_35_n03376595_3223.png,True,0.7405040139886417,0.806026816368103,1.0,-0.4298118686815764,26.827432811260223,9,4.271464646464646,8,27.315625611041074,9
subject-01,1,45,0.965162992477417,car,car,False,false_car_35_n03100240_5399.png,True,0.49858551651074556,0.0437330566346645,1.0,-0.004926698046583695,23.956928642466664,9,4.998189310689311,6,29.654753271890037,5
subject-01,1,46,0.975010871887207,bottle,bottle,True,true_bottle_35_n04557648_2512.png,True,0.5549187401272818,0.1421447396278381,1.0,-0.019970804021397354,26.46002221107483,9,4.477355977355977,7,27.458957606314584,9
subject-01,1,47,1.45480513572693,bicycle,bicycle,True,true_bicycle_35_n03792782_8098.png,True,3.2995053084746666,0.2301441431045532,1.0,-0.037636447067785295,24.94904536008835,9,7.833333333333333,6,18.003508795063365,9
subject-01,1,48,1.50009512901306,bear,bear,True,true_bear_35_n02134418_11557.png,True,3.558579492185998,0.0183710809797048,1.0,-0.0018546483897046954,24.202828031033278,9,8.75,5,16.245237418144722,9
subject-01,1,49,1.09844303131104,knife,knife,True,true_knife_35_n03041632_45569.png,True,1.260992723058292,0.0255942493677139,1.0,-0.002671050749699337,25.015698105096817,9,6.594877344877345,5,21.139020857740274,5
subject-01,1,50,1.31452512741089,bicycle,bicycle,False,false_bicycle_35_n03792782_4740.png,True,2.497055892863318,0.0380042418837547,1.0,-0.004195897565423533,25.371613942086697,9,8.416666666666666,6,18.69666602586782,9
subject-01,1,51,1.03859400749207,boat,boat,False,false_boat_35_n03662601_25404.png,True,0.9186359270689186,0.3112013339996338,1.0,-0.0512417345619639,25.82476496696472,9,5.410714285714286,7,21.9099833091037,9
subject-01,1,52,,na,bird,False,false_bird_35_n01796340_4853.png,False,,0.529973030090332,1.0,-0.09126869882633577,25.803602665662766,9,3.3127344877344873,8,32.97179410027569,9
subject-01,1,53,0.675863027572632,clock,clock,True,true_clock_35_n03196217_5888.png,True,-1.1563087949524784,0.0829048752784729,1.0,-0.010231444408970102,24.536422938108444,9,4.287337662337662,7,31.23228962424652,6
subject-01,1,54,1.0139901638031,bicycle,bicycle,True,true_bicycle_35_n02835271_12871.png,True,0.7778935630855428,0.018034491688013,1.0,-0.0018120722921641356,22.934499167837203,8,9.416666666666666,2,15.010389648209559,8
subject-01,1,55,0.845332860946655,keyboard,keyboard,False,false_keyboard_35_n03085013_28584.png,True,-0.1868836403120517,0.1381840109825134,1.0,-0.01923603945672741,25.713549435138702,9,5.142929292929293,6,26.465358864047854,9
subject-01,1,56,1.1991331577301,dog,cat,True,true_cat_35_n02123159_6184.png,False,1.8369745331019172,0.2375619113445282,1.0,-0.03993144826300367,27.169127196073532,10,2.911544011544011,9,31.292482169208824,9
subject-01,1,57,0.940927028656006,bicycle,bicycle,True,true_bicycle_35_n02835271_7592.png,True,0.35994755063998574,0.0117364861071109,1.0,-0.0011222100429511895,22.156616093590856,8,8.916666666666666,3,15.017926129971668,8
subject-01,1,58,0.884871959686279,elephant,elephant,False,false_elephant_35_n02504458_3205.png,True,0.039293468302952037,0.0093674026429653,1.0,-0.000909503515075132,24.12917511165142,9,5.916666666666666,1,21.28227222991042,0
subject-01,1,59,0.842571973800659,cat,cat,False,false_cat_35_n02124075_7880.png,True,-0.2026768549223771,0.0877617076039314,1.0,-0.011106126410554404,25.26064319163561,9,4.378943278943279,7,28.6843232955291,9
subject-01,1,60,1.01644396781921,truck,truck,False,false_truck_35_n04467665_2240.png,True,0.7919301576252028,0.0781470090150833,1.0,-0.009444469032873343,25.102779008448124,9,4.109523809523809,8,24.31235747550988,9
subject-01,1,61,1.412113904953,bottle,bottle,True,true_bottle_35_n04560804_13316.png,True,3.0552969312617875,0.1613563597202301,1.0,-0.021753123324401862,24.730491518974304,9,5.542857142857143,6,22.456070773772048,0
subject-01,1,62,0.81191086769104,airplane,airplane,False,false_airplane_35_n02690373_3821.png,True,-0.3780688225663365,0.0143111813813447,1.0,-0.001398169461719321,23.423154639080167,9,7.117832167832168,4,21.248985661595384,3
subject-01,1,63,0.815953969955444,oven,knife,True,true_knife_35_n03041632_17285.png,False,-0.3549409008597842,0.0086792083457112,1.0,-0.0008253880319839116,25.463588607497513,9,5.917929292929293,5,25.10349900866861,9
subject-01,1,64,0.821630001068115,bottle,bottle,False,false_bottle_35_n02823428_10942.png,True,-0.3224720700974333,0.1010248064994812,1.0,-0.012858815363050738,25.57122442126274,9,4.598748473748474,7,25.817809793134867,8
subject-01,1,65,0.673408985137939,bicycle,bicycle,True,true_bicycle_35_n02835271_3642.png,True,-1.170346753327618,0.0742577314376831,1.0,-0.010677033598415547,25.946005940437317,10,9.083333333333332,3,17.241906168408626,8
subject-01,1,66,1.01931095123291,knife,knife,True,true_knife_35_n03041632_16172.png,True,0.8083302790146154,0.0085016544908285,1.0,-0.0007869120311758815,23.97301309928298,9,6.356818181818182,5,22.337487709383662,5
subject-01,1,67,1.34522700309753,bicycle,bottle,False,false_bottle_35_n04560804_2448.png,False,2.6726810763706634,2.186788320541382,0.5,-1.5139190758294594,29.565202355384827,9,1.0304695304695302,10,36.74079774146169,10
subject-01,1,68,1.08890199661255,oven,oven,False,false_oven_35_n04111531_4452.png,True,1.2064147556769231,0.0028738905675709,1.0,-0.0002439319554012622,23.068644130136818,8,5.24563492063492,6,24.204506859641672,5
subject-01,1,69,0.952723026275635,keyboard,keyboard,False,false_keyboard_35_n04505470_912.png,True,0.4274246737885579,0.050583891570568,1.0,-0.005752387478064361,24.79771515727043,9,4.9170745920745915,6,27.1978968306267,6
subject-01,1,70,0.824538946151733,cat,cat,False,false_cat_35_n02123045_7167.png,True,-0.30583191366733264,0.4441767632961273,1.0,-0.11687444046830646,26.10176745057106,9,3.184498834498834,8,32.59741198593676,9
subject-01,1,71,1.01247906684875,bicycle,bicycle,False,false_bicycle_35_n03792782_8333.png,True,0.7692495739490557,0.0372979864478111,1.0,-0.004169382034488313,25.24962469935417,9,6.833333333333333,3,20.02613110759614,9
subject-01,1,72,1.20222306251526,dog,dog,False,false_dog_35_n02107683_2904.png,True,1.8546498406450995,1.4136412143707275,1.0,-0.36717845413702527,29.112261056900024,10,3.906349206349206,8,28.693169638698304,9
subject-01,1,73,1.06596088409424,bottle,bottle,True,true_bottle_35_n04591713_3409.png,True,1.0751837801817,0.0847468897700309,1.0,-0.010372724917680147,24.026576105505228,8,4.690018315018315,7,25.097566382643315,8
subject-01,1,74,1.20390701293945,chair,bottle,False,false_bottle_35_n04560804_564.png,False,1.8642826104890071,0.9757868051528932,1.0,-0.5429043478465603,27.251711130142212,9,2.587301587301587,10,31.355179873494293,10
subject-01,1,75,0.829721927642822,truck,truck,False,false_truck_35_n03796401_6503.png,True,-0.276183494633319,0.0887879058718681,1.0,-0.010989871738201418,25.31264891475439,9,5.45952380952381,7,22.424237339571775,9
subject-01,1,76,0.789545059204102,oven,oven,True,true_oven_35_n04111531_13590.png,True,-0.5060088631000139,0.0128832794725894,1.0,-0.0012916319848229072,24.590202037245035,9,5.197222222222222,6,24.795492551003225,5
subject-01,1,77,0.865151166915894,bird,bird,False,false_bird_35_n02018795_7504.png,True,-0.07351618165326665,0.0278732161968946,1.0,-0.0030109867568968796,25.217667220160365,9,3.591183816183816,8,31.89380793082526,9
subject-01,1,78,1.03911900520325,car,car,False,false_car_35_n03100240_6626.png,True,0.9216390927486957,0.640555739402771,0.5,-1.6109439738490723,25.67695277929306,9,3.9061868686868686,6,34.56065253160329,7
subject-01,1,79,1.07889604568481,bear,bear,False,false_bear_35_n02134418_4364.png,True,1.1491773091513182,0.0352661907672882,1.0,-0.0038461047250937155,24.542290123179555,9,8.75,4,16.59142674917606,9
subject-01,1,80,1.21478986740112,bird,knife,False,false_knife_35_n03041632_8051.png,False,1.9265362438312275,0.9584321975708008,0.5,-1.1828286279963098,28.42375922203064,10,2.6845238095238093,9,30.18964622002295,9
subject-01,1,81,0.717191934585571,airplane,airplane,True,true_airplane_35_n02690373_1434.png,True,-0.9198933735499366,0.0159388445317745,1.0,-0.0015770705208077104,23.039722938090563,8,6.294444444444444,5,22.94354853156295,3
subject-01,1,82,0.764518976211548,clock,clock,True,true_clock_35_n04548280_5408.png,True,-0.6491665796805015,0.1040850281715393,1.0,-0.013300986462930535,25.32584812119603,9,5.737337662337662,5,28.73850009306264,9
subject-01,1,83,0.716691970825195,cat,cat,False,false_cat_35_n02123597_3916.png,True,-0.9227533365065732,1.3299665451049805,1.0,-0.500211491568514,28.539686679840088,10,3.4447802197802195,8,32.70085748666172,10
subject-01,1,84,1.30849099159241,clock,clock,False,false_clock_35_n04548280_4542.png,True,2.462538581242192,0.0601728782057762,1.0,-0.007116186269822541,25.609360478818417,9,4.934065934065934,6,29.16442186975114,9
subject-01,1,85,1.21600699424744,chair,car,True,true_car_35_n04285008_14161.png,False,1.9334986238473029,1.659555435180664,0.5,-1.1041293759874589,29.26591968536377,10,1.4343614718614717,9,37.82247682020605,10
subject-01,1,86,0.77180290222168,airplane,airplane,False,false_airplane_35_n02690373_7279.png,True,-0.6075000425855045,0.0129862464964389,1.0,-0.001258568879706137,23.51788473688066,9,7.193589743589744,4,20.84453932418784,3
subject-01,1,87,1.11171197891235,bear,bear,True,true_bear_35_n02132136_11640.png,True,1.336895621669906,0.04083863645792,1.0,-0.004509348854630865,25.018414586782455,9,8.75,4,18.311570207244976,9
subject-01,1,88,0.763561964035034,airplane,airplane,True,true_airplane_35_n02690373_8350.png,True,-0.6546410152112327,0.0298724547028541,1.0,-0.003218759074580887,23.73302311450243,9,6.371367521367521,5,22.06603996931869,3
subject-01,1,89,0.961244821548462,boat,boat,True,true_boat_35_n04273569_30568.png,True,0.4761722445844865,0.0379914417862892,1.0,-0.004238874569321242,23.383511498570442,9,6.767857142857142,5,18.999469945601298,9
subject-01,1,90,1.04914903640747,dog,dog,True,true_dog_35_n02100583_19533.png,True,0.9790142866555647,0.8358679413795471,1.0,-0.1666094732627957,25.995728373527527,9,4.801190476190476,7,25.02733400779941,9
subject-01,1,91,0.850750923156738,knife,knife,True,true_knife_35_n03041632_965.png,True,-0.15589047951588272,0.0095865223556756,1.0,-0.0008967365962377816,23.422749604287674,8,6.001623376623376,5,20.312882122447736,5
subject-01,1,92,0.798607110977173,elephant,elephant,False,false_elephant_35_n02504458_6109.png,True,-0.4541708411549504,0.0443974509835243,1.0,-0.0049758763540484014,23.952874455600977,9,6.375,1,21.01484208360818,5
subject-01,1,93,0.796406030654907,oven,oven,True,true_oven_35_n04111531_10093.png,True,-0.46676177010853814,0.0120399035513401,1.0,-0.0011675017911874062,24.44986743107438,9,4.588034188034188,7,26.27980002730577,6
subject-01,1,94,1.42647004127502,clock,clock,True,true_clock_35_n03196217_8221.png,True,3.137418919564553,0.6236467957496643,1.0,-0.16182569434192778,27.6709161400795,10,4.457575757575757,6,31.487536710424216,9
subject-01,1,95,1.37050008773804,bicycle,bicycle,False,false_bicycle_35_n03792782_828.png,True,2.817251726486276,0.0223154462873935,1.0,-0.0023238220610458027,25.046431897208095,9,6.7,3,20.116753089835196,8
subject-01,1,96,0.933845043182373,knife,knife,True,true_knife_35_n03041632_7090.png,True,0.31943618217840436,0.0113447168841958,1.0,-0.0010812165137472922,24.21721654338762,9,6.627777777777778,5,20.66527052904982,5
subject-01,1,97,1.19598317146301,knife,bear,False,false_bear_35_n02134084_14260.png,False,1.8189555390231924,0.3407441973686218,1.0,-0.05669418039323815,26.33929204940796,9,9.083333333333332,6,19.307839677755442,9
subject-01,1,98,1.09965395927429,bear,bear,False,false_bear_35_n02132136_10988.png,True,1.2679196433523667,0.112544946372509,1.0,-0.016377071355190436,26.15462689846754,9,9.25,4,17.290147239199097,9
subject-01,1,99,1.04727792739868,keyboard,keyboard,False,false_keyboard_35_n03085013_22980.png,True,0.9683109059766448,0.1015314161777496,1.0,-0.01324088754129537,25.662751764059067,9,4.908838383838384,6,30.34498619509713,9
subject-01,1,100,0.817157983779907,bottle,bottle,False,false_bottle_35_n04557648_3673.png,True,-0.3480535317939681,0.0280053354799747,1.0,-0.0030066225063856812,26.156928274780512,9,4.44993894993895,7,27.032450460645165,9
subject-01,1,101,0.929111003875732,airplane,airplane,True,true_airplane_35_n02690373_1360.png,True,0.29235586531289054,0.0135851539671421,1.0,-0.0013195037186281761,22.675067792646587,9,7.699999999999999,3,18.777544543431294,3
subject-01,1,102,1.10492300987244,bird,oven,True,true_oven_35_n04111531_6415.png,False,1.2980604069869572,0.0083254380151629,1.0,-0.0007742063281551824,25.52890355978161,9,4.070670995670996,7,31.461663175320375,9
subject-01,1,103,0.758672952651978,knife,knife,False,false_knife_35_n03041632_32054.png,True,-0.6826078251248155,0.0096361869946122,1.0,-0.0009068188690755729,24.5914969961741,9,6.394877344877345,5,23.283329498366662,5
subject-01,1,104,0.982528924942017,chair,chair,False,false_chair_35_n03376595_9136.png,True,0.597924563642603,0.0497508272528648,1.0,-0.005785959202618228,26.18226560205221,9,4.293290043290043,8,26.567283493160513,9
subject-01,1,105,,na,keyboard,False,false_keyboard_35_n03085013_21266.png,False,,0.2206874936819076,1.0,-0.03176604918492697,26.363163456320763,9,4.471969696969697,7,29.32989786995252,9
subject-01,1,106,0.750111818313599,bicycle,bicycle,True,true_bicycle_35_n02835271_6137.png,True,-0.7315804287714106,0.2671393156051636,1.0,-0.0634148342694459,25.311048984527588,9,8.916666666666666,3,17.7288572249059,9
subject-01,1,107,0.931885957717896,car,car,False,false_car_35_n04285008_14689.png,True,0.30822954621527704,0.2370430529117584,1.0,-0.054331102666745755,23.631610184907913,8,4.466346153846153,7,29.999032854136722,5
subject-01,1,108,1.03778409957886,truck,truck,False,false_truck_35_n04467665_16276.png,True,0.91400297801612,0.1030360013246536,1.0,-0.013159835218775817,25.251313980668783,9,5.359523809523809,7,23.07925787515679,9
subject-01,1,109,0.809424877166748,chair,chair,False,false_chair_35_n03376595_787.png,True,-0.39228953489292223,0.0347681082785129,1.0,-0.0037783147248465626,25.096652693580836,9,4.518686868686869,7,27.9214219631446,8
subject-01,1,110,0.873431921005249,boat,boat,False,false_boat_35_n04612504_41355.png,True,-0.026147448505961665,1.2661951780319214,1.0,-0.31816484678466406,26.67740148305893,9,4.420634920634921,9,24.045698077739285,9
subject-01,1,111,0.879045963287354,elephant,elephant,True,true_elephant_35_n02504458_174.png,True,0.00596678503716106,0.0930505469441413,1.0,-0.01147408407787318,24.049222461879253,9,8.5,1,17.92283665140552,0
subject-01,1,112,0.891275882720947,cat,cat,True,true_cat_35_n02125311_6746.png,True,0.07592608872033953,0.0763125121593475,1.0,-0.009193109339861994,23.91750785242766,9,4.67550505050505,7,26.121543985839903,9
subject-01,1,113,0.826857089996338,keyboard,keyboard,False,false_keyboard_35_n03085013_23287.png,True,-0.29257134150358216,0.0513975620269775,1.0,-0.005908565520510383,24.420425087213516,9,5.363636363636363,6,24.82837936260277,6
subject-01,1,114,0.706798076629639,clock,clock,True,true_clock_35_n04548280_8071.png,True,-0.9793497803666111,0.0013946647522971,1.0,-0.00011003622801906294,24.129365513916127,9,4.944444444444445,6,28.433014841868022,6
subject-01,1,115,0.724292039871216,oven,oven,False,false_oven_35_n04111531_14543.png,True,-0.8792783535935008,0.0111046181991696,1.0,-0.0010858707163401964,24.75280234683305,9,5.217002442002442,6,24.85971737157082,5
subject-01,1,116,1.19810700416565,car,car,False,false_car_35_n03100240_10791.png,True,1.8311045852882182,0.0322793945670127,1.0,-0.0035637863684422765,24.321087999269366,9,4.092261904761905,7,32.879335294368424,8
subject-01,1,117,0.913951873779297,airplane,airplane,True,true_airplane_35_n02690373_2619.png,True,0.20564047918563047,0.0201659202575683,1.0,-0.002050175373170699,22.708810524083674,9,6.201165501165502,5,22.250414786930943,3
subject-01,1,118,0.8521409034729,keyboard,keyboard,True,true_keyboard_35_n04505470_3864.png,True,-0.14793931879237757,0.0757293403148651,1.0,-0.009791169912116439,24.512810707092285,9,5.023892773892774,6,26.638611894747715,5
subject-01,1,119,1.15588998794556,dog,dog,True,true_dog_35_n02097658_4387.png,True,1.5896088768024885,0.7509933710098267,1.0,-0.1448228501945021,26.30382639169693,9,4.916666666666666,7,24.80650406727012,9
subject-01,1,120,0.933777093887329,clock,clock,True,true_clock_35_n04548280_309.png,True,0.3190474890727092,0.045007724314928,1.0,-0.0050350013455254874,24.957282543182373,9,4.9642857142857135,6,28.191653336539876,6
subject-01,1,121,1.10364103317261,dog,dog,True,true_dog_35_n02108000_5247.png,True,1.290727063726182,0.7563998103141785,1.0,-0.14643024672803595,25.562970012426376,9,6.151190476190476,5,22.690618394811512,9
subject-01,1,122,0.871058940887451,keyboard,keyboard,False,false_keyboard_35_n04505470_4411.png,True,-0.03972170282518302,0.1540442109107971,1.0,-0.02150851684725016,25.25823038816452,9,4.951659451659451,6,28.60470775913224,9
subject-01,1,123,0.902759075164795,truck,truck,False,false_truck_35_n03417042_2155.png,True,0.14161385974725954,0.7520079016685486,1.0,-0.16692876562237885,27.73027628660202,10,4.175000000000001,5,25.578707931823786,10
subject-01,1,124,1.4169499874115,bear,bear,False,false_bear_35_n02132136_4237.png,True,3.082960969703591,0.0724653080105781,1.0,-0.008639534681356545,24.206747837364674,9,10.083333333333332,3,14.920927300560809,9
subject-01,1,125,1.18469309806824,bird,bird,False,false_bird_35_n01843065_2350.png,True,1.7543724747177525,0.4348918199539184,1.0,-0.07140753311903174,25.882541000843048,9,3.4857142857142858,8,32.08942544561293,9
subject-01,1,126,0.766396045684814,knife,knife,False,false_knife_35_n03041632_51225.png,True,-0.6384291031151255,0.0131545737385749,1.0,-0.0012719372237778,25.076784536242485,9,6.652777777777778,5,20.47284988974319,5
subject-01,1,127,0.816251993179321,airplane,airplane,False,false_airplane_35_n02690373_2095.png,True,-0.3532361065365625,0.0180422980338335,1.0,-0.0018062204597254889,24.226476785726845,9,6.13525641025641,5,23.913578571641594,3
subject-01,1,128,0.750101804733276,clock,clock,True,true_clock_35_n02708093_1775.png,True,-0.7316377098606747,0.0564275532960891,1.0,-0.00672354504072644,25.415186539292336,9,4.869780219780219,6,30.37798745194119,9
subject-01,1,129,0.951658964157104,elephant,elephant,True,true_elephant_35_n02504458_7950.png,True,0.42133787613692353,0.0448653511703014,1.0,-0.005008403652346529,24.32427867501974,9,9.083333333333334,1,18.065165244854313,0
subject-01,1,130,1.1454770565033,boat,boat,True,true_boat_35_n03662601_1926.png,True,1.530043363149128,0.0422020815312862,1.0,-0.004728751366903272,24.378708604257554,9,5.184523809523809,7,22.070931563949113,9
subject-01,1,131,0.831464052200317,elephant,elephant,True,true_elephant_35_n02504458_6721.png,True,-0.2662179489374951,0.0674514472484588,1.0,-0.007942785068413968,25.169757809489965,9,8.283333333333333,1,20.91188742735974,0
subject-01,1,132,0.969068050384521,bicycle,bicycle,True,true_bicycle_35_n02835271_14225.png,True,0.520923777486781,0.0700724646449089,1.0,-0.008557111046491801,25.573939375579357,9,8.166666666666666,6,18.527493947189296,9
subject-01,1,133,0.732858896255493,clock,clock,False,false_clock_35_n02708093_2744.png,True,-0.8302730178959024,0.758307158946991,1.0,-0.15638110753168094,26.235191643238068,9,4.869444444444444,6,30.569010667246758,8
subject-01,1,134,0.668938875198364,clock,clock,True,true_clock_35_n02708093_275.png,True,-1.195917304340483,0.0009589394903741,1.0,-7.325679164219433e-05,22.11754783271317,8,4.938528138528138,6,26.649354842939054,6
subject-01,1,135,0.960659027099609,knife,knife,False,false_knife_35_n03041632_25512.png,True,0.4728213008627595,0.0084589906036853,1.0,-0.0007813644508470898,24.70473593880888,9,6.544444444444444,5,21.36580673254266,5
subject-01,1,136,0.824493169784546,bird,bird,True,true_bird_35_n01622779_5441.png,True,-0.3060937700753763,0.0024086101911962,1.0,-0.0002011262960097231,24.763654563052114,9,3.957142857142857,7,31.93223834479024,8
subject-01,1,137,0.820307016372681,oven,oven,False,false_oven_35_n04111531_14329.png,True,-0.33003999305707565,0.2397742569446563,1.0,-0.04673754515645843,27.287300616502762,10,3.3155122655122655,9,29.716480146641498,6
subject-01,1,138,0.849910974502563,bird,bird,False,false_bird_35_n02007558_13217.png,True,-0.16069527183645127,0.468882143497467,1.0,-0.08249885997850599,27.108398616313934,10,3.6895604395604393,8,32.15307808117419,9
subject-01,1,139,1.18974685668945,cat,cat,True,true_cat_35_n02123597_7908.png,True,1.783281694933183,0.0727202519774437,1.0,-0.008695329298020216,24.780445509124547,9,3.9936868686868685,8,27.192194670633626,9
subject-01,1,140,0.591574907302856,clock,clock,True,true_clock_35_n04548280_9828.png,True,-1.638465544623322,0.0278648827224969,1.0,-0.0029449271945225387,24.345131299458444,9,4.99090909090909,6,27.19028787210389,6
subject-01,1,141,1.0355441570282,bird,bird,False,false_bird_35_n01833805_4819.png,True,0.901189743882781,0.6316604614257812,1.0,-0.11452536585687365,27.470268070697784,9,4.862637362637362,6,31.032469170929225,9
subject-01,1,142,1.08331394195557,knife,knife,True,true_knife_35_n03041632_52929.png,True,1.1744491801988017,0.3054323196411133,1.0,-0.049183083644965694,27.736822843551636,10,5.115079365079366,8,26.727267881010647,9
subject-01,1,143,1.00303411483765,truck,truck,False,false_truck_35_n04467665_2044.png,True,0.7152212322575633,0.079932227730751,1.0,-0.009695350255230373,25.370574332773685,9,5.225,7,23.856544086724192,9
subject-01,1,144,0.968816995620728,oven,oven,False,false_oven_35_n04111531_16583.png,True,0.5194876587489041,0.0122164338827133,1.0,-0.0012047989079305497,23.981308802962303,9,4.747619047619047,7,24.882223181552757,6
subject-01,1,145,0.824622869491577,airplane,airplane,True,true_airplane_35_n02690373_2796.png,True,-0.3053518435859115,0.012895330786705,1.0,-0.0012450813565301087,23.49842651374638,9,7.127777777777778,4,21.530138680886378,3
subject-01,1,146,0.864464998245239,airplane,airplane,False,false_airplane_35_n02690373_3362.png,True,-0.07744130010305598,0.0129009215161204,1.0,-0.0012480056270835031,22.572864787187427,8,5.63525641025641,6,23.121037803009397,3
subject-01,1,147,0.674399137496948,clock,clock,True,true_clock_35_n02708093_3759.png,True,-1.1646827446681451,0.0355932414531707,1.0,-0.0038893060458878494,24.85590519197285,9,5.076923076923077,6,26.72853196521827,6
subject-01,1,148,0.968238830566406,elephant,elephant,True,true_elephant_35_n02504013_2558.png,True,0.5161803577618503,0.0052051250822842,1.0,-0.0004650839686772146,24.851612353231758,9,7.666666666666666,1,21.0764884906338,9
subject-01,1,149,1.20776104927063,bird,bear,False,false_bear_35_n02134418_896.png,False,1.8863290106769286,0.7434824705123901,1.0,-0.1774631539701873,28.111584186553955,10,9.083333333333332,6,19.742274075491355,9
subject-01,1,150,1.01798987388611,truck,truck,False,false_truck_35_n04467665_56815.png,True,0.8007732667386487,0.1112472936511039,1.0,-0.014251452327988275,24.765724598430097,9,4.392857142857142,8,23.713603335993383,9
subject-01,1,151,1.19170594215393,truck,truck,True,true_truck_35_n03796401_3695.png,True,1.7944883308963266,0.0429263263940811,1.0,-0.004842842929728274,24.65026704967022,9,6.626190476190477,6,20.136554843322727,0
subject-01,1,152,1.3134229183197,dog,dog,True,true_dog_35_n02107312_197.png,True,2.4907508815382946,0.2787638902664184,1.0,-0.04230478779482379,26.269856363534927,9,4.294444444444444,8,26.193328510135192,9
subject-01,1,153,0.793298006057739,bear,bear,False,false_bear_35_n02133161_13356.png,True,-0.4845407291465521,0.3058997392654419,1.0,-0.04725113228325186,26.18829643726349,10,10.25,3,15.855797802558412,9
subject-01,1,154,0.96300482749939,truck,truck,False,false_truck_35_n03796401_6923.png,True,0.48624007793970553,0.0887914299964904,1.0,-0.010930694923828746,24.8222177028656,9,5.026190476190476,7,22.955488481089656,9
subject-01,1,155,0.851165056228638,elephant,elephant,True,true_elephant_35_n02504458_7660.png,True,-0.1535214973243301,0.0686859935522079,1.0,-0.008113847335766767,24.311858627945185,9,9.5,1,18.0629746957331,0
subject-01,1,156,0.84070897102356,bicycle,bicycle,False,false_bicycle_35_n02835271_6554.png,True,-0.21333386519569647,0.0295488722622394,1.0,-0.003141145831259201,22.9616369754076,8,9.416666666666666,2,15.442306458412206,8
subject-01,1,157,0.814416170120239,boat,boat,True,true_boat_35_n04273569_2698.png,True,-0.3637376395676073,0.0633701384067535,1.0,-0.007443945468273773,23.691870763897896,9,6.625,5,20.02645713196585,0
subject-01,1,158,1.50009202957153,dog,bottle,True,true_bottle_35_n03983396_5055.png,False,3.5585617623250276,0.8430770635604858,1.0,-0.4742798797473479,25.949220657348633,9,2.1749139749139745,10,35.540252429732426,10
subject-01,1,159,0.882192134857178,clock,chair,True,true_chair_35_n04429376_22811.png,False,0.023963957748546122,0.005240888800472,1.0,-0.0004789784079708804,24.647047446575016,9,4.902380952380952,7,25.01714529461561,8
subject-01,1,160,0.861783027648926,knife,knife,False,false_knife_35_n03041632_5640.png,True,-0.09278308517658973,0.0122018624097108,1.0,-0.001172395093622926,24.437424369622022,9,6.152777777777778,6,21.137343434411797,5
subject-01,1,161,1.01150512695312,bird,bird,True,true_bird_35_n01795545_14857.png,True,0.763678306100766,0.6458773016929626,1.0,-0.11745638850277967,27.187220335006714,9,3.012012987012987,8,33.813807210401926,9
subject-01,1,162,0.729321002960205,oven,oven,False,false_oven_35_n04111531_16144.png,True,-0.8505109722657312,0.0160256102681159,1.0,-0.0016145620195551732,24.368192989379168,9,4.575631313131313,7,27.653049169998216,6
subject-01,1,163,0.778964996337891,truck,truck,False,false_truck_35_n04467665_47050.png,True,-0.5665304254098418,0.0672207698225975,1.0,-0.008201402641164693,26.061372362077236,9,4.3468253968253965,8,25.480250574007112,9
subject-01,1,164,0.931097984313965,bottle,bottle,True,true_bottle_35_n03937543_8063.png,True,0.3037220700246771,0.0240694917738437,1.0,-0.002671050749699337,24.191718427464366,9,4.719780219780219,8,23.08886111135404,0
subject-01,1,165,1.00095200538635,bear,bear,False,false_bear_35_n02134084_1655.png,True,0.7033108571977733,0.0445902310311794,1.0,-0.0050044500015933415,23.42604545177892,9,9.416666666666666,4,14.089598810472589,9
subject-01,1,166,1.06838989257812,car,car,False,false_car_35_n03100240_2425.png,True,1.0890785358336463,1.7134064435958862,0.5,-1.1625774344828461,29.340123057365417,10,1.2609487734487732,8,40.19386995538023,8
subject-01,1,167,0.834146976470947,keyboard,keyboard,False,false_keyboard_35_n03085013_21300.png,True,-0.2508707085221239,0.0635019019246101,1.0,-0.007434097317747354,24.50994808971882,9,4.987684537684538,6,26.26688632746143,6
subject-01,1,168,0.861886978149414,bear,bear,False,false_bear_35_n02132136_2248.png,True,-0.09218845291665193,0.0722610354423523,1.0,-0.008649214343169677,24.426977396011353,9,9.583333333333332,4,14.80466087150304,9
subject-01,1,169,0.939746141433716,knife,knife,False,false_knife_35_n03041632_27832.png,True,0.3531924736136529,0.0001462224172428,1.0,-9.71560429471923e-06,21.52183666972269,8,6.513888888888889,5,19.910655622607408,5
subject-01,1,170,0.921704053878784,keyboard,keyboard,True,true_keyboard_35_n04505470_4682.png,True,0.24998558912127014,0.0054483325220644,1.0,-0.0004892950049513003,24.637066804803908,9,4.941280941280941,6,27.99300897457823,6
subject-01,1,171,1.09752511978149,car,truck,False,false_truck_35_n03417042_12908.png,False,1.2557419565427173,1.553144454956055,1.0,-0.42667830095513654,28.938592433929443,10,4.142857142857142,8,26.20865146700878,9
subject-01,1,172,1.00531005859375,elephant,elephant,False,false_elephant_35_n02504013_2148.png,True,0.7282404055451221,0.0450238361954689,1.0,-0.005173212910267163,25.182917892932892,9,6.033333333333333,1,22.34120440667871,9
subject-01,1,173,0.823267936706543,boat,boat,True,true_boat_35_n02951358_20379.png,True,-0.3131025204970058,0.2923840582370758,1.0,-0.044378348599154335,25.909556597471237,9,7.541666666666666,4,21.929886073416075,9
subject-01,1,174,1.02699589729309,cat,cat,True,true_cat_35_n02123394_6521.png,True,0.8522907873509344,0.0611460022628307,1.0,-0.007108802568298873,24.943681860808283,9,4.386544011544011,7,28.3275940087666,8
subject-01,1,175,0.930593013763428,boat,boat,True,true_boat_35_n03662601_9602.png,True,0.300833466523411,0.0331505760550498,1.0,-0.003600036395289921,23.925320132169873,9,5.9222222222222225,6,21.007552059428622,9
subject-01,1,176,0.684519052505493,clock,clock,True,true_clock_35_n04548280_3997.png,True,-1.1067933847933715,0.0338269807398319,1.0,-0.0036533370885913057,25.29879065975547,9,4.893290043290043,6,28.401106622033772,6
subject-01,1,177,0.844784021377563,car,car,False,false_car_35_n03100240_12694.png,True,-0.19002318953769798,0.0239581745117902,1.0,-0.002617443820611425,24.13238471187651,9,4.9879329004329005,6,30.08997920359059,5
subject-01,1,178,0.96417498588562,bird,bird,False,false_bird_35_n02002556_25052.png,True,0.4929337823704005,0.3035410046577453,1.0,-0.04614138779372262,24.98063174262643,9,3.4097985347985347,8,33.25530723377088,8
subject-01,1,179,1.27836894989014,clock,chair,True,true_chair_35_n04429376_22734.png,False,2.2902302455700787,0.47908815741539,1.0,-0.13872973540641273,28.09676131606102,10,3.776129426129426,8,28.42690762761202,9
subject-01,1,180,0.696174144744873,boat,boat,True,true_boat_35_n04612504_5334.png,True,-1.0401222884008186,0.0886102765798568,1.0,-0.010902855312048414,22.978305719792843,9,5.851190476190476,7,19.202359760210523,7
subject-01,1,181,0.817623138427734,keyboard,keyboard,True,true_keyboard_35_n03085013_15484.png,True,-0.34539268881428437,0.1928231716156005,1.0,-0.02911363318984753,25.100769102573395,9,4.732983682983683,7,27.015075357336485,9
subject-01,1,182,0.837677001953125,bear,bear,True,true_bear_35_n02134418_1809.png,True,-0.23067776072242682,0.0192629136145114,1.0,-0.001954915393234652,23.431339846458286,9,8.916666666666666,4,15.433015845796342,8
subject-01,1,183,0.927586078643799,bottle,bottle,True,true_bottle_35_n04560804_6392.png,True,0.2836327737198338,0.138661041855812,1.0,-0.01933861148069888,26.952258720993996,9,3.991605616605616,8,27.528373185128277,9
subject-01,1,184,0.821203947067261,boat,boat,False,false_boat_35_n02951358_29495.png,True,-0.3249092440619084,0.0784236639738082,1.0,-0.009556993722984937,24.71898263692856,9,5.287301587301587,7,22.48950668804669,9
subject-01,1,185,1.11691784858704,dog,dog,False,false_dog_35_n02086646_8449.png,True,1.3666749689079836,0.6068391799926758,1.0,-0.10989646224075861,26.738235235214233,9,4.2746031746031745,8,25.982893122931618,9
subject-01,1,186,1.09454298019409,bird,bird,True,true_bird_35_n02037110_4043.png,True,1.2386831026268459,0.2195131033658981,1.0,-0.031387413311012274,24.659503698349,9,3.4865440115440114,8,32.38980054298708,8
subject-01,1,187,0.844649791717529,elephant,elephant,True,true_elephant_35_n02504458_4819.png,True,-0.19079102890087637,0.0488703250885009,1.0,-0.005510884128436648,23.85702488385141,9,9.033333333333333,1,16.93630856965757,0
subject-01,1,188,0.996342897415161,bird,bird,True,true_bird_35_n01829413_282.png,True,0.6769451901125698,0.5693612098693848,1.0,-0.10030048065659602,27.38718295097351,9,4.920970695970696,6,30.163998839385044,9
subject-01,1,189,1.19593811035156,bird,bird,False,false_bird_35_n02007558_22160.png,True,1.8186977741215224,0.4619709253311157,1.0,-0.07799896744322843,27.199607491493225,10,3.192063492063492,8,35.49496825080625,9
subject-01,1,190,,na,truck,False,false_truck_35_n03417042_3066.png,False,,0.2569599747657776,1.0,-0.0448872964250395,27.95680671930313,10,3.8595238095238096,9,26.63218150973799,9
subject-01,1,191,0.787754058837891,boat,boat,True,true_boat_35_n04612504_254.png,True,-0.5162539950648474,0.0547806173563003,1.0,-0.006287691003351146,23.964707918465137,9,6.176190476190476,5,20.60985234596339,8
subject-01,1,192,1.25549507141113,oven,keyboard,False,false_keyboard_35_n03085013_20704.png,False,2.1593838716741347,0.7153394818305969,1.0,-0.3800635911391565,28.21400386095047,10,3.153282828282828,8,32.701183818887074,9
subject-01,1,193,0.825265169143677,chair,chair,True,true_chair_35_n03376595_3015.png,True,-0.3016776708605023,0.063608780503273,1.0,-0.007463582009114692,24.451649856287986,9,4.745970695970696,7,24.19591067581524,8
subject-01,1,194,1.0332818031311,keyboard,bottle,False,false_bottle_35_n03983396_3782.png,False,0.8882483092163103,0.5195741653442383,1.0,-0.1125686859411722,27.81258726119995,10,2.7515262515262515,10,31.248104668126228,10
subject-01,1,195,1.3392870426178,bird,bird,False,false_bird_35_n01592084_4087.png,True,2.6387024797557053,0.5076954960823059,1.0,-0.08659587806347464,26.380053341388702,9,4.261446886446886,7,30.116288184966873,9
subject-01,1,196,1.21486806869507,bird,bird,False,false_bird_35_n02013706_651.png,True,1.9269835818616676,0.3583303689956665,1.0,-0.056556104502939186,25.708919294178486,9,4.196067821067821,7,29.59984982869948,9
subject-01,1,197,0.820655822753906,keyboard,keyboard,True,true_keyboard_35_n04505470_2825.png,True,-0.3280447017811802,0.0557139255106449,1.0,-0.006438013687531277,24.52526923827827,9,4.9683372183372185,6,26.88631039460378,6
subject-01,1,198,0.842629909515381,cat,cat,False,false_cat_35_n02123597_23346.png,True,-0.2023454429059409,0.0884746983647346,1.0,-0.010946001014610561,25.27948445826769,9,3.5189976689976685,8,31.960756180159613,9
subject-01,1,199,0.850304841995239,cat,cat,False,false_cat_35_n02124075_3592.png,True,-0.15844221565888025,0.0212479270994663,1.0,-0.0021692780439946475,23.850399110466242,9,5.105866355866356,6,26.351347648709552,5
subject-01,1,200,0.894430875778198,airplane,airplane,False,false_airplane_35_n02690373_5415.png,True,0.09397372334369322,0.0133066233247518,1.0,-0.001288528542185924,23.90513284970075,9,7.715811965811966,3,19.70180776366429,3
subject-01,1,201,0.80997896194458,cat,cat,True,true_cat_35_n02123597_4591.png,True,-0.38911998128718917,0.0487625673413276,1.0,-0.005532460610503563,25.821865744888783,9,3.578246753246753,8,30.70993911644473,9
subject-01,1,202,0.985695123672485,elephant,elephant,False,false_elephant_35_n02504013_2228.png,True,0.6160362985325054,0.0491071604192256,1.0,-0.005625304729520287,25.278213497251272,9,6.636446886446887,1,21.764370282189105,9
subject-01,1,203,1.11528611183167,knife,knife,False,false_knife_35_n03041632_47743.png,True,1.3573408790294867,0.0030943385791033,1.0,-0.0002739208556351188,24.360428635729477,9,6.496825396825397,5,21.773225665014117,5
subject-01,1,204,0.823338031768799,bear,bear,False,false_bear_35_n02134418_1105.png,True,-0.3127015528721828,0.0286194533109664,1.0,-0.0030408793956932063,24.812546523287892,9,9.416666666666666,4,16.655316453528787,9
subject-01,1,205,1.09291481971741,bottle,bottle,True,true_bottle_35_n04591713_1174.png,True,1.229369470280247,0.2740536630153656,1.0,-0.040796747304852526,25.381813317537308,9,5.3959706959706955,6,23.03274452313966,0
subject-01,1,206,1.23084402084351,keyboard,keyboard,True,true_keyboard_35_n04505470_8544.png,True,2.0183714682700318,0.0064538987353444,1.0,-0.0006079137002258082,24.260098960250616,9,5.008008658008658,6,26.490621389128542,6
subject-01,1,207,0.852782011032104,bear,bear,True,true_bear_35_n02134418_379.png,True,-0.14427196524426317,0.0175926070660352,1.0,-0.0017612580324540433,22.330126953544095,8,8.916666666666666,4,14.354496852766317,8
subject-01,1,208,1.29041600227356,oven,knife,False,false_knife_35_n03041632_33198.png,False,2.3591434874565156,2.0691609382629395,1.0,-0.7958779826868525,29.482463359832764,9,4.311111111111111,8,28.91419657654326,5
subject-01,1,209,0.70032000541687,bear,bear,True,true_bear_35_n02134084_4490.png,True,-1.016406553611618,0.0874689519405365,1.0,-0.01162506787568108,24.334129467606544,9,9.583333333333332,4,15.500856498585556,9
subject-01,1,210,0.938168048858643,car,car,True,true_car_35_n02814533_23592.png,True,0.3441652467133309,0.0864698067307472,1.0,-0.014442403804460855,24.722128219902515,9,5.766504329004329,5,28.426903340077562,5
subject-01,1,211,1.24583196640015,dog,dog,False,false_dog_35_n02102973_7095.png,True,2.104107620538033,0.6897662878036499,1.0,-0.13437909144979515,27.03719985485077,10,3.7634920634920634,9,27.393285952051816,9
subject-01,1,212,1.03992795944214,elephant,elephant,True,true_elephant_35_n02504013_3810.png,True,0.9262665864596397,0.0255130231380462,1.0,-0.002680971633638113,23.9182750005275,9,8.166666666666666,1,19.5457151381798,8
subject-01,1,213,0.919413089752197,truck,truck,False,false_truck_35_n03417042_28742.png,True,0.23688049419980067,0.1241848021745681,1.0,-0.01653334216087734,26.107726708054543,9,5.376190476190476,7,23.86360078332891,9
subject-01,1,214,1.08528590202332,bicycle,bicycle,False,false_bicycle_35_n03792782_4382.png,True,1.1857294632767013,0.0258845463395118,1.0,-0.0027415748327166544,24.27549697086215,9,8.833333333333332,6,16.804621688086947,8
subject-01,1,215,0.933286190032959,keyboard,keyboard,False,false_keyboard_35_n04505470_2868.png,True,0.3162393518634991,0.0503047071397304,1.0,-0.005774089071207829,22.66329191159457,9,5.967929292929293,5,22.41781409678284,5
subject-01,1,216,0.923292875289917,bear,bear,True,true_bear_35_n02132136_4817.png,True,0.2590741886172307,0.0427449718117713,1.0,-0.004743663382865163,23.755529256537557,9,8.833333333333334,4,15.785942080915257,9
subject-01,1,217,1.15873289108276,bicycle,bicycle,True,true_bicycle_35_n03792782_1989.png,True,1.605871250810524,0.020913541316986,1.0,-0.002143174589911844,24.11646823771298,9,8.416666666666666,6,16.58469711945135,8
subject-01,1,218,0.87899112701416,truck,truck,True,true_truck_35_n03417042_4883.png,True,0.005653102881685101,0.004292169585824,1.0,-0.00037367172003402807,23.338856692193076,9,6.376190476190476,6,20.975735262275702,8
subject-01,1,219,0.98050594329834,bicycle,bicycle,True,true_bicycle_35_n03792782_6614.png,True,0.5863524197765726,0.0246210657060146,1.0,-0.002597483892258427,22.63613807922229,8,9.583333333333332,2,15.30264971515803,8
subject-01,1,220,1.02033495903015,car,car,True,true_car_35_n04285008_8581.png,True,0.8141879523091987,0.0191377848386764,1.0,-0.0019500182602013442,23.753345377743244,8,4.960851648351648,6,29.234802999557463,8
subject-01,1,221,0.907969951629639,truck,truck,True,true_truck_35_n04467665_22051.png,True,0.17142184752992673,0.1110390722751617,1.0,-0.014221827278930843,24.723417623899877,9,6.642857142857142,6,20.906452012971684,9
subject-01,1,222,0.787869215011597,keyboard,keyboard,True,true_keyboard_35_n04505470_4516.png,True,-0.5155952625383545,0.0687786787748336,1.0,-0.00815681277686636,24.529507958330214,9,5.138636363636364,6,24.386718659921687,6
subject-01,1,223,0.792044878005981,clock,clock,True,true_clock_35_n02708093_3355.png,True,-0.49170904831683576,0.0699620321393013,1.0,-0.008795262351375524,25.2662830427289,9,4.784798534798535,6,31.006900077076597,6
subject-01,1,224,1.2493839263916,chair,chair,False,false_chair_35_n02791124_11404.png,True,2.1244260411998885,0.1216800883412361,1.0,-0.01637725312170088,27.592728920280933,10,2.8453144078144077,9,32.24730717736219,9
subject-01,1,225,0.793303966522217,boat,boat,True,true_boat_35_n03344393_1145.png,True,-0.48450663326008514,0.0417195037007331,1.0,-0.004666770069126092,23.81508933380246,9,6.976190476190476,4,20.111025636310504,8
subject-01,1,226,0.923166036605835,keyboard,keyboard,False,false_keyboard_35_n04505470_4627.png,True,0.25834862815326753,0.0805784165859222,1.0,-0.009884891862753613,27.821848839521408,10,3.9774281274281273,8,29.62201459836508,9
subject-01,1,227,0.818901062011719,chair,chair,True,true_chair_35_n03376595_4354.png,True,-0.33808253075630673,0.0415483936667442,1.0,-0.004599403450290307,25.026804333552718,9,4.214224664224664,8,25.16204436563831,8
subject-01,1,228,0.928616046905518,keyboard,keyboard,False,false_keyboard_35_n03085013_3231.png,True,0.2895245429008891,0.1139347031712532,1.0,-0.014510799664850523,25.012773402035236,9,4.985353535353535,6,25.853082895175685,6
subject-01,1,229,0.856376171112061,car,car,False,false_car_35_n03100240_7454.png,True,-0.12371214570620497,0.0500485450029373,1.0,-0.005783920887204384,24.38359371572733,9,4.9125,6,30.81421614875274,5
subject-01,1,230,0.856130123138428,chair,chair,False,false_chair_35_n03376595_4212.png,True,-0.12511962389945802,0.3639647662639618,1.0,-0.06685538910076494,27.418431013822556,10,3.2527777777777773,9,31.290529899468574,10
subject-01,1,231,0.916156053543091,airplane,airplane,True,true_airplane_35_n02690373_4175.png,True,0.21824913800017842,0.0154990078881382,1.0,-0.001527820289896145,22.63410124834627,8,7.144444444444444,4,20.530594489719405,3
subject-01,1,232,0.967908143997192,bird,bird,False,false_bird_35_n01614925_19918.png,True,0.5142887179808029,2.246236562728882,1.0,-1.0151745754508061,29.955307483673096,10,3.0593614718614717,8,36.887876494154646,9
subject-01,1,233,1.09976410865784,dog,dog,False,false_dog_35_n02086240_1183.png,True,1.2685497353342587,1.3964340686798096,1.0,-0.35715813075573993,28.579991579055786,10,4.861544011544011,7,26.282754356761078,9
subject-01,1,234,1.03169584274292,car,car,False,false_car_35_n02814533_1344.png,True,0.8791760757458743,0.2685971856117248,1.0,-0.054502168154656756,26.38060361146927,9,4.205357142857142,7,33.4279725968735,5
subject-01,1,235,0.905826807022095,bottle,bottle,True,true_bottle_35_n03983396_1321.png,True,0.15916233059277457,0.2287614047527313,1.0,-0.033031012299595625,27.095777958631516,9,3.9594988344988344,8,28.426976121797296,9
subject-01,1,236,0.721221923828125,cat,cat,True,true_cat_35_n02123597_6291.png,True,-0.8968404627936022,0.0768928378820419,1.0,-0.009285150914083223,25.692153930664062,9,4.197594072594073,7,29.71252518163334,9
subject-01,1,237,0.96113395690918,boat,airplane,True,true_airplane_35_n02690373_7698.png,False,0.4755380610962493,0.0750907063484191,1.0,-0.01057438231569654,26.48556739091873,9,4.8151515151515145,7,26.566601705519755,9
subject-01,1,238,0.798912048339844,airplane,airplane,False,false_airplane_35_n02690373_4191.png,True,-0.45242649560342935,0.0255741514265537,1.0,-0.002664775542603177,25.41748509183526,9,4.613665501165501,7,27.049756952835654,3
subject-01,1,239,1.25070691108704,dog,bear,True,true_bear_35_n02134418_6204.png,False,2.1319939641595647,0.0328124016523361,1.0,-0.0035337584634241455,24.411554870195687,9,8.75,4,17.063798176064804,9
subject-01,1,240,1.16670703887939,bear,bear,True,true_bear_35_n02132136_14829.png,True,1.6514860915580971,0.0384810082614421,1.0,-0.004239832295182031,25.532974135130644,9,8.25,4,18.183965804300414,9
subject-01,1,241,0.901138067245483,car,car,False,false_car_35_n04285008_2409.png,True,0.13234114246438916,0.0484187453985214,1.0,-0.005968225376008037,25.502703115344048,9,4.258928571428571,7,31.0789003354971,5
subject-01,1,242,0.928738117218018,bird,bird,True,true_bird_35_n02037110_3761.png,True,0.29022282665568067,0.4499871134757995,1.0,-0.07521222121502556,25.638938307762146,9,4.885551948051948,6,29.488350518137334,9
subject-01,1,243,0.768558979034424,boat,boat,False,false_boat_35_n02951358_3067.png,True,-0.6260563878349081,0.0637921690940857,1.0,-0.007545134827671317,24.45037580281496,9,6.992857142857143,4,21.177109238814655,8
subject-01,1,244,0.756489992141724,chair,chair,False,false_chair_35_n03376595_14748.png,True,-0.6950951025835501,0.0710422322154045,1.0,-0.008586568750011042,23.88156377337873,8,4.738888888888889,8,22.93942898452711,8
subject-01,1,245,0.848538875579834,elephant,elephant,True,true_elephant_35_n02504458_5951.png,True,-0.16854414490056122,0.1024027690291404,1.0,-0.012854589049260448,24.58100301027298,9,8.333333333333332,1,18.89010317089218,0
subject-01,1,246,0.715955018997192,clock,clock,False,false_clock_35_n02708093_2006.png,True,-0.9269689519090357,1.3918359279632568,1.0,-0.3620444879372541,27.17742919921875,9,3.8459706959706956,8,32.6824933148318,9
subject-01,1,247,0.908077955245972,car,car,False,false_car_35_n03100240_18646.png,True,0.17203966499266227,0.5463314652442932,1.0,-0.21078578613222093,26.001904904842377,9,5.230357142857143,6,30.499769198415553,5
subject-01,1,248,1.06154704093933,bicycle,bicycle,False,false_bicycle_35_n03792782_5864.png,True,1.0499350943370414,0.0560080632567405,1.0,-0.006693122081482959,24.85261680930853,9,9.583333333333332,0,16.575864472266773,9
subject-01,1,249,0.857551097869873,clock,chair,False,false_chair_35_n04429376_36830.png,False,-0.11699116456633846,0.5796089768409729,1.0,-0.14172518892176647,27.79764813184738,10,4.04491341991342,8,28.941264022891605,9
subject-01,1,250,0.649269104003906,boat,boat,True,true_boat_35_n04273569_9282.png,True,-1.3084350935085705,0.0740891546010971,1.0,-0.00887006835640834,24.440151643939316,9,7.3273809523809526,4,20.434223389693077,9
subject-01,1,251,0.77905797958374,bird,bird,True,true_bird_35_n01622779_1609.png,True,-0.5659985295809997,0.4032544791698456,1.0,-0.06503519088498173,26.012692540884018,9,4.139682539682539,7,30.90222093180928,9
subject-01,1,252,1.10495495796204,dog,dog,True,true_dog_35_n02088094_9498.png,True,1.298243160938408,0.8284226655960083,1.0,-0.16452334451881515,27.45198357105255,9,4.489682539682539,7,26.873871179500746,9
subject-01,1,253,0.8509681224823,car,car,True,true_car_35_n04285008_5525.png,True,-0.15464802541311562,0.0102382618933916,1.0,-0.0009704767493357076,23.372302977368236,8,5.056547619047619,6,30.214980080728065,8
subject-01,1,254,0.926453113555908,oven,knife,True,true_knife_35_n03041632_29343.png,False,0.2771518276206718,0.1478175818920135,1.0,-0.025748925013117107,26.65803274512291,9,5.951190476190476,6,25.251211830442422,5
subject-01,1,255,0.962287902832031,knife,knife,True,true_knife_35_n03041632_86338.png,True,0.48213902471576037,0.3005155324935913,1.0,-0.08585915717345186,26.340855181217194,9,3.9484848484848483,9,26.755154073360664,9
subject-01,1,256,0.894484996795654,keyboard,keyboard,False,false_keyboard_35_n03085013_20691.png,True,0.09428331399278964,0.4365706145763397,1.0,-0.07838303834747624,25.131609231233597,9,4.883741258741258,6,28.523694979086255,6
subject-01,1,257,0.782284021377563,cat,cat,True,true_cat_35_n02124075_1957.png,True,-0.5475444719909913,0.0964398384094238,1.0,-0.012175411048798547,26.462780117988586,9,3.506818181818182,8,29.306126982784345,9
subject-01,1,258,0.769706010818481,bear,bear,False,false_bear_35_n02134418_195.png,True,-0.6194949754436965,0.0272548589855432,1.0,-0.003271441449118761,24.11316762305796,9,8.75,4,15.467550973068851,9
subject-01,1,259,0.797536134719849,chair,chair,True,true_chair_35_n02791124_1376.png,True,-0.46029719003487846,0.1174191534519195,1.0,-0.015101702429360786,25.090667682234198,9,4.628968253968254,7,25.93241384686121,8
subject-01,1,260,0.927482128143311,elephant,elephant,False,false_elephant_35_n02504458_8060.png,True,0.28303814145989536,0.0465613789856433,1.0,-0.005248527381924672,24.815199065953493,9,6.366666666666667,1,22.687446808497484,8
subject-01,1,261,1.1350429058075,oven,oven,False,false_oven_35_n04111531_6479.png,True,1.470356468139955,0.0142156956717371,1.0,-0.0013898728585126565,25.10018144827336,9,5.054761904761905,6,26.665191976893528,6
subject-01,1,262,1.19485306739807,bear,bear,True,true_bear_35_n02132136_4070.png,True,1.8124909589495435,0.0247335042804479,1.0,-0.0025830221571426703,24.192530837841332,9,9.75,3,16.436780355410146,8
subject-01,1,263,0.690711975097656,cat,cat,False,false_cat_35_n02123597_1153.png,True,-1.0713677587568262,0.1276098638772964,1.0,-0.017264060983290783,27.18409313261509,10,3.0641996891996888,9,30.170634742433947,9
subject-01,1,264,1.05851411819458,truck,truck,False,false_truck_35_n04467665_49656.png,True,1.0325857434684858,0.0386370383203029,1.0,-0.004231931084261559,24.626652505248785,9,4.5095238095238095,9,23.41334062891485,9
subject-01,1,265,1.50007796287537,dog,dog,True,true_dog_35_n02108915_10239.png,True,3.558481296033011,0.0350679866969585,1.0,-0.003944357524719334,25.12330250069499,9,4.311111111111111,8,24.911940872083807,9
subject-01,1,266,0.770397901535034,chair,chair,False,false_chair_35_n04429376_6835.png,True,-0.6155371249429038,0.8291274309158325,1.0,-0.20509233936194135,28.651222109794617,10,3.0844627594627596,9,31.30048962945083,10
subject-01,1,267,0.967972040176392,truck,truck,True,true_truck_35_n04467665_54079.png,True,0.5146542258837061,0.0790341645479202,1.0,-0.009605557754685535,24.54176379274577,9,4.876190476190477,8,22.435472874651655,9
subject-01,1,268,0.675743103027344,clock,clock,False,false_clock_35_n03196217_4464.png,True,-1.1569948041881422,0.0375276431441307,1.0,-0.004105340649606791,24.526322171092033,9,4.640909090909091,7,27.58021146694943,8
subject-01,1,269,0.953734874725342,dog,dog,True,true_dog_35_n02102318_9359.png,True,0.4332127914747601,1.3407065868377686,1.0,-0.3298103873897497,28.124568939208984,10,4.082936507936507,8,27.83973152300027,9
subject-01,1,270,0.877423048019409,bicycle,bicycle,True,true_bicycle_35_n03792782_12578.png,True,-0.0033168429293785767,0.0127623695880174,1.0,-0.001238755412754368,24.849704505875707,9,9.583333333333332,2,17.0336722861009,8
subject-01,1,271,0.815276861190796,bicycle,bicycle,True,true_bicycle_35_n02835271_12752.png,True,-0.3588141935621412,0.0219950545579195,1.0,-0.002257509178561317,21.757141606882215,8,8.916666666666666,3,14.078319994327117,8
subject-01,1,272,0.710922002792358,oven,oven,True,true_oven_35_n04111531_20056.png,True,-0.9557595184396036,0.0428919158875942,1.0,-0.004814034330317544,25.294144455343485,9,5.060689310689311,6,27.00568652599576,9
subject-01,1,273,0.72691798210144,oven,oven,True,true_oven_35_n04111531_12510.png,True,-0.864257069852734,0.0105402562767267,1.0,-0.000997623563394735,23.152626597497147,8,5.096897546897547,6,24.92556162281155,8
subject-01,1,274,0.684622049331665,oven,oven,False,false_oven_35_n04111531_11079.png,True,-1.1062042078752654,0.0081790192052721,1.0,-0.0007529112161073422,24.450358822010458,9,5.071367521367522,6,25.42205557267243,6
subject-01,1,275,0.702662944793701,cat,cat,True,true_cat_35_n02124075_4377.png,True,-1.0030041425601794,0.0371060296893119,1.0,-0.004078169189070999,24.647635780274868,9,4.161580086580086,7,29.8398637640112,7
subject-01,1,276,0.846778154373169,knife,knife,True,true_knife_35_n03041632_20517.png,True,-0.17861606976215472,0.0117005705833435,1.0,-0.0011186297550854116,25.244037259253673,9,6.127777777777778,5,22.071551044217586,5
subject-01,1,277,1.16215205192566,knife,knife,False,false_knife_35_n03041632_362.png,True,1.625430015122008,0.0141691677272319,1.0,-0.0014033623347218718,25.81374834291637,9,6.5777777777777775,5,23.397942011782252,5
subject-01,1,278,0.838129997253418,airplane,airplane,False,false_airplane_35_n02690373_6807.png,True,-0.2280864733511299,0.0077489078976213,1.0,-0.000717360722980902,24.074982015881687,9,6.626923076923077,5,21.67071296244543,3
subject-01,1,279,1.04412794113159,elephant,elephant,False,false_elephant_35_n02504013_1494.png,True,0.95029191189792,0.0228613745421171,1.0,-0.0023777119844977366,24.507483387365937,9,7.5,5,20.351031005215994,0
subject-01,1,280,,na,oven,False,false_oven_35_n04111531_3181.png,False,,0.8195933699607849,1.0,-0.18961078941628084,28.710802257061005,10,3.279477466977467,8,32.07602977619694,5
subject-01,1,281,1.00148296356201,truck,truck,False,false_truck_35_n03796401_6727.png,True,0.7063481187640288,0.0565433725714683,1.0,-0.006698762560246923,24.027204249054193,9,4.95952380952381,8,21.664909304515525,8
subject-01,1,282,0.967176914215088,dog,dog,True,true_dog_35_n02113023_6956.png,True,0.5101058346293488,1.1637147665023804,1.0,-0.26750694577583434,27.48901665210724,9,3.963492063492063,8,28.52108529284364,9
subject-01,1,283,1.07712006568909,clock,elephant,False,false_elephant_35_n02504013_1519.png,False,1.139018098820419,1.650161862373352,0.5,-1.1049586124278774,29.18494427204132,10,4.375,1,26.283456575936356,0
subject-01,1,284,0.892746925354004,oven,oven,False,false_oven_35_n04111531_8082.png,True,0.0843409534997635,0.0424008183181285,1.0,-0.0049325082687351595,26.024507503956556,9,4.398412698412699,6,28.68676347369225,9
subject-01,1,285,0.69857120513916,oven,oven,False,false_oven_35_n04111531_550.png,True,-1.0264102867002827,0.0513050518929958,1.0,-0.005924634357489904,26.277084466069937,9,5.065079365079365,6,28.204203135931877,9
subject-01,1,286,0.766510963439941,clock,clock,False,false_clock_35_n02708093_2242.png,True,-0.6377717344240912,0.0328220017254352,1.0,-0.003730391822198144,25.09362706914544,9,4.340873015873015,7,29.37457189035824,6
subject-01,1,287,0.806304931640625,airplane,airplane,True,true_airplane_35_n02690373_10809.png,True,-0.4101366857038651,0.0408051237463951,1.0,-0.004525754473376029,23.3672019764781,9,7.128943278943279,4,20.974847089418077,3
subject-01,1,288,1.04395389556885,bird,bird,False,false_bird_35_n02037110_6501.png,True,0.9492963120131827,0.4882111549377441,1.0,-0.08237672100057337,25.564808696508408,9,4.017063492063492,7,31.853883408432914,8
subject-01,1,289,0.682183980941772,airplane,airplane,False,false_airplane_35_n02690373_12756.png,True,-1.1201507892746796,0.0134766558185219,1.0,-0.0013094769668962624,24.35551638621837,9,7.229797979797979,4,21.099143300123753,8
subject-01,1,290,0.859585046768188,bottle,bottle,False,false_bottle_35_n03983396_5413.png,True,-0.10535628426921788,0.1480886489152908,1.0,-0.01983576087502842,26.367997005581856,9,3.9558913308913306,8,28.065526760304206,9
subject-01,1,291,0.845654964447021,bird,bird,True,true_bird_35_n01560419_631.png,True,-0.18504109860751503,0.4772617518901825,1.0,-0.08097387256825601,25.767246812582016,9,4.14041514041514,7,30.541916669872027,9
subject-01,1,292,0.811238050460815,cat,cat,True,true_cat_35_n02123394_4734.png,True,-0.38191756623044426,0.1164571195840835,1.0,-0.01507858726245819,26.454305484890938,9,4.098351648351648,7,30.70239440729144,9
subject-01,1,293,1.28115701675415,bottle,bottle,True,true_bottle_35_n03937543_469.png,True,2.3061789374226604,0.0806630030274391,1.0,-0.01049619609620065,25.0224115611054,9,4.69993894993895,7,25.672767582954037,0
subject-01,1,294,0.648790836334229,clock,clock,True,true_clock_35_n04548280_1055.png,True,-1.3111709474384727,0.037026684731245,1.0,-0.004052614326115341,25.64901338517666,9,4.812276612276612,6,30.854976058642723,9
subject-01,1,295,1.12680101394653,chair,chair,True,true_chair_35_n02791124_15934.png,True,1.42321004017235,0.0636945515871048,1.0,-0.0075573863411540045,25.60491393506527,9,3.833333333333333,8,27.530945180886256,9
subject-01,1,296,0.732599020004272,cat,keyboard,True,true_keyboard_35_n03085013_22187.png,False,-0.8317595985457535,0.6724991202354431,0.5,-0.9858041310001192,25.48886873945594,9,3.5080086580086576,6,36.48816251933645,10
subject-01,1,297,1.0483078956604,dog,dog,False,false_dog_35_n02099601_8560.png,True,0.9742026751577052,1.629165768623352,1.0,-0.4630986031586039,28.096076607704163,9,3.894444444444444,9,27.776592305617932,9
subject-01,1,298,0.976209878921509,truck,truck,True,true_truck_35_n03417042_11091.png,True,0.5617774686484684,0.0767782032489776,1.0,-0.009267042719303628,24.2488828971982,9,5.292857142857143,7,21.581620337737586,8
subject-01,1,299,0.965821981430054,bird,bird,True,true_bird_35_n02013706_7132.png,True,0.5023551577182551,0.456983208656311,1.0,-0.07728104291183249,25.731226429343224,9,3.492399267399267,8,32.314350443024466,9
subject-01,1,300,0.990087985992432,car,car,False,false_car_35_n02814533_4978.png,True,0.6411649668567964,0.5614858269691467,1.0,-0.24750832877219142,26.098158597946167,9,3.4163461538461535,8,33.55522923627114,8
subject-01,1,301,1.00960898399353,bear,bear,True,true_bear_35_n02134418_6244.png,True,0.7528317226987286,0.037885520607233,1.0,-0.004193563212806102,23.82626788073685,9,8.416666666666666,4,16.018930872409282,8
subject-01,1,302,0.941438913345337,bicycle,bicycle,False,false_bicycle_35_n03792782_50569.png,True,0.36287570536955127,0.0240309163928031,1.0,-0.0025229066073890775,24.070055683143437,8,9.416666666666666,2,16.86781663932154,8
subject-01,1,303,0.873242855072021,car,car,True,true_car_35_n03100240_2632.png,True,-0.027228970024616023,0.0447842217981815,1.0,-0.005472227428960725,24.75877394154668,9,4.786706349206349,7,29.939998655002434,8
subject-01,1,304,0.798967123031616,knife,knife,False,false_knife_35_n03041632_11285.png,True,-0.45211144961250055,0.0099326726049184,1.0,-0.0009333076915397863,24.831117471680045,9,6.602777777777778,5,21.56945385183587,5
subject-01,1,305,0.921159029006958,knife,knife,False,false_knife_35_n03041632_39952.png,True,0.24686786126296367,0.0130279483273625,1.0,-0.0012606576716869035,24.26648139487952,9,6.531746031746032,5,21.044081740321513,5
subject-01,1,306,0.952635049819946,chair,chair,True,true_chair_35_n04099969_9745.png,True,0.42692141850433973,0.2410487532615661,1.0,-0.035735672629316366,27.118537843227386,10,4.897222222222222,6,26.57269190363421,9
subject-01,1,307,0.940593004226685,car,car,True,true_car_35_n03100240_49.png,True,0.35803681716252084,0.289777547121048,1.0,-0.07344770652332624,24.598858207464218,9,4.180357142857143,7,31.03578633465075,5
subject-01,1,308,0.9721999168396,bird,bird,True,true_bird_35_n01817953_5953.png,True,0.5388391200706577,0.3235349655151367,1.0,-0.049649633033547025,25.76189284771681,9,3.146103896103896,8,32.47922119767801,8
subject-01,1,309,0.950297117233276,bear,bear,False,false_bear_35_n02134418_5253.png,True,0.4135476479975305,0.046901773661375,1.0,-0.005292807988796502,24.196951169520617,9,9.333333333333334,4,15.514990336993575,9
subject-01,1,310,0.8959059715271,bicycle,bicycle,False,false_bicycle_35_n03792782_7576.png,True,0.10241177332591492,0.0273977741599082,1.0,-0.002917010121140945,24.926384113729,9,7.166666666666666,6,19.73582357353578,8
subject-01,1,311,0.943768978118896,keyboard,keyboard,True,true_keyboard_35_n03085013_5157.png,True,0.37620446930622425,0.0607378929853439,1.0,-0.007377172104311859,24.70948562771082,9,3.6821900321900323,8,29.96475597547779,8
subject-01,1,312,1.45149803161621,car,boat,True,true_boat_35_n03344393_7050.png,False,3.2805875468287278,0.1525085270404815,1.0,-0.021138310106915473,26.53826805949211,9,6.226190476190476,5,23.485716984637836,9
subject-01,1,313,0.753458976745605,bicycle,bicycle,False,false_bicycle_35_n03792782_51335.png,True,-0.7124335427684481,0.0399209074676036,1.0,-0.004513180799881952,25.16944171860814,9,8.916666666666666,3,17.97681509577791,8
subject-01,1,314,0.733305931091309,cat,cat,True,true_cat_35_n02124075_7230.png,True,-0.8277158264110668,0.0052489931695163,1.0,-0.0004674096339047942,23.673397509846836,8,4.336580086580087,7,27.549705539796552,5
subject-01,1,315,1.0349760055542,truck,truck,True,true_truck_35_n04467665_68020.png,True,0.8979397239849861,0.2245749235153198,1.0,-0.04753193312308725,23.569438099861145,9,3.576190476190476,9,25.516449276146517,9
subject-01,1,316,0.828696012496948,bear,elephant,True,true_elephant_35_n02504458_2970.png,False,-0.2820520786115772,0.0407986938953399,1.0,-0.0047548026242208805,25.172576904296875,9,8.2,1,20.652437130408572,0
subject-01,1,317,1.02454710006714,bicycle,bicycle,False,false_bicycle_35_n02835271_2714.png,True,0.8382828333558995,0.0275232642889022,1.0,-0.002930998450211952,24.04287426173687,9,9.083333333333332,3,16.267648779756428,8
subject-01,1,318,0.910430908203125,elephant,elephant,True,true_elephant_35_n02504013_3307.png,True,0.18549935713335994,0.1039711162447929,1.0,-0.01315639275438924,24.69419737905264,9,8.5,1,19.454786067082946,9
subject-01,1,319,0.810467004776001,truck,truck,True,true_truck_35_n03796401_3940.png,True,-0.38632821010348073,0.0706720352172851,1.0,-0.008493268961250551,24.678331095725298,9,7.492857142857143,4,20.683341462372262,9
subject-01,1,320,0.882339954376221,clock,chair,False,false_chair_35_n04429376_5362.png,False,0.024809535732864697,0.0410978496074676,1.0,-0.004844939221953328,25.819366067647934,9,4.0197552447552445,8,28.910781978514276,9
subject-01,1,321,0.88462495803833,cat,cat,False,false_cat_35_n02123159_1165.png,True,0.0378805347678672,0.1603584885597229,1.0,-0.021643420639582193,25.58377370238304,9,4.563131313131313,7,27.88367373812564,9
subject-01,1,322,,na,boat,True,true_boat_35_n03662601_4665.png,False,,0.0498903021216392,1.0,-0.005919357994486798,24.760225281119347,9,6.575,4,21.153702696105366,9
subject-01,1,323,0.798176050186157,cat,cat,True,true_cat_35_n02124075_5067.png,True,-0.4566366556640601,0.0489615835249424,1.0,-0.005540072424986771,24.619073884561658,9,5.052020202020202,6,26.247867288251477,5
subject-01,1,324,1.50008988380432,clock,knife,True,true_knife_35_n03041632_22480.png,False,3.5585494878059105,0.0296734664589166,1.0,-0.0034875220381507346,25.703195931389928,9,4.5464646464646465,8,26.349830944350987,9
subject-01,1,325,1.48990392684937,bicycle,bottle,False,false_bottle_35_n04560804_2539.png,False,3.500282345509146,1.3040571212768557,0.25,-2.9938656198391196,27.73062300682068,9,1.1023559773559772,8,37.3188920108326,0
subject-01,1,326,0.943626165390015,oven,oven,True,true_oven_35_n04111531_8681.png,True,0.3753875318665409,0.0118122994899749,1.0,-0.0011385005145921427,24.713666504248977,9,3.8420024420024417,8,26.56360022263422,8
subject-01,1,327,0.713464975357056,car,car,False,false_car_35_n03100240_23804.png,True,-0.9412128494384134,0.057034358382225,1.0,-0.007837951039059779,24.192703790962696,9,4.326028138528138,7,30.278301902928053,8
subject-01,1,328,0.717327117919922,oven,oven,True,true_oven_35_n04111531_547.png,True,-0.9191200788449208,0.0088632255792617,1.0,-0.0008237177252416227,22.43096701669856,8,5.284859584859585,6,22.33658524504299,5
subject-01,1,329,0.671097993850708,boat,boat,False,false_boat_35_n04273569_9873.png,True,-1.1835664104276054,0.0730730593204498,1.0,-0.0088406023005809,24.618468709290028,9,5.670634920634921,7,21.32919850347097,9
subject-01,1,330,0.736901044845581,cat,cat,False,false_cat_35_n02123597_13140.png,True,-0.8071505515311819,0.0798631533980369,1.0,-0.009875320625009313,25.123122431337833,9,4.39005439005439,7,28.508138817088074,9
subject-01,1,331,0.816885948181152,bear,bear,True,true_bear_35_n02134418_1330.png,True,-0.34960966805220545,0.0286908857524395,1.0,-0.0030799803160705902,25.335859891027212,9,8.083333333333332,4,18.678155246503312,9
subject-01,1,332,1.20850706100464,chair,chair,False,false_chair_35_n04429376_6272.png,True,1.8905964518268235,1.0571985244750977,1.0,-0.2466801167085259,28.77750325202942,10,3.128052503052503,9,31.487061191338594,9
subject-01,1,333,0.838335037231445,bear,bear,False,false_bear_35_n02134084_22997.png,True,-0.2269135748567553,0.0602779276669025,1.0,-0.007012219168473115,24.47942366125062,9,9.416666666666666,4,15.817669818965927,9
subject-01,1,334,0.830148935317993,clock,clock,False,false_clock_35_n03196217_3508.png,True,-0.27374086532700637,0.3622364997863769,1.0,-0.058556818542796235,26.51175880432129,9,3.5475579975579974,8,31.61149215810513,9
subject-01,1,335,1.07403802871704,oven,chair,True,true_chair_35_n02791124_958.png,False,1.1213877978473659,0.9423562288284302,1.0,-0.2503318262413189,27.768666625022888,10,3.038034188034188,9,32.28877184325001,9
subject-01,1,336,0.64778995513916,boat,boat,False,false_boat_35_n03344393_4012.png,True,-1.3168963286935835,0.1941124647855758,1.0,-0.028233181088256735,25.55246551334858,9,6.75,4,21.74344833500149,9
subject-01,1,337,0.721590995788574,airplane,airplane,True,true_airplane_35_n02690373_4921.png,True,-0.8947292455037258,0.0152526013553142,1.0,-0.001498927949975867,23.262037193402648,9,7.115151515151515,4,21.77119862643617,3
subject-01,1,338,1.12945103645325,bear,cat,False,false_cat_35_n02125311_28052.png,False,1.4383690712944712,0.1391504406929016,1.0,-0.019410077829832454,25.882551729679108,9,2.9321789321789318,9,31.39514992814839,9
subject-01,1,339,0.649230003356934,airplane,airplane,False,false_airplane_35_n02690373_1837.png,True,-1.3086587625237733,0.0198921170085668,1.0,-0.002100705666510401,25.19196858815849,9,7.115151515151515,4,23.43080438525721,3
subject-01,1,340,1.06698107719421,elephant,elephant,False,false_elephant_35_n02504458_5191.png,True,1.0810196321089205,0.0357715673744678,1.0,-0.003922336569505433,24.785859126597643,9,8.283333333333333,1,19.79351004868258,0
subject-01,1,341,1.1027729511261,bird,bird,False,false_bird_35_n01855672_2187.png,True,1.2857613388214943,0.720782995223999,1.0,-0.13878143508470503,26.08724221587181,9,3.11759768009768,8,34.317864240974075,9
subject-01,1,342,0.786720991134644,clock,clock,True,true_clock_35_n04548280_7794.png,True,-0.5221634941068622,0.0473037585616111,1.0,-0.005377719589848678,24.289251744747162,9,5.321428571428571,6,27.51058854338023,6
subject-01,1,343,1.11259698867798,knife,clock,False,false_clock_35_n03196217_8489.png,False,1.3419581788921742,1.284108281135559,0.5,-2.1023161376639856,28.62074077129364,10,1.0309523809523806,10,39.121610559348206,6
subject-01,1,344,0.940622806549072,knife,knife,False,false_knife_35_n03041632_21590.png,True,0.3582072965948392,0.0123877469450235,1.0,-0.001221747177456166,25.929040962830186,9,4.767857142857142,8,26.394235408803127,9
subject-01,1,345,0.842097997665405,elephant,elephant,False,false_elephant_35_n02504458_1249.png,True,-0.2053881598140288,0.0448900461196899,1.0,-0.005015472339619559,24.287892263382673,9,7.059523809523809,1,20.753590766097236,8
subject-01,1,346,0.959984064102173,bottle,keyboard,False,false_keyboard_35_n04505470_4549.png,False,0.4689602826795296,0.0558352097868919,1.0,-0.006447792043105298,24.785971127450466,9,5.8560606060606055,5,24.29355151126326,6
subject-01,1,347,0.90174412727356,elephant,elephant,False,false_elephant_35_n02504013_3771.png,True,0.13580801220009778,0.096127450466156,1.0,-0.012300070498170366,24.882884442806244,9,6.625,1,21.665240521723568,9
subject-01,1,348,1.03944087028503,bicycle,bicycle,True,true_bicycle_35_n02835271_19552.png,True,0.9234802706177344,0.0276218764483928,1.0,-0.002917010121140945,22.616694249678403,8,8.916666666666666,3,14.95451030497051,8
subject-01,1,349,0.841240882873535,bear,bear,True,true_bear_35_n02134084_4477.png,True,-0.21029114828761364,0.0240632444620132,1.0,-0.0025007974235141534,24.47094553336501,9,9.416666666666666,4,15.920790649225506,9
subject-01,1,350,0.981261968612671,elephant,elephant,False,false_elephant_35_n02504013_10149.png,True,0.5906771420157212,0.0531937927007675,1.0,-0.00608353787796298,23.723202804103494,9,7.977777777777778,1,19.935674539128666,8
subject-01,1,351,0.680945158004761,boat,boat,True,true_boat_35_n04273569_709.png,True,-1.1272372783174436,0.0494976602494716,1.0,-0.005711323597437346,23.102509651333094,9,5.767857142857142,7,19.597213822899022,9
subject-01,1,352,0.958779096603394,car,car,False,false_car_35_n03100240_7120.png,True,0.4620674582718817,0.0390098690986633,1.0,-0.004438041427536855,24.379137709736824,9,4.142200854700855,7,32.14262513172857,8
subject-01,1,353,0.912553071975708,car,boat,False,false_boat_35_n02951358_12867.png,False,0.19763885655015667,0.8379202485084534,0.3333333333333333,-3.1385278126483858,26.846942842006683,9,2.957575757575758,5,31.514267709442763,0
subject-01,1,354,0.950444936752319,bird,bird,True,true_bird_35_n01558993_38999.png,True,0.41439322598184847,0.4562302827835083,1.0,-0.07560846592590051,26.276465117931366,9,3.7856893106893104,8,30.65469320554407,9
subject-01,1,355,1.0921471118927,bicycle,bicycle,False,false_bicycle_35_n03792782_4210.png,True,1.2249779201036113,0.0591670051217079,1.0,-0.007131013867632094,24.46834871917963,9,9.416666666666666,0,16.333779965847594,8
subject-01,1,356,1.19033098220825,dog,dog,False,false_dog_35_n02102318_11997.png,True,1.7866230918067036,0.9767494201660156,1.0,-0.2084019346778369,26.667531728744507,9,4.337734487734488,8,25.9717269713955,9
subject-01,1,357,0.959825038909912,clock,clock,False,false_clock_35_n02708093_6813.png,True,0.46805060442865726,0.752335786819458,1.0,-0.14584547125786804,29.132901430130005,10,2.5880341880341877,9,35.606214972780386,9
subject-01,1,358,0.789672136306763,oven,oven,False,false_oven_35_n04111531_8036.png,True,-0.5052819388005928,0.0209577605128288,1.0,-0.002273041531437092,25.13410084694624,9,5.124206349206349,6,25.815510093318444,5
subject-01,1,359,0.621745824813843,clock,clock,False,false_clock_35_n02708093_3454.png,True,-1.4658776226821926,0.040843840688467,1.0,-0.004542519617300992,24.239232189953327,9,5.312337662337662,6,26.195279210193334,6
subject-01,1,360,0.883166074752808,keyboard,keyboard,True,true_keyboard_35_n03085013_21641.png,True,0.029535225596835114,0.1185559332370758,1.0,-0.015218133540006189,24.28620572388172,9,5.367929292929293,6,24.11078751241083,6
subject-01,1,361,1.50012016296387,chair,chair,False,false_chair_35_n02791124_139.png,True,3.558722694909174,1.5446162223815918,1.0,-0.5099740969665196,29.29439902305603,10,2.367038517038517,10,32.11275517811688,10
subject-01,1,362,0.800787925720215,bear,bear,False,false_bear_35_n02134084_6821.png,True,-0.44169583821534364,0.06052752956748,1.0,-0.007082449801699682,25.30776273738593,9,9.25,4,18.284501511369836,9
subject-01,1,363,0.774621963500977,cat,cat,False,false_cat_35_n02124075_5874.png,True,-0.5913740521232855,0.1041077598929405,1.0,-0.01319649517985442,25.610573790967464,9,4.563131313131313,7,28.16082460950528,9
subject-01,1,364,0.83882212638855,chair,chair,False,false_chair_35_n04099969_8604.png,True,-0.22412725901487868,0.0461613871157169,1.0,-0.005214734029589037,25.12678449973464,9,3.9293761793761792,8,27.779955074496453,8
subject-01,1,365,0.776423931121826,bicycle,bicycle,True,true_bicycle_35_n02835271_15524.png,True,-0.581066183727362,0.0244316421449184,1.0,-0.0025624055823182416,23.929989041760564,9,8.083333333333332,3,17.085960213557357,8
subject-01,1,366,0.819966077804565,chair,chair,False,false_chair_35_n04429376_55163.png,True,-0.3319902777628457,0.0489646308124065,1.0,-0.0056552156779155595,26.3515918366611,10,4.345945720945721,8,27.109246045543326,9
subject-01,1,367,1.36407899856567,dog,dog,True,true_dog_35_n02106662_10632.png,True,2.7805209099158334,1.1833794116973877,1.0,-0.27250134630141093,27.22590261697769,9,4.738492063492063,7,26.324832587521396,9
subject-01,1,368,0.823732137680054,car,car,False,false_car_35_n03100240_9675.png,True,-0.3104471328591539,0.0245391242206096,1.0,-0.002618280473014451,24.41708480194211,9,5.092261904761905,6,30.126045972180634,8
subject-01,1,369,0.969957113265991,bird,bird,True,true_bird_35_n02011460_22291.png,True,0.5260095199118171,0.4801288843154907,1.0,-0.08147211436430518,25.736548006534576,9,4.982814407814407,6,28.933303002193437,9
subject-01,1,370,0.871407985687256,dog,dog,False,false_dog_35_n02106662_56099.png,True,-0.03772504771382391,1.359607815742493,1.0,-0.34160572747681656,27.700148940086365,9,4.895634920634921,7,26.098733721530444,9
subject-01,1,371,0.685064077377319,clock,keyboard,False,false_keyboard_35_n04505470_3970.png,False,-1.103675656935065,0.0653156340122222,1.0,-0.007989288036230939,25.34622147679329,9,4.465151515151515,7,27.030979507429677,6
subject-01,1,372,0.654927015304565,boat,boat,False,false_boat_35_n03662601_32803.png,True,-1.2760699142410734,0.065277524292469,1.0,-0.007749947001510009,24.041868790984154,9,6.476190476190476,5,20.502792193872736,9
subject-01,1,373,0.858711004257202,bottle,bottle,False,false_bottle_35_n02823428_4043.png,True,-0.11035610506036042,0.1652810871601104,1.0,-0.022775441256774876,25.43548469990492,9,6.26025641025641,5,22.96673568440751,0
subject-01,1,374,0.812652111053467,airplane,airplane,True,true_airplane_35_n02690373_5221.png,True,-0.37382865812561833,0.012372164055705,1.0,-0.0011924459487985385,22.681848747190088,9,7.133741258741258,4,19.706024900087076,3
subject-01,1,375,1.5001528263092,car,knife,False,false_knife_35_n03041632_90125.png,False,3.55890954036696,0.0220983270555734,1.0,-0.002382730706121694,25.551265174522996,9,5.527020202020202,7,23.803120187232537,5
subject-01,1,376,0.668279886245728,oven,oven,False,false_oven_35_n04111531_11230.png,True,-1.1996869455479868,0.0097469417378306,1.0,-0.0009164239691093331,24.33536025416106,9,5.054761904761905,6,25.675878019190627,6
subject-01,1,377,1.14994287490845,clock,keyboard,True,true_keyboard_35_n04505470_3002.png,False,1.555589365123732,0.0195654556155204,1.0,-0.0021048270441891186,24.253667315468192,9,5.224747474747474,6,24.85037635062207,6
subject-01,1,378,0.644294023513794,bicycle,bicycle,True,true_bicycle_35_n02835271_12237.png,True,-1.3368942480227022,0.016688797622919,1.0,-0.001658622297126416,22.525812493637204,8,9.083333333333332,3,14.813686195052245,8
subject-01,1,379,1.04556894302368,dog,dog,False,false_dog_35_n02088238_9947.png,True,0.9585349334095625,1.542754054069519,1.0,-0.5153775040442597,29.373373866081238,10,2.9206349206349205,9,30.93326914699034,9
subject-01,1,380,1.21543908119202,truck,airplane,False,false_airplane_35_n02690373_2075.png,False,1.9302499677849705,0.0839433893561363,1.0,-0.010577876141533799,26.44421985000372,9,4.188034188034187,8,27.467120896534723,9
subject-01,1,381,0.765315055847168,bicycle,bicycle,False,false_bicycle_35_n02835271_12930.png,True,-0.6446127330843124,0.0252884626388549,1.0,-0.002631487721546951,23.55118190543726,8,7.95,6,17.749334220191795,8
subject-01,1,382,1.2453761100769,dog,dog,False,false_dog_35_n02096294_4609.png,True,2.1014999671411885,1.4554307460784912,1.0,-0.3993224127991423,28.930088996887207,10,4.238492063492063,8,27.52552357765394,9
subject-01,1,383,0.808964014053345,knife,knife,False,false_knife_35_n03041632_15754.png,True,-0.3949258288343509,0.0091473776847124,1.0,-0.0008523519411510553,24.594784286338836,9,5.787301587301587,6,23.17110925301372,5
subject-01,1,384,1.13671398162842,bird,bird,True,true_bird_35_n01819313_5634.png,True,1.479915590869107,0.2891029417514801,1.0,-0.04323767863879983,25.143492229282856,9,3.7218253968253965,8,30.63641433381218,9
subject-01,1,385,0.720534086227417,clock,clock,True,true_clock_35_n02708093_8386.png,True,-0.9007751280915978,0.0519437007606029,1.0,-0.0059261333293299055,24.911480870097876,9,4.9821178821178815,6,27.22293557325406,6
subject-01,1,386,0.832268953323364,bottle,bottle,False,false_bottle_35_n04579145_6435.png,True,-0.26161364042933744,0.0016187911387532,1.0,-0.00013227145423971013,22.575416434207,8,5.4293040293040296,6,22.600528636412122,0
subject-01,1,387,0.961992025375366,airplane,airplane,True,true_airplane_35_n02690373_9531.png,True,0.4804465049116659,0.0265542361885309,1.0,-0.0030875734855302975,23.609747981652617,9,6.951165501165501,4,21.338346119343345,3
subject-01,1,388,0.969954013824463,bottle,bottle,True,true_bottle_35_n04591713_5518.png,True,0.5259917900508575,0.4165892601013183,1.0,-0.07798472633436004,28.011205196380615,10,3.5395604395604394,8,29.87881815098728,9
subject-01,1,389,0.865766048431396,airplane,airplane,False,false_airplane_35_n02690373_12896.png,True,-0.06999885000560081,0.0213026367127895,1.0,-0.0021782381967618393,25.00423849746585,9,6.893589743589743,4,24.55871926986284,3
subject-01,1,390,1.19952297210693,truck,truck,False,false_truck_35_n03796401_124.png,True,1.8392044040766848,0.9556862711906432,1.0,-0.3082878824728767,27.508619010448456,9,4.376190476190477,9,24.653911376514998,8
subject-01,1,391,0.979361057281494,bicycle,bicycle,True,true_bicycle_35_n03792782_7050.png,True,0.5798032819044829,0.0487640015780925,1.0,-0.005681650747795861,26.061640989035368,9,6.2,6,21.067986036922143,9
subject-01,1,392,0.855406045913696,bicycle,bicycle,True,true_bicycle_35_n02835271_13729.png,True,-0.12926159218716052,0.0105600524693727,1.0,-0.001001680732971132,22.728492913767695,9,8.583333333333332,2,14.658924597341596,8
subject-01,1,393,0.899249076843262,bird,bird,False,false_bird_35_n02027492_3922.png,True,0.12153547412608548,0.4527445435523987,1.0,-0.07494249185705083,26.3721062541008,9,3.3912087912087907,8,33.134606931608175,9
subject-01,1,394,,na,elephant,True,true_elephant_35_n02504013_9809.png,False,,0.0333249270915985,1.0,-0.003643645842131825,24.930291332304478,9,8.2,5,20.444493060982524,0
subject-01,1,395,0.942636013031006,keyboard,keyboard,False,false_keyboard_35_n04505470_5086.png,True,0.36972352320706797,0.0039804615080356,1.0,-0.0003472573426692276,24.264422037173063,9,5.081060606060606,6,26.267982017559632,8
subject-01,1,396,0.884462118148804,keyboard,keyboard,True,true_keyboard_35_n03085013_19439.png,True,0.036949035149661434,0.0401050522923469,1.0,-0.004444866603527636,24.453458167612553,9,5.292038517038517,6,25.67243579669779,5
subject-01,1,397,1.16426205635071,airplane,airplane,False,false_airplane_35_n02690373_9926.png,True,1.6374999589304235,0.0146193988621234,1.0,-0.0014295061739485386,22.938895804807544,8,7.117832167832168,4,21.133803239740224,3
subject-01,1,398,1.01614904403687,elephant,elephant,True,true_elephant_35_n02504458_3197.png,True,0.7902430931629909,0.0450600013136863,1.0,-0.005028711286649018,23.802175045013428,9,8.366666666666667,1,18.177555429868832,0
subject-01,1,399,1.08986687660217,dog,dog,False,false_dog_35_n02110185_14056.png,True,1.2119341977777627,0.9232102632522584,1.0,-0.19711894424847254,27.746890664100647,10,4.860714285714286,7,27.130881920840075,9
subject-01,1,400,0.805599927902222,airplane,airplane,True,true_airplane_35_n02690373_2823.png,True,-0.4141695471548763,0.0126672349870204,1.0,-0.0012208520151904385,22.10027127340436,8,7.128943278943279,4,20.07001578276563,3
subject-01,1,401,0.898437023162842,bicycle,bicycle,False,false_bicycle_35_n02835271_14157.png,True,0.11689025055417049,0.0317810587584972,1.0,-0.0034564198241311414,23.344575461000204,8,9.083333333333332,3,16.205382553658684,8
subject-01,1,402,0.730231046676636,chair,chair,True,true_chair_35_n03376595_606.png,True,-0.8453052123203397,0.0561355166137218,1.0,-0.00650664416576578,24.32740773819387,8,5.137301587301588,7,23.534165953003658,8
subject-01,1,403,0.677989959716797,airplane,airplane,False,false_airplane_35_n02690373_1442.png,True,-1.1441420188265101,0.0111134508624672,1.0,-0.0010552607811581496,24.5340695399791,9,6.034498834498835,5,24.84695511603926,8
subject-01,1,404,0.851983070373535,keyboard,keyboard,True,true_keyboard_35_n04505470_10035.png,True,-0.14884217786595386,0.0020407286938279,1.0,-0.00016738385042430124,24.427082115784287,9,4.878246753246753,6,28.110064362798024,8
subject-01,1,405,0.738028049468994,bear,bear,True,true_bear_35_n02133161_13278.png,True,-0.8007037013184874,0.0712638422846794,1.0,-0.008578993829083373,25.48031686991453,9,8.75,4,19.170590781348775,9
subject-01,1,406,0.941334009170532,cat,bear,True,true_bear_35_n02134418_2657.png,False,0.36227561776777534,0.0496418923139572,1.0,-0.0056576733306853534,25.593387082219124,9,9.083333333333332,6,18.97807879676712,9
subject-01,1,407,0.631381034851074,bear,bear,False,false_bear_35_n02133161_12894.png,True,-1.4107609402947097,0.0620644614100456,1.0,-0.007316467456632021,24.08009773120284,9,9.416666666666666,4,15.613601861349366,9
subject-01,1,408,0.597286939620972,clock,clock,False,false_clock_35_n03196217_6195.png,True,-1.6057907747067222,0.0856575295329094,1.0,-0.010716614988769163,26.171649627387524,9,4.854004329004329,6,31.171888544636555,9
subject-01,1,409,0.764714002609253,bottle,bottle,True,true_bottle_35_n04591713_13349.png,True,-0.6480509622753853,0.0966725945472717,1.0,-0.012167145216493973,24.321996107697487,9,4.878113553113553,7,23.86683602391385,0
subject-01,1,410,0.800555944442749,boat,boat,False,false_boat_35_n04273569_16295.png,True,-0.44302285011654,0.1405992358922958,1.0,-0.023656103638133516,24.860484302043915,9,5.351190476190476,7,22.568146664070195,9
subject-01,1,411,0.928403854370117,elephant,elephant,False,false_elephant_35_n02504013_2672.png,True,0.2883107293427515,0.0233694817870855,1.0,-0.0024333973065182525,24.995222197845578,9,7.866666666666667,1,21.137901352090346,5
subject-01,1,412,0.750249147415161,bear,bear,True,true_bear_35_n02134084_22292.png,True,-0.7307948595472726,0.0384072549641132,1.0,-0.004232050799112755,24.97794234682806,9,9.583333333333332,4,16.571441601639467,9
subject-01,1,413,0.769982099533081,airplane,airplane,False,false_airplane_35_n02690373_997.png,True,-0.6179156539826614,0.0167099386453628,1.0,-0.001708356622995083,24.327029190957546,9,7.14005439005439,4,22.183911769139534,3
subject-01,1,414,0.90582013130188,knife,knife,True,true_knife_35_n03041632_29337.png,True,0.15912414319993376,0.0204281229525804,1.0,-0.002163901990870851,25.17796659655869,9,5.760353535353535,6,25.409405051978187,9
subject-01,1,415,0.899675130844116,elephant,elephant,True,true_elephant_35_n02504458_3261.png,True,0.12397264809055998,0.0578512512147426,1.0,-0.006690661882625084,24.248282097280025,9,9.583333333333334,1,17.49326449685024,0
subject-01,1,416,0.959582090377808,clock,oven,True,true_oven_35_n04111531_22120.png,False,0.46666085609636954,0.0089075844734907,1.0,-0.0008384523131090538,23.948119204491377,9,5.0356532356532355,6,25.095697227383123,6
subject-01,1,417,0.823237895965576,bear,bear,True,true_bear_35_n02134418_830.png,True,-0.3132743637647878,0.0304305627942085,1.0,-0.0033495432430656574,24.861159451305866,9,9.416666666666666,4,16.03446258575027,9
subject-01,1,418,1.12311697006226,truck,truck,False,false_truck_35_n03417042_2124.png,True,1.4021360546664552,0.0798488408327102,1.0,-0.009649429892746454,24.851954236626625,9,6.65952380952381,5,21.843396365646633,8
subject-01,1,419,1.36895990371704,bicycle,bicycle,False,false_bicycle_35_n02835271_14585.png,True,2.808441349423844,0.0299682915210723,1.0,-0.0032283266094475984,23.946517758071423,9,8.916666666666666,3,16.75082156471309,8
subject-01,1,420,1.10920596122742,oven,oven,True,true_oven_35_n04111531_2855.png,True,1.3225603471648377,0.0103611331433057,1.0,-0.000981216060201392,25.171204624697566,9,5.140079365079365,6,25.921756906373886,9
subject-01,1,421,0.788489103317261,cat,cat,False,false_cat_35_n02123394_4383.png,True,-0.5120492903460541,0.2441478073596954,1.0,-0.03637869095938877,26.191448837518692,9,3.8067210567210568,8,29.677553117554375,9
subject-01,1,422,0.738373994827271,cat,cat,True,true_cat_35_n02125311_17068.png,True,-0.7987247760680887,0.0562320724129676,1.0,-0.00651186363437147,24.055893993005157,9,3.974242424242424,8,27.99097473348295,8
subject-01,1,423,0.894430875778198,bird,bird,False,false_bird_35_n01560419_2291.png,True,0.09397372334369322,0.5852015018463135,1.0,-0.10506984618550622,26.25993573665619,9,4.055194805194805,7,31.9373484652672,9
subject-01,1,424,0.999904155731201,bird,bird,False,false_bird_35_n01829413_2459.png,True,0.6973168003573387,0.4455189108848572,1.0,-0.07362117573018656,25.79665046930313,9,4.33015873015873,7,31.587525355681393,9
subject-01,1,425,0.917938947677612,oven,oven,True,true_oven_35_n04111531_13822.png,True,0.22844789955941647,0.0071332026273012,1.0,-0.000649543908160395,21.163075688760728,8,5.557936507936508,6,20.91418655340604,5
subject-01,1,426,0.733664989471436,bear,bear,False,false_bear_35_n02133161_5067.png,True,-0.8256618902104493,0.0154800228774547,1.0,-0.0015485349399513018,23.54965491220355,9,7.75,4,16.253432910445568,9
subject-01,1,427,0.845655918121338,chair,chair,False,false_chair_35_n02791124_885.png,True,-0.18503564326567754,0.0301157664507627,1.0,-0.0032245593816682956,25.926334721967578,9,4.7178571428571425,7,26.490002177316985,9
subject-01,1,428,1.12523293495178,dog,dog,True,true_dog_35_n02107312_7182.png,True,1.414240094361292,0.5535204410552979,1.0,-0.09728692356392248,26.182080566883087,9,4.6,8,24.43630743210936,9
subject-01,1,429,0.977120161056519,truck,truck,True,true_truck_35_n04467665_13989.png,True,0.5669845924293179,0.0682459101080894,1.0,-0.008519358360486017,25.691332183778286,9,5.792857142857143,7,22.697441677275748,9
subject-01,1,430,0.970951080322266,dog,dog,True,true_dog_35_n02102480_10232.png,True,0.5316953499386291,0.6791524887084961,1.0,-0.12725483739689797,26.06080162525177,9,4.431349206349206,7,26.64810746878237,9
subject-01,1,431,0.708885908126831,oven,oven,False,false_oven_35_n04111531_643.png,True,-0.9674066732558514,0.018179602921009,1.0,-0.0021073954475652407,24.806642599403858,9,5.342099567099567,6,24.080302514974257,5
subject-01,1,432,0.650568962097168,boat,boat,True,true_boat_35_n02951358_31514.png,True,-1.3009994625884056,0.0622221082448959,1.0,-0.007348650668454492,23.85929235443473,9,6.244047619047619,5,19.989104409276937,9
subject-01,1,433,0.668210983276367,oven,oven,True,true_oven_35_n04111531_1898.png,True,-1.2000810939955195,0.00104663555976,1.0,-8.011185144669504e-05,22.836061085225083,8,5.436904761904762,6,21.939611743259654,5
subject-01,1,434,0.844157934188843,car,car,True,true_car_35_n03100240_5865.png,True,-0.1936046214519182,0.0558389872312545,1.0,-0.006501184750741863,24.29311452060938,9,5.304166666666666,6,29.097900209868072,8
subject-01,1,435,0.847980976104736,keyboard,keyboard,True,true_keyboard_35_n04505470_4369.png,True,-0.17173551987363403,0.0034149754792451,1.0,-0.00029830613130616654,23.30495021864772,9,5.13939393939394,6,23.623464021626326,6
subject-01,1,436,0.899740934371948,cat,cat,False,false_cat_35_n02123394_1942.png,True,0.12434906667712732,0.0733676627278328,1.0,-0.009044597369081989,25.826879926025867,9,3.177294927294927,8,31.887813232598436,9
subject-01,1,437,1.02755618095398,car,car,True,true_car_35_n04285008_2900.png,True,0.8554958006785988,0.0199452750384807,1.0,-0.002034646481518152,23.82209038361907,9,3.6636904761904763,8,31.345396085078168,8
subject-01,1,438,0.755254983901978,airplane,airplane,True,true_airplane_35_n02690373_10926.png,True,-0.70215977025898,0.0177881717681884,1.0,-0.0017811415657034008,23.505136348307133,8,7.687301587301587,3,19.89207181872699,8
subject-01,1,439,1.01712012290955,knife,knife,True,true_knife_35_n03041632_11613.png,True,0.7957979949857725,0.0296109281480312,1.0,-0.003812059569786331,26.800656136125326,10,6.4789682539682545,5,23.838354008392965,5
subject-01,1,440,1.00508809089661,knife,knife,True,true_knife_35_n03041632_24817.png,True,0.726970674733207,0.0075873900204896,1.0,-0.0006965439907171932,24.485862246714532,9,5.771464646464646,6,23.048027358942363,5
subject-01,1,441,0.832704067230225,bicycle,bicycle,True,true_bicycle_35_n02835271_3042.png,True,-0.25912464071743,0.0109092965722084,1.0,-0.0010401649982663588,22.1299151617568,8,9.583333333333332,2,13.550233357233475,8
subject-01,1,442,0.876867055892944,dog,dog,True,true_dog_35_n02102177_7737.png,True,-0.006497307218781525,0.3987834453582763,1.0,-0.06446661667930166,25.18522235751152,9,4.441666666666666,8,23.936016041317348,9
subject-01,1,443,0.752364158630371,oven,oven,True,true_oven_35_n04111531_21460.png,True,-0.7186962751942332,0.0001915278699016,1.0,-1.2934291563959277e-05,22.08296289154532,8,5.374603174603174,6,22.704403272960747,5
subject-01,1,444,0.892410039901733,keyboard,keyboard,False,false_keyboard_35_n04505470_7388.png,True,0.08241385399679058,0.1022342517971992,1.0,-0.012960554163772188,25.367994867265224,9,4.467507492507492,6,29.372207320328993,9
subject-01,1,445,0.948230981826782,bird,bird,True,true_bird_35_n01828970_25642.png,True,0.4017286499135001,0.627282977104187,1.0,-0.11306130124224502,25.607457518577576,9,4.955891330891331,6,27.246405474563733,9
subject-01,1,446,0.889729976654053,bicycle,bicycle,False,false_bicycle_35_n02835271_608.png,True,0.06708297960692672,0.0364349111914634,1.0,-0.004106717196992159,24.69720964320004,9,8.283333333333333,6,17.930863475769705,8
subject-01,1,447,0.745684862136841,boat,boat,True,true_boat_35_n04273569_26182.png,True,-0.756904125566275,0.0580900497734546,1.0,-0.006842665533165586,23.276646196842194,9,6.244047619047619,5,19.60903165224187,9
subject-01,1,448,0.877494096755981,cat,cat,False,false_cat_35_n02123045_9384.png,True,-0.002910419962723805,0.0444741994142532,1.0,-0.004999418105060258,24.920718170702457,9,4.324242424242424,7,28.135936320406554,9
subject-01,1,449,0.849236965179443,airplane,airplane,True,true_airplane_35_n02690373_9529.png,True,-0.1645508346778487,0.0173159316182136,1.0,-0.0017264478736519061,22.11206998024136,8,6.457575757575757,5,20.39883294230701,3
subject-01,1,450,0.772986173629761,cat,cat,True,true_cat_35_n02123597_5081.png,True,-0.6007313272045859,0.0678375884890556,1.0,-0.008081399135259888,26.042310170829296,9,3.222594072594072,8,32.452311986457666,9
subject-01,1,451,0.744852066040039,oven,oven,False,false_oven_35_n04111531_4998.png,True,-0.7616680028230874,0.0133957797661423,1.0,-0.0013005245949474613,24.607112494297326,9,5.088690476190476,6,26.40891946732697,6
subject-01,1,452,0.68667197227478,clock,clock,True,true_clock_35_n04548280_1245.png,True,-1.094477950602419,0.0750308334827423,1.0,-0.009043394446003078,24.99141203612089,9,4.860353535353535,6,29.450215493177996,6
subject-01,1,453,0.838966846466064,cat,dog,True,true_dog_35_n02104365_8609.png,False,-0.22329941089152605,0.9443342685699464,1.0,-0.2010103870394712,28.190710306167603,9,4.424603174603174,7,28.14841593691046,9
subject-01,1,454,0.592330932617188,clock,clock,False,false_clock_35_n02708093_6414.png,True,-1.6341408223841676,0.0391630344092845,1.0,-0.004497613613642168,24.49193312600255,9,5.038034188034188,6,27.467232736873562,6
subject-01,1,455,0.878229856491089,bird,bird,True,true_bird_35_n01798484_9155.png,True,0.001298376262448984,0.3371345400810241,1.0,-0.05211706862688445,25.725007869303226,9,4.317063492063491,7,30.222480503673662,9
subject-01,1,456,0.958017110824585,bicycle,oven,True,true_oven_35_n04111531_10724.png,False,0.45770864014626605,0.0244375877082347,1.0,-0.0026921476870492463,25.54353641346097,9,3.4978535353535354,9,29.32734005321937,9
subject-01,1,457,0.765697956085205,boat,boat,True,true_boat_35_n02951358_32687.png,True,-0.6424224133378379,0.037297673523426,1.0,-0.004072423776558445,22.739464917685837,9,5.309523809523809,7,20.884030821070635,7
subject-01,1,458,0.731549978256226,bicycle,bicycle,True,true_bicycle_35_n02835271_31.png,True,-0.8377604745634887,0.0239912252873182,1.0,-0.0025125092546268144,23.892067534849048,9,9.083333333333332,3,15.989185669002065,8
subject-01,1,459,0.71944785118103,bottle,bottle,True,true_bottle_35_n04557648_4420.png,True,-0.9069887624408773,0.2466590702533722,1.0,-0.0395141779551646,25.456705391407013,9,4.353113553113553,7,26.0773118134385,0
subject-01,1,460,0.893240928649902,bear,bear,True,true_bear_35_n02133161_713.png,True,0.08716682056993318,0.1001302227377891,1.0,-0.012589876277218944,24.318825900554657,9,9.25,4,15.681069908409983,9
subject-01,1,461,0.732858896255493,airplane,airplane,False,false_airplane_35_n02690373_5967.png,True,-0.8302730178959024,0.0152171356603503,1.0,-0.001494271824538518,23.995315057691187,9,6.026129426129426,5,24.231329416427663,3
subject-01,1,462,0.906970024108887,bird,bird,True,true_bird_35_n01795545_4502.png,True,0.16570192161665345,0.3335669636726379,1.0,-0.051825686738536055,25.7730327649042,9,3.552319902319902,8,31.48378067237522,9
