subject_id,Session,trial,rt,object_response,category,condition,item_id,response_correct,rt_zscore,output_entropy,output_rank_correct,output_logprob_correct,auc_entropy,layer_biggest_change_entropy,auc_rank_correct,layer_biggest_change_rank_correct,auc_logprob_correct,layer_biggest_change_logprob_correct
subject-02,1,1,1.00961899757385,clock,clock,0.0,0.00_clock_10_n03196217_6064.png,True,0.8291762028083088,0.1438217163085937,1.0,-0.0200757623476868,26.129013657569885,9,3.370833333333333,8,31.643894076325385,8
subject-02,1,2,0.709587097167969,keyboard,bear,0.35,0.35_bear_10_n02134418_2372.png,False,-0.6467415094603195,2.082671642303467,0.25,-3.222426103801759,30.52266788482666,10,7.976190476190476,3,25.381797230481432,4
subject-02,1,3,0.757214069366455,chair,knife,0.03,0.03_knife_10_n03041632_3504.png,False,-0.41245478276766295,2.2854158878326416,0.25,-2.153040198072985,30.718104124069214,10,5.033333333333333,5,26.34976261203534,5
subject-02,1,4,0.81725001335144,bottle,bottle,0.0,0.00_bottle_10_n04557648_9790.png,True,-0.11712580948069529,0.3377151489257812,1.0,-0.05322969635511711,26.114063501358032,9,4.298015873015872,7,26.612995634155396,8
subject-02,1,5,0.805033922195435,cat,truck,0.6,0.60_truck_10_n03417042_4876.png,False,-0.17721923717103452,2.573739767074585,0.0714285714285714,-3.6135459379282615,31.019192218780518,10,0.6578754578754573,0,37.11067729596036,0
subject-02,1,6,1.36264896392822,bear,elephant,0.1,0.10_elephant_10_n02504013_7774.png,False,2.565802140247457,0.1879263371229171,1.0,-0.033738503103377324,28.03256194293499,10,5.041666666666666,9,25.997024430099408,9
subject-02,1,7,0.75639796257019,airplane,airplane,0.03,0.03_airplane_10_n02690373_7686.png,True,-0.4164693774626965,0.0969450920820236,1.0,-0.012609795210781741,25.269380822777748,9,7.805555555555555,3,21.35325514751044,9
subject-02,1,8,0.880709886550903,truck,truck,0.1,0.10_truck_10_n03417042_9559.png,True,0.1950461653883235,0.871338427066803,1.0,-0.18379494795333814,28.254118859767914,9,3.7028138528138523,8,26.710157020735032,9
subject-02,1,9,0.936077117919922,bird,bird,0.1,0.10_bird_10_n02006656_5719.png,True,0.46740879531621954,0.9095808267593384,1.0,-0.1869170561135513,28.211639046669006,9,3.207814407814408,8,32.22536931048875,9
subject-02,1,10,0.815845012664795,cat,airplane,0.6,0.60_airplane_10_n02690373_3377.png,False,-0.12403729254754128,2.5617706775665283,0.0714285714285714,-3.579814695798452,30.95004940032959,10,1.6578754578754575,3,34.980771129733625,3
subject-02,1,11,1.20981311798096,boat,boat,0.1,0.10_boat_10_n04612504_19388.png,True,1.8139716455635024,0.4010646939277649,1.0,-0.06821890248513886,27.07766306400299,9,4.3273809523809526,9,24.889560944639697,9
subject-02,1,12,0.755635976791382,bottle,bottle,0.0,0.00_bottle_10_n04557648_5627.png,True,-0.42021773990655065,0.4398830235004425,1.0,-0.08009042233000511,27.57742765545845,9,4.237734487734487,7,27.956705006591623,9
subject-02,1,13,1.02727603912354,keyboard,keyboard,0.1,0.10_keyboard_10_n03085013_9146.png,True,0.916034767961535,0.4992593824863434,1.0,-0.1061471029194132,27.153711408376694,9,4.487240537240537,7,29.01893404576687,9
subject-02,1,14,0.749420881271362,bird,bird,0.35,0.35_bird_10_n02027492_6813.png,True,-0.45079105410757314,2.137601852416992,0.5,-1.9869720102559865,30.613770723342896,10,1.5523199023199021,8,37.78418269277264,6
subject-02,1,15,1.48101496696472,knife,bird,0.03,0.03_bird_10_n01843065_4999.png,False,3.148068493177534,1.1470489501953125,1.0,-0.2603269682444947,27.45832532644272,9,3.2394993894993895,8,32.89497961166798,9
subject-02,1,16,1.50001907348633,airplane,airplane,0.03,0.03_airplane_10_n02690373_10817.png,True,3.24155354387761,0.064891442656517,1.0,-0.00808043772315702,24.386723019182682,9,7.7444444444444445,3,20.330297840722316,8
subject-02,1,17,1.01250600814819,oven,clock,0.6,0.60_clock_10_n03196217_3697.png,False,0.8433779928060088,2.5137200355529785,1.0,-1.5919057045429363,31.014090538024902,10,4.447557997557997,6,34.514821876487495,6
subject-02,1,18,0.846814155578613,airplane,oven,0.35,0.35_oven_10_n04111531_2677.png,False,0.028306196589610453,2.4353809356689453,0.0666666666666666,-4.055097250276722,30.940192937850952,10,0.2734487734487732,7,43.82576967896529,6
subject-02,1,19,0.706240177154541,chair,chair,0.0,0.00_chair_10_n03376595_11352.png,True,-0.6632056871783627,0.2876952290534973,1.0,-0.052053335318671234,25.72185130417347,9,4.927020202020202,7,24.84380136591556,6
subject-02,1,20,0.882130861282349,bicycle,truck,0.0,0.00_truck_10_n03417042_5105.png,False,0.20203622801829768,0.3134980797767639,1.0,-0.0562510048462471,26.119337618350983,9,3.8690476190476186,8,25.91130929849542,9
subject-02,1,21,1.03816390037537,oven,oven,0.6,0.60_oven_10_n04111531_9915.png,True,0.969594363619731,2.5650181770324707,0.1,-3.0937304324226034,31.039682388305664,10,0.42706043956043926,9,42.50250368812373,6
subject-02,1,22,1.08187413215637,chair,bottle,0.35,0.35_bottle_10_n03983396_10174.png,False,1.1846138505665282,2.5211567878723145,0.5,-1.838100525158829,31.03193211555481,10,1.0948162948162945,9,38.823605732519354,0
subject-02,1,23,0.725475072860718,clock,boat,0.03,0.03_boat_10_n03344393_8545.png,False,-0.568585337715583,0.5908646583557129,1.0,-0.127544403889044,28.65598702430725,10,3.727380952380952,9,27.046611306356485,9
subject-02,1,24,0.801249027252197,cat,cat,0.05,0.05_cat_10_n02123394_7223.png,True,-0.19583790231378742,0.3264488577842712,1.0,-0.055600251688727495,26.17213088274002,9,5.501262626262626,5,24.774322644435838,9
subject-02,1,25,0.631569862365723,oven,clock,0.35,0.35_clock_10_n03196217_6672.png,False,-1.0305240957489281,1.8883600234985352,1.0,-0.7939974267956795,30.204984426498413,10,3.280891330891331,9,33.680462889080204,9
subject-02,1,26,0.762871026992798,clock,airplane,0.9,0.90_airplane_10_n02690373_427.png,False,-0.3846270619587157,2.610239744186402,0.0625,-4.011793277684305,30.545440912246704,3,1.5166416916416912,3,37.74488085600568,3
subject-02,1,27,0.776888132095337,cat,oven,0.9,0.90_oven_10_n04111531_5246.png,False,-0.3156740817336741,2.5540084838867188,0.1666666666666666,-2.731265411443965,30.39095163345337,3,0.8695568320568319,7,42.4936858179933,6
subject-02,1,28,0.994895935058594,bear,bear,0.9,0.90_bear_10_n02134084_12801.png,True,0.7567504750250013,2.577826738357544,1.0,-1.7176545454308123,30.470330953598022,3,5.5095238095238095,9,25.79980104142592,8
subject-02,1,29,0.802371978759766,bird,bird,0.1,0.10_bird_10_n01843383_386.png,True,-0.19031387630922716,0.3674443960189819,1.0,-0.05832281959418652,26.609290421009064,9,3.0887778887778885,8,32.80680908246712,9
subject-02,1,30,0.920193910598755,cat,bottle,0.6,0.60_bottle_10_n04579145_2485.png,False,0.38927608015748966,2.3791465759277344,0.5,-2.0333676308359325,30.750545740127563,10,0.8114219114219111,10,39.602116010405254,0
subject-02,1,31,0.820220947265625,oven,oven,0.9,0.90_oven_10_n04111531_2054.png,True,-0.10251118356927244,2.5781736373901367,0.1666666666666666,-2.7311732225431236,30.41085648536682,3,0.8619810744810742,7,42.1860660641223,6
subject-02,1,32,0.865884065628052,car,car,0.03,0.03_car_10_n03100240_15979.png,True,0.12211494817656297,0.1945432722568512,1.0,-0.029508475134065525,25.907212033867836,9,4.142832167832168,7,32.73443536465089,9
subject-02,1,33,1.069904088974,bird,car,0.9,0.90_car_10_n03100240_18270.png,False,1.12573078271414,2.5983707904815674,0.125,-3.1476524392518668,30.521631002426147,3,0.6878968253968252,6,42.255874822205485,1
subject-02,1,34,0.923481941223145,car,truck,0.6,0.60_truck_10_n03796401_6184.png,False,0.4054505690383518,2.5010335445404053,0.0714285714285714,-3.684364388342966,30.886295557022095,10,0.5809523809523804,0,37.83942565015261,0
subject-02,1,35,1.32122492790222,truck,car,0.35,0.35_car_10_n02814533_4519.png,False,2.362028913461507,1.8460280895233152,0.125,-3.8402737420401314,30.314085483551025,10,0.1775183150183147,10,45.484760776455104,1
subject-02,1,36,1.27302503585815,keyboard,cat,0.6,0.60_cat_10_n02125311_22037.png,False,2.124923877960142,2.463400363922119,0.5,-2.23504050033423,30.595041036605835,3,1.4707070707070706,9,34.33371620976253,9
subject-02,1,37,0.902964115142822,elephant,elephant,0.0,0.00_elephant_10_n02504458_291.png,True,0.30451922511049045,0.2622787952423095,1.0,-0.0434082262283083,25.848469622433186,9,7.699999999999999,5,21.671856213095463,0
subject-02,1,38,0.664669036865234,chair,chair,0.05,0.05_chair_10_n04099969_2694.png,True,-0.8677025496426232,0.4997739195823669,1.0,-0.10198282841532055,26.85612678527832,9,4.2288461538461535,8,26.946712004427194,9
subject-02,1,39,1.03636908531189,airplane,bear,0.05,0.05_bear_10_n02133161_545.png,False,0.9607653046468252,2.2031445503234863,1.0,-1.2185616007352635,30.757391691207886,10,7.592857142857143,10,24.204579699385576,10
subject-02,1,40,1.1602201461792,oven,knife,0.35,0.35_knife_10_n03041632_40508.png,False,1.5700137684603077,2.0512590408325195,0.1666666666666666,-3.0389883593507725,30.46199631690979,10,1.576623376623376,5,32.44705492840756,5
subject-02,1,41,0.868018865585327,truck,car,0.2,0.20_car_10_n02814533_5430.png,False,0.13261646173172228,0.1810290813446045,1.0,-0.028952377763234713,26.73857671022415,9,3.2135281385281385,8,34.85406792934243,9
subject-02,1,42,0.819952964782715,bird,bird,0.2,0.20_bird_10_n01860187_7297.png,True,-0.10382944370284358,1.4377901554107666,1.0,-0.38907354732002836,29.71002173423767,10,2.3978687978687976,9,34.729927787694166,9
subject-02,1,43,0.795691967010498,bear,bear,0.0,0.00_bear_10_n02134418_3284.png,True,-0.2231742076458939,0.1995715200901031,1.0,-0.03129140837993831,25.34994214773178,9,10.75,2,16.85649634002481,9
subject-02,1,44,1.36361312866211,bicycle,dog,0.35,0.35_dog_10_n02107142_55162.png,False,2.570545061938011,1.9195090532302856,0.1428571428571428,-3.3944330411782606,30.252840638160706,10,0.726190476190476,9,36.571981641116324,0
subject-02,1,45,0.791545152664185,car,car,0.2,0.20_car_10_n02814533_7028.png,True,-0.24357322766654332,0.5238657593727112,1.0,-0.15033222548489647,27.141559422016144,9,3.133333333333333,8,35.329628188915095,9
subject-02,1,46,0.69566798210144,bottle,bottle,0.0,0.00_bottle_10_n04591713_2808.png,True,-0.7152124568429284,0.239600121974945,1.0,-0.038294499803417606,25.90897873044014,9,3.637240537240537,8,28.20125792169042,8
subject-02,1,47,0.68346095085144,cat,cat,0.0,0.00_cat_10_n02123394_7105.png,True,-0.7752613170198595,0.5909948348999023,1.0,-0.12038231234029279,27.54682683944702,9,4.096933621933622,7,30.014012100013403,9
subject-02,1,48,0.822940826416016,bird,knife,0.35,0.35_knife_10_n03041632_36390.png,False,-0.08913154691109836,1.8776531219482424,0.25,-3.1065083960968907,30.14740300178528,10,1.481385281385281,10,33.53921493561884,5
subject-02,1,49,0.630611896514893,chair,chair,0.2,0.20_chair_10_n04099969_8604.png,True,-1.0352365238776562,0.0802406370639801,1.0,-0.009740008777040612,26.107279986143112,9,3.9781135531135527,8,28.15772508233891,9
subject-02,1,50,1.31641387939453,car,car,0.9,0.90_car_10_n02814533_93476.png,True,2.338362391010136,2.601632833480835,0.0909090909090909,-3.142634204502266,30.46883988380432,3,0.6851911976911975,6,42.02987439679207,1
subject-02,1,51,0.666200160980225,oven,oven,0.0,0.00_oven_10_n04111531_10358.png,True,-0.8601706398758957,0.0790327787399292,1.0,-0.010950219269784867,26.913018107414246,9,3.3879329004329004,8,33.338505737878855,9
subject-02,1,52,0.928065061569214,car,car,0.2,0.20_car_10_n02814533_211.png,True,0.4279958666786069,0.0533443316817283,1.0,-0.007015700570851848,25.722729675471783,9,3.408333333333333,8,34.13972193393553,8
subject-02,1,53,0.967763900756836,car,car,0.03,0.03_car_10_n02814533_88986.png,True,0.6232825006473688,0.2588534951210022,1.0,-0.04421000284623796,26.534588992595673,9,4.851190476190476,6,31.898338340811666,5
subject-02,1,54,1.23214387893677,car,chair,0.9,0.90_chair_10_n02791124_8788.png,False,1.9238211834910728,2.5735113620758057,0.0666666666666666,-4.061439362518698,30.47428250312805,3,1.2337051837051836,0,39.056828504535794,0
subject-02,1,55,1.36956715583801,car,elephant,0.35,0.35_elephant_10_n02504458_1041.png,False,2.5998341280551527,1.67594313621521,0.0625,-5.145293046077683,30.09036636352539,10,2.547023809523809,1,36.73660606320973,0
subject-02,1,56,1.33341598510742,cat,cat,0.2,0.20_cat_10_n02123394_5895.png,True,2.4219991940753154,2.158756971359253,0.5,-1.9354013965968164,30.57700777053833,10,2.186544011544011,4,31.8085205211172,4
subject-02,1,57,1.15098404884338,airplane,airplane,0.1,0.10_airplane_10_n02690373_2496.png,True,1.5245795341947743,0.0516903027892112,1.0,-0.006031066942126892,26.868448697030544,9,6.202020202020202,5,24.058749922081656,9
subject-02,1,58,0.73088812828064,bird,bird,0.03,0.03_bird_10_n02025239_19864.png,True,-0.5419574212808745,0.9924904108047484,1.0,-0.22710928698284746,27.1919287443161,9,4.135714285714286,7,31.450337326073623,9
subject-02,1,59,0.769000053405762,airplane,airplane,0.1,0.10_airplane_10_n02690373_3753.png,True,-0.3544771391351137,0.0259562134742736,1.0,-0.0027303982268945363,25.693150959908962,9,6.044444444444444,5,24.04370274863408,9
subject-02,1,60,0.788478136062622,chair,chair,0.03,0.03_chair_10_n02791124_5795.png,True,-0.258660503786,1.6780297756195068,1.0,-0.5749132645775273,29.7167489528656,10,4.077020202020202,8,27.965961319935918,9
subject-02,1,61,1.28827500343323,bicycle,bicycle,0.0,0.00_bicycle_10_n02835271_8617.png,True,2.199941558497226,0.04923040792346,1.0,-0.005704729554759239,25.053835272789,9,7.033333333333333,5,19.43797433891367,8
subject-02,1,62,0.840273857116699,bird,bicycle,0.35,0.35_bicycle_10_n03792782_44296.png,False,-0.003866856777060335,2.235039710998535,0.0833333333333333,-3.9993982116787317,30.69558572769165,10,2.2809523809523813,4,31.8855231686382,3
subject-02,1,63,0.963942050933838,cat,boat,0.6,0.60_boat_10_n03662601_5995.png,False,0.604482046963068,2.4890785217285156,0.0714285714285714,-3.709348391211026,30.613629579544067,3,1.6349206349206347,2,33.04375913189208,0
subject-02,1,64,0.915909051895142,car,chair,0.9,0.90_chair_10_n02791124_3186.png,False,0.36819799197194825,2.6171343326568604,0.0666666666666666,-3.7629070113727905,30.53609299659729,3,1.2460428460428459,0,38.55785509340598,0
subject-02,1,65,1.16972017288208,bird,keyboard,0.6,0.60_keyboard_10_n03085013_22942.png,False,1.6167463247612797,2.5583319664001465,0.5,-1.9995439497502991,31.037673711776733,10,2.962276612276612,7,32.70189973015227,5
subject-02,1,66,1.08137488365173,car,elephant,0.6,0.60_elephant_10_n02504458_4776.png,False,1.1821579460116292,2.5690770149230957,0.0714285714285714,-3.6118758230547123,31.042701482772827,10,2.403373015873016,1,36.21624829783,0
subject-02,1,67,0.897241830825806,bicycle,bicycle,0.0,0.00_bicycle_10_n02835271_5056.png,True,0.27637014907325647,0.1301065683364868,1.0,-0.018198454026649154,24.704771868884563,9,6.2595238095238095,6,19.65860736962139,8
subject-02,1,68,1.1214120388031,bear,elephant,0.9,0.90_elephant_10_n02504013_1255.png,False,1.3791088247575736,2.608751058578491,0.0714285714285714,-3.8119910992993047,30.45862865447998,3,1.7645604395604395,1,39.25063252445857,0
subject-02,1,69,0.758821964263916,bicycle,bicycle,0.1,0.10_bicycle_10_n03792782_37212.png,True,-0.40454522196623227,0.1374835819005966,1.0,-0.018311968136483826,26.192312106490135,9,3.5869047619047616,9,25.856850880507782,9
subject-02,1,70,0.990792989730835,car,car,0.0,0.00_car_10_n03100240_4348.png,True,0.7365672555956094,0.1921939253807068,1.0,-0.028367768787322032,26.641426384449005,9,4.566666666666666,6,31.67797760285275,9
subject-02,1,71,0.996485948562622,elephant,bear,0.6,0.60_bear_10_n02134418_3570.png,False,0.7645720736289049,2.4601125717163086,0.1428571428571428,-2.9198993637767643,30.92172360420227,10,4.786446886446885,4,27.36261120317472,4
subject-02,1,72,1.0881769657135,truck,keyboard,0.35,0.35_keyboard_10_n04505470_2141.png,False,1.2156187659500757,0.9895201921463012,1.0,-0.26870686921885784,28.62649667263031,10,4.383644133644133,7,29.094699784574505,9
subject-02,1,73,0.994067907333374,car,clock,0.35,0.35_clock_10_n04548280_4113.png,False,0.7526772388649516,1.4411089420318604,1.0,-0.39363764596723333,29.47849416732788,10,5.088034188034188,6,31.048650613589622,9
subject-02,1,74,1.17793297767639,truck,keyboard,0.0,0.00_keyboard_10_n04505470_1052.png,False,1.657146775669763,0.3816137313842773,1.0,-0.0784307433039338,27.17024052143097,9,4.90510878010878,6,29.63317073557864,9
subject-02,1,75,1.0336549282074,bear,bear,0.2,0.20_bear_10_n02134418_271.png,True,0.9474138158918706,0.1011307016015052,1.0,-0.012996844513504944,26.627261199057102,9,10.25,2,17.29739490116059,9
subject-02,1,76,0.857501029968262,car,oven,0.6,0.60_oven_10_n04111531_326.png,False,0.08087709714763633,2.530909538269043,0.0833333333333333,-3.480355625423164,30.953144073486328,10,0.5072802197802196,7,42.37459084792771,6
subject-02,1,77,0.919281959533691,bear,bear,0.03,0.03_bear_10_n02134418_1081.png,True,0.3847900080837221,0.2617455422878265,1.0,-0.046082715351340654,26.090375661849976,9,9.083333333333332,2,18.35570618678426,9
subject-02,1,78,1.2913019657135,bird,bear,0.0,0.00_bear_10_n02132136_25897.png,False,2.2148317992942084,0.4016849398612976,1.0,-0.07491313314228204,27.811817228794098,10,9.75,2,19.930174524365906,9
subject-02,1,79,1.14891409873962,bear,knife,0.6,0.60_knife_10_n03041632_37618.png,False,1.5143970302093022,2.4787614345550537,0.1428571428571428,-2.830918934427872,30.645790576934814,3,3.7678571428571432,5,29.27210441088884,5
subject-02,1,80,0.606637001037598,chair,chair,0.0,0.00_chair_10_n04099969_6395.png,True,-1.1531738926603097,0.2097291648387909,1.0,-0.03389060503428316,25.988663997501135,9,4.908333333333333,7,25.4586813227395,9
subject-02,1,81,0.749835014343262,bear,bear,0.1,0.10_bear_10_n02133161_2476.png,True,-0.44875384961289544,0.0546608194708824,1.0,-0.006374366728135185,25.605202607810497,9,10.25,3,16.07860989984946,9
subject-02,1,82,1.15774989128113,car,clock,0.9,0.90_clock_10_n04548280_5189.png,False,1.557862084079587,2.6029906272888184,0.1666666666666666,-2.7351407911606285,30.533580541610718,3,1.2630341880341875,6,37.45675590668285,6
subject-02,1,83,0.931580781936646,bear,bear,0.9,0.90_bear_10_n02134418_4893.png,True,0.4452904075412848,2.4949498176574707,1.0,-1.50089732790371,30.26471447944641,3,6.092857142857143,8,24.664132524198127,8
subject-02,1,84,0.57542896270752,chair,chair,0.2,0.20_chair_10_n03376595_9900.png,True,-1.3066925567563945,0.1932989358901977,1.0,-0.0289849580991519,26.72428011894226,9,3.4781135531135527,9,27.934275355563596,9
subject-02,1,85,0.981142044067383,bear,cat,0.6,0.60_cat_10_n02123159_7949.png,False,0.6890922983475247,2.571786403656006,0.1666666666666666,-2.7821537797155185,30.99659299850464,10,1.102020202020202,9,35.005141152469164,9
subject-02,1,86,0.627068042755127,cat,cat,0.35,0.35_cat_10_n02123045_8491.png,True,-1.0526694585977738,2.387502431869507,0.2,-2.5526495908286733,30.9414119720459,10,1.5234848484848482,9,33.41505268336368,4
subject-02,1,87,0.748815774917603,boat,boat,0.1,0.10_boat_10_n03344393_5207.png,True,-0.45376769487180857,2.1932175159454346,0.25,-2.1122896615314777,30.481213331222534,10,2.727380952380952,9,29.50379460318876,9
subject-02,1,88,0.942456007003784,car,car,0.35,0.35_car_10_n03100240_11664.png,True,0.49878784324656533,2.2807400226593018,0.0666666666666666,-4.146411538638731,30.725733280181885,10,0.08420329670329628,5,46.44706745644914,1
subject-02,1,89,0.690415859222412,clock,clock,0.0,0.00_clock_10_n02708093_3702.png,True,-0.7410487134999114,0.2368397563695907,1.0,-0.04023347004300559,26.082903489470482,9,5.050534188034188,6,29.403851003384446,9
subject-02,1,90,1.3061408996582,boat,boat,0.35,0.35_boat_10_n03344393_10519.png,True,2.2878275221174786,1.6612372398376465,0.1,-4.315594386003281,29.969465970993042,10,1.5380952380952377,5,34.22027157039622,0
subject-02,1,91,0.518043994903564,cat,cat,0.05,0.05_cat_10_n02123394_8172.png,True,-1.5889808410529913,0.1627297401428222,1.0,-0.02202642731977138,25.50763263180852,9,4.8679292929292926,7,25.62820837446986,9
subject-02,1,92,0.729773044586182,car,truck,0.35,0.35_truck_10_n04467665_47602.png,False,-0.5474427439185212,1.9660468101501465,0.2,-3.4066860829553276,30.335177183151245,10,0.8273199023199018,10,35.46677894321005,0
subject-02,1,93,0.681793928146362,boat,boat,0.6,0.60_boat_10_n03662601_8191.png,True,-0.7834617394877711,2.603940963745117,0.0714285714285714,-3.6603237993074975,30.779853343963623,3,1.8599206349206348,2,32.874656654258864,0
subject-02,1,94,0.663906097412109,bicycle,bicycle,0.1,0.10_bicycle_10_n03792782_9004.png,True,-0.8714556034036813,0.0540459528565406,1.0,-0.006222854075549407,25.526779605075717,9,4.041666666666666,8,24.53904380566269,8
subject-02,1,95,0.701441049575806,car,chair,0.6,0.60_chair_10_n03376595_8995.png,False,-0.6868135681647174,2.554044723510742,0.2,-2.790930558261869,31.062578439712524,10,1.5736985236985237,0,34.97950105908797,6
subject-02,1,96,1.50000905990601,cat,chair,0.9,0.90_chair_10_n02791124_5411.png,False,3.241504285047008,2.61383318901062,0.0714285714285714,-3.6741958374250148,30.527120113372803,3,1.2423132423132421,0,38.14062168955268,0
subject-02,1,97,0.827334880828857,cat,boat,0.9,0.90_boat_10_n04273569_18898.png,False,-0.06751630290600767,2.676764488220215,0.1,-2.935180694638063,30.846195936203003,3,3.113492063492063,2,30.696286194090003,0
subject-02,1,98,0.7150559425354,boat,airplane,0.9,0.90_airplane_10_n02690373_17011.png,False,-0.6198391509693375,2.5803122520446777,0.0666666666666666,-4.0611200727945125,30.451576948165894,3,1.0029512154512152,3,38.17735300132904,3
subject-02,1,99,1.13458108901978,car,knife,0.2,0.20_knife_10_n03041632_29355.png,False,1.443890051161365,0.7807869911193848,1.0,-0.1852820389785986,28.94776701927185,10,3.7175324675324672,9,28.623973565964125,10
subject-02,1,100,0.956195116043091,airplane,knife,0.6,0.60_knife_10_n03041632_48816.png,False,0.5663733045074235,2.561121940612793,0.1666666666666666,-2.8184008399005847,30.95946741104126,10,3.0352564102564106,5,30.42122048161808,5
subject-02,1,101,0.750200033187866,truck,truck,0.2,0.20_truck_10_n04467665_72022.png,True,-0.4469582479540919,0.2412068545818328,1.0,-0.04079829947116005,27.84958192706108,10,2.6619047619047613,10,28.455944408956984,10
subject-02,1,102,1.0598669052124,truck,airplane,0.6,0.60_airplane_10_n02690373_9605.png,False,1.0763558419995023,2.648132085800171,0.0625,-3.6770579412771016,31.09010624885559,3,0.8730921855921853,3,35.72499957499641,3
subject-02,1,103,0.643619060516357,chair,chair,0.05,0.05_chair_10_n02791124_7142.png,True,-0.9712516485688198,0.0620213747024536,1.0,-0.007294852448033922,25.815018892288208,9,4.641666666666667,8,25.18331109759284,9
subject-02,1,104,0.983541965484619,bicycle,boat,0.2,0.20_boat_10_n03662601_35225.png,False,0.7008979980846517,2.1623196601867676,1.0,-1.3184582023735998,30.20445442199707,9,2.727380952380952,10,29.68951492068068,10
subject-02,1,105,0.69347882270813,boat,boat,0.9,0.90_boat_10_n04273569_16078.png,True,-0.725981375478562,2.598641157150269,0.1,-3.1161145354719757,30.5059175491333,3,2.850793650793651,2,31.801774019660282,0
subject-02,1,106,0.743355989456177,truck,truck,0.03,0.03_truck_10_n03417042_12874.png,True,-0.4806254858493823,0.5401066541671753,1.0,-0.120122503120807,27.697977423667908,9,4.352380952380952,8,25.6765381828003,9
subject-02,1,107,0.717148065567017,chair,oven,0.2,0.20_oven_10_n04111531_3121.png,False,-0.6095475738589314,2.1850385665893555,0.1428571428571428,-3.4568833813410293,30.53298783302307,10,0.6675324675324674,8,40.19708300798038,6
subject-02,1,108,0.862873077392578,airplane,airplane,0.0,0.00_airplane_10_n02690373_12505.png,True,0.10730328694268512,0.0705157145857811,1.0,-0.008759304542989135,24.434340722858906,9,8.538034188034189,2,19.59197219685611,3
subject-02,1,109,0.642643928527832,cat,cat,0.0,0.00_cat_10_n02124075_9591.png,True,-0.9760485204071702,0.5126550197601318,1.0,-0.11162969948474946,26.04955357313156,9,5.193362193362193,6,25.56537366734339,9
subject-02,1,110,0.882511138916016,chair,oven,0.03,0.03_oven_10_n04111531_7449.png,False,0.20390689075232513,0.0264794863760471,1.0,-0.002775942184023303,25.058878923766315,9,3.538665501165501,8,32.236024172959404,8
subject-02,1,111,0.980236053466797,truck,chair,0.35,0.35_chair_10_n04429376_4341.png,False,0.6846355470062676,1.5292752981185913,0.1666666666666666,-3.82561403313731,29.741408467292786,10,1.2836080586080583,0,36.819180543376625,7
subject-02,1,112,0.804000854492188,bear,bear,0.2,0.20_bear_10_n02133161_7184.png,True,-0.18230110652936682,1.6345672607421875,1.0,-0.5332608264472529,29.386539697647095,10,10.25,3,18.069056441535622,9
subject-02,1,113,1.08997583389282,chair,boat,0.03,0.03_boat_10_n02951358_512.png,False,1.224467763021064,0.238748013973236,1.0,-0.035952828909079936,27.838943779468536,10,4.851190476190476,8,24.95970865375223,9
subject-02,1,114,1.16180491447449,dog,oven,0.05,0.05_oven_10_n04111531_7741.png,False,1.5778095648196144,0.0294539164751768,1.0,-0.0033511579693213766,26.180163426324725,9,2.9928321678321677,8,38.11125725947839,9
subject-02,1,115,1.21962404251099,cat,bicycle,0.9,0.90_bicycle_10_n02835271_9116.png,False,1.8622335712721145,2.606499433517456,0.5,-2.090451903151597,30.50082802772522,3,3.9416666666666664,4,27.54582278729201,10
subject-02,1,116,0.905317068099976,car,car,0.9,0.90_car_10_n04285008_550.png,True,0.31609387747545725,2.5906972885131836,0.1111111111111111,-3.0234837239724746,30.415265560150146,3,0.8220598845598845,8,41.539362920418526,1
subject-02,1,117,0.769134044647217,chair,keyboard,0.35,0.35_keyboard_10_n03085013_19607.png,False,-0.3538180090683284,2.195798873901367,1.0,-1.199283354977845,30.662636518478394,10,3.1225330225330223,7,32.869091782549496,10
subject-02,1,118,0.770947933197021,keyboard,keyboard,0.0,0.00_keyboard_10_n04505470_3864.png,True,-0.34489512375141584,0.1747653931379318,1.0,-0.028779001966098446,25.8286040276289,9,5.217074592074592,6,25.556923162804054,9
subject-02,1,119,1.06675791740417,bicycle,bicycle,0.03,0.03_bicycle_10_n03792782_2649.png,True,1.110254127266948,0.1425810754299163,1.0,-0.021426304499530282,26.123127728700638,9,5.319047619047619,6,22.828372529982396,8
subject-02,1,120,1.02862811088562,bear,truck,0.9,0.90_truck_10_n04467665_37009.png,False,0.9226858829236853,2.613776445388794,0.1111111111111111,-3.0909086796812164,30.47994303703308,3,0.7683372183372181,0,36.443187704208206,0
subject-02,1,121,1.23061990737915,knife,knife,0.03,0.03_knife_10_n03041632_94202.png,True,1.916324458603345,0.0256439000368118,1.0,-0.0028524511378794693,25.893866822123528,9,7.0,5,21.58092215598857,9
subject-02,1,122,0.750292062759399,chair,chair,0.1,0.10_chair_10_n04099969_8647.png,True,-0.44650553584416536,0.0916536375880241,1.0,-0.011810271226141634,25.694998174905777,9,4.286879786879787,8,26.707615088720598,9
subject-02,1,123,0.458003997802734,cat,cat,0.1,0.10_cat_10_n02124075_12815.png,True,-1.884329752438066,0.3690509796142578,1.0,-0.06347821615006086,25.896415904164314,9,6.361544011544011,5,24.060167177206154,9
subject-02,1,124,0.963735103607178,dog,bird,0.6,0.60_bird_10_n02018207_43958.png,False,0.6034640311303815,2.542701482772827,0.0833333333333333,-3.4642232087305174,30.927634477615356,10,0.12557026307026267,10,44.073577015650365,6
subject-02,1,125,0.969990968704224,bicycle,bicycle,0.2,0.20_bicycle_10_n03792782_29108.png,True,0.6342378991417589,0.1165434122085571,1.0,-0.015028425557508805,26.0349188297987,9,4.077380952380952,8,24.988201308672,9
subject-02,1,126,0.771397113800049,bear,bear,0.05,0.05_bear_10_n02132136_24663.png,True,-0.3426855133495896,0.1035284399986267,1.0,-0.01300197719839087,25.13287714868784,9,9.75,3,15.953657676454068,9
subject-02,1,127,0.831336975097656,cat,bird,0.9,0.90_bird_10_n02037110_8826.png,False,-0.04782919027065571,2.6264145374298096,0.0769230769230769,-3.3414290209824102,30.59131622314453,3,0.129899267399267,8,45.37181246802914,8
subject-02,1,128,0.953044891357422,bird,bird,0.03,0.03_bird_10_n01843383_8624.png,True,0.5508767109621536,2.334853410720825,0.3333333333333333,-2.036075255488497,30.4695086479187,9,0.574217449217449,10,39.704381108963794,10
subject-02,1,129,0.700961112976074,bear,cat,0.03,0.03_cat_10_n02125311_1736.png,False,-0.6891744735462858,0.4166195690631866,1.0,-0.07292882577162245,28.4002745449543,10,3.808008658008658,8,29.16713511364428,9
subject-02,1,130,1.11074090003967,bicycle,chair,0.35,0.35_chair_10_n02791124_13469.png,False,1.326615330933362,2.0918209552764893,0.0625,-4.508007972424217,30.55726671218872,10,0.9697802197802196,0,38.78601120701703,6
subject-02,1,131,1.03845500946045,dog,keyboard,0.9,0.90_keyboard_10_n04505470_1479.png,False,0.9710263881954205,2.58758544921875,0.2,-2.379040805501803,30.508888244628906,3,1.615151515151515,5,33.180793910334366,5
subject-02,1,132,1.35251092910767,car,bear,0.2,0.20_bear_10_n02134084_22150.png,False,2.5159310927388283,2.531538963317871,1.0,-1.5875033519064397,30.927228689193726,4,8.166666666666666,10,22.30958644508703,10
subject-02,1,133,1.14816403388977,dog,clock,0.9,0.90_clock_10_n04548280_3053.png,False,1.5107073092304795,2.585634708404541,0.1666666666666666,-2.6419033101404086,30.48516058921814,3,1.2630341880341875,6,37.258515905187174,6
subject-02,1,134,0.674240112304688,clock,clock,0.1,0.10_clock_10_n03196217_5441.png,True,-0.8206204902101438,0.0566208660602569,1.0,-0.006623038786137616,25.969651967287064,9,4.898214285714285,6,30.42468361493847,9
subject-02,1,135,0.761899948120117,dog,dog,0.2,0.20_dog_10_n02100236_4048.png,True,-0.3894039956989642,1.3702430725097656,1.0,-0.34806292111795845,29.766525506973267,10,2.830988455988456,9,31.72979723722205,10
subject-02,1,136,0.849447965621948,bird,truck,0.9,0.90_truck_10_n04467665_48953.png,False,0.04126244187036407,2.5772809982299805,0.1111111111111111,-2.985283654597786,30.352842330932617,3,0.9214646464646463,0,35.49945181860512,0
subject-02,1,137,0.939383029937744,bird,knife,0.35,0.35_knife_10_n03041632_2153.png,False,0.48367124639460374,0.9642804861068726,1.0,-0.31333479846584994,29.10483157634735,10,3.5841991341991335,9,27.245452086491287,9
subject-02,1,138,0.883177995681763,car,oven,0.1,0.10_oven_10_n04111531_7965.png,False,0.20718729430535004,0.4256837964057922,1.0,-0.07930014565429205,28.402603209018707,10,2.317832167832168,9,37.997017454578184,6
subject-02,1,139,0.6510009765625,oven,oven,0.0,0.00_oven_10_n04111531_11935.png,True,-0.934938507771979,0.1324524581432342,1.0,-0.018627993723646624,27.141434758901596,9,2.415909090909091,9,36.05042893710881,9
subject-02,1,140,0.998775005340576,elephant,elephant,0.05,0.05_elephant_10_n02504013_9144.png,True,0.7758324077413793,0.0735967084765434,1.0,-0.009203335763098971,25.526619277894497,9,7.076923076923077,1,21.690541667980312,9
subject-02,1,141,0.926609039306641,cat,oven,0.05,0.05_oven_10_n04111531_274.png,False,0.4208333981414885,0.0727506279945373,1.0,-0.008759424801063074,27.831758320331573,10,3.499242424242424,8,35.3815431733865,6
subject-02,1,142,0.666485071182251,bicycle,bicycle,0.2,0.20_bicycle_10_n03792782_15114.png,True,-0.8587691088620026,0.1989790797233581,1.0,-0.028348207992170794,26.883265793323517,9,3.8254329004329,8,26.375654445689857,9
subject-02,1,143,0.710117101669312,oven,truck,0.0,0.00_truck_10_n03417042_943.png,False,-0.6441343099256833,0.3512159585952759,1.0,-0.05939904855019177,26.60377162694931,9,4.176190476190476,8,25.613726493254028,9
subject-02,1,144,0.986120939254761,oven,oven,0.0,0.00_oven_10_n04111531_11026.png,True,0.7135844926263304,1.7884817123413086,0.5,-1.2313311063457482,30.193904399871826,10,1.9200757575757574,9,37.84680296367307,6
subject-02,1,145,0.575746059417725,oven,oven,0.35,0.35_oven_10_n04111531_1830.png,True,-1.3051326937869547,1.901153326034546,0.5,-1.4475126202003517,29.92012882232666,10,1.3444444444444443,10,37.45775305766481,6
subject-02,1,146,0.595668077468872,bicycle,bicycle,0.03,0.03_bicycle_10_n03792782_42626.png,True,-1.2071322502806257,0.0845526605844497,1.0,-0.011365985482323284,26.11636559665203,9,5.20952380952381,6,23.762822500619308,9
subject-02,1,147,0.889522075653076,dog,cat,0.05,0.05_cat_10_n02123045_10433.png,False,0.23839510915784648,0.812902569770813,1.0,-0.20954375724424168,28.007348895072937,9,6.320707070707071,5,26.206835207932208,9
subject-02,1,148,0.65931510925293,clock,clock,0.0,0.00_clock_10_n02708093_2588.png,True,-0.8940396044108457,0.1349335610866546,1.0,-0.0187232156305387,26.59269282221794,9,4.533333333333333,7,29.46614347087572,9
subject-02,1,149,0.719237089157104,bird,bird,0.6,0.60_bird_10_n01828970_454.png,True,-0.5992712435294383,2.580167293548584,0.1,-3.352553681087681,31.065561771392822,10,0.14388528138528098,10,43.697765722320554,6
subject-02,1,150,0.684999942779541,clock,clock,0.1,0.10_clock_10_n04548280_7839.png,True,-0.7676907038862227,0.0491687953472137,1.0,-0.00555541610115698,23.907516152365133,9,5.820075757575758,5,26.046855359916414,6
subject-02,1,151,0.782856225967407,cat,cat,0.1,0.10_cat_10_n02124075_7240.png,True,-0.28631581868779804,0.9302579164505004,1.0,-0.22375146501443546,28.576831221580505,10,5.334595959595959,7,26.640486351036362,9
subject-02,1,152,1.3126699924469,dog,bottle,0.35,0.35_bottle_10_n04557648_2954.png,False,2.3199454525070533,2.0041449069976807,0.3333333333333333,-2.5208459475256646,30.437334775924683,10,0.8223956598956597,9,39.08084393645506,0
subject-02,1,153,1.19047594070435,keyboard,keyboard,0.05,0.05_keyboard_10_n03085013_24577.png,True,1.7188481523308885,0.4245287477970123,1.0,-0.06946709202870782,26.43754416704178,9,3.9356643356643355,8,29.098740961124353,9
subject-02,1,154,1.20427298545837,bear,bottle,0.9,0.90_bottle_10_n02823428_5482.png,False,1.7867186111116844,2.6770310401916504,0.25,-2.5099840873762713,30.808687686920166,3,0.377294927294927,10,42.68529574461252,0
subject-02,1,155,0.948031902313232,bear,boat,0.9,0.90_boat_10_n02951358_34261.png,False,0.5262168020933979,2.5822079181671143,0.1428571428571428,-2.886076245081453,30.457165002822876,3,3.2936507936507935,2,31.08200513273939,0
subject-02,1,156,0.695939064025879,bottle,bottle,0.0,0.00_bottle_10_n04591713_5476.png,True,-0.7138789499284497,1.1451594829559326,1.0,-0.31247168438487954,28.188852667808533,9,3.296367521367521,8,30.934155112986584,9
subject-02,1,157,1.11599588394165,bear,car,0.6,0.60_car_10_n02814533_39597.png,False,1.3524656615419626,2.5991337299346924,0.0909090909090909,-3.2698994963515946,31.109339237213135,10,0.3526154401154399,9,43.46662192110383,1
subject-02,1,158,0.893573045730591,chair,bottle,0.05,0.05_bottle_10_n02823428_6263.png,False,0.2583226517997673,2.0138494968414307,1.0,-0.8493780390584498,30.472232580184937,10,1.7241452991452988,10,35.051913062784266,10
subject-02,1,159,0.805305004119873,bird,bear,0.6,0.60_bear_10_n02134084_8095.png,False,-0.1758857302565607,2.4606399536132812,0.2,-2.6854426974889134,30.81416964530945,10,4.133333333333333,4,27.318246612536313,10
subject-02,1,160,0.716969013214111,dog,dog,0.2,0.20_dog_10_n02110063_4287.png,True,-0.6104283686634836,2.3999364376068115,0.5,-1.865076740827055,30.60549020767212,9,1.2837662337662337,10,34.00910434420986,10
subject-02,1,161,1.04797291755676,dog,oven,0.9,0.90_oven_10_n04111531_6489.png,False,1.0178469066939042,2.6311511993408203,0.1428571428571428,-2.7694627005600254,30.57093071937561,3,0.83265207015207,7,41.679450310659156,6
subject-02,1,162,0.895469188690186,bird,bird,0.0,0.00_bird_10_n01817953_1968.png,True,0.26765016322529833,1.743793249130249,1.0,-0.9556387448090923,29.48092031478882,9,2.511111111111111,9,35.267334374945605,9
subject-02,1,163,0.787815093994141,bird,bear,0.6,0.60_bear_10_n02133161_4882.png,False,-0.2619221420702174,2.548609972000122,0.1111111111111111,-3.013068137949759,31.028646230697632,10,3.927777777777778,4,27.72866688302821,4
subject-02,1,164,0.793328046798706,bird,clock,0.9,0.90_clock_10_n02708093_3114.png,False,-0.23480281015867266,2.6228179931640625,0.1428571428571428,-2.9002128274837604,30.523157835006714,3,1.0487484737484734,6,38.42264201275009,6
subject-02,1,165,0.625004053115845,chair,chair,0.6,0.60_chair_10_n04099969_33329.png,True,-1.0628226418507354,2.5562257766723633,0.1111111111111111,-3.1761195645704796,30.8582763671875,3,1.1219891219891218,0,37.208916581010364,7
subject-02,1,166,0.634955883026123,keyboard,keyboard,0.2,0.20_keyboard_10_n04505470_5172.png,True,-1.0138675740256333,0.0484925135970115,1.0,-0.0055034523368505325,25.533736042678356,9,5.277294927294927,6,26.74068130327576,9
subject-02,1,167,0.694921016693115,chair,knife,0.0,0.00_knife_10_n03041632_34769.png,False,-0.7188869310408633,1.700946807861328,1.0,-1.0638303319257225,29.745357990264893,10,3.3428571428571425,10,27.407824265528266,9
subject-02,1,168,0.590553045272827,chair,chair,0.0,0.00_chair_10_n03376595_9139.png,True,-1.2322941300899202,0.1973583400249481,1.0,-0.031753805099765824,25.82978516817093,9,4.807575757575758,7,25.393016792116338,9
subject-02,1,169,1.03870296478271,bird,bottle,0.9,0.90_bottle_10_n04591713_2014.png,False,0.972246130667736,2.609065532684326,0.1111111111111111,-3.0512651513539284,30.547666549682617,3,0.24171800421800388,0,43.534116804316916,0
subject-02,1,170,0.824488878250122,bear,bird,0.9,0.90_bird_10_n02028035_889.png,False,-0.08151636626405341,2.6689646244049072,0.0769230769230769,-3.376889810692366,30.78082275390625,3,0.07989926739926687,10,46.515798472814225,8
subject-02,1,171,1.02188491821289,cat,elephant,0.6,0.60_elephant_10_n02504458_4824.png,False,0.8895147518224303,2.541656494140625,0.0625,-4.1932493797164545,31.034008264541626,10,2.3944444444444444,1,37.51187685512531,0
subject-02,1,172,0.697662115097046,airplane,airplane,0.2,0.20_airplane_10_n02690373_10423.png,True,-0.7054029125749599,1.350196123123169,1.0,-0.40403005378245804,29.201281547546387,10,4.819444444444445,8,26.286008460046673,9
subject-02,1,173,0.781496047973633,car,truck,0.6,0.60_truck_10_n04467665_63829.png,False,-0.29300680984618244,2.611297845840454,0.0666666666666666,-3.573268012859273,31.078084230422974,3,0.5809523809523804,0,37.27071452210543,0
subject-02,1,174,0.839737892150879,knife,knife,0.1,0.10_knife_10_n03041632_14774.png,True,-0.006503377044202075,0.0517698042094707,1.0,-0.006066866813653064,25.990581642836332,9,4.291666666666666,9,24.087191051201426,9
subject-02,1,175,0.703092098236084,cat,cat,0.6,0.60_cat_10_n02123159_6596.png,True,-0.678691725259929,2.5169785022735596,0.5,-2.0717136956123117,30.546029329299927,3,1.4595959595959596,9,34.663945918273136,9
subject-02,1,176,0.771414995193481,boat,boat,0.0,0.00_boat_10_n04612504_20067.png,True,-0.342597551152068,0.2186508774757385,1.0,-0.03406264928670907,25.712879359722137,9,6.160714285714286,7,21.361153167924144,9
subject-02,1,177,0.710986137390137,cat,knife,0.6,0.60_knife_10_n03041632_14766.png,False,-0.6398593471259785,2.4857733249664307,0.2,-2.7415520350346765,30.908595323562622,10,3.0087662337662335,5,30.36618866173814,5
subject-02,1,178,0.810637950897217,dog,dog,0.2,0.20_dog_10_n02110185_10879.png,True,-0.14965188446676286,2.051497459411621,0.5,-2.0329650546387974,30.163073539733887,10,1.065909090909091,10,34.887102525339614,10
subject-02,1,179,0.854470014572144,airplane,airplane,0.2,0.20_airplane_10_n02690373_1441.png,True,0.06596691825253288,2.410320281982422,0.1,-3.619728662656562,30.878577709197998,10,1.3777777777777775,3,34.33985279831824,1
subject-02,1,180,0.53033709526062,cat,cat,0.0,0.00_cat_10_n02124075_4116.png,True,-1.5285085894986392,0.4159242510795593,1.0,-0.07237279167058014,26.327661752700806,9,4.664393939393939,7,26.59875886156822,9
subject-02,1,181,0.520239114761353,cat,dog,0.2,0.20_dog_10_n02113799_3680.png,False,-1.5781826016848424,1.6536552906036377,1.0,-0.5230129007275616,29.626835584640503,10,2.989321789321789,9,31.246104277911623,10
subject-02,1,182,0.855954885482788,knife,bird,0.6,0.60_bird_10_n01843065_1871.png,False,0.07327129913498966,2.504283905029297,0.1,-3.319463381261413,30.94746494293213,10,0.16439810189810158,10,43.06067159511861,6
subject-02,1,183,0.846123933792114,dog,bear,0.1,0.10_bear_10_n02133161_4060.png,False,0.02491085576515367,0.171064555644989,1.0,-0.0266358226810802,26.342508137226105,9,10.25,3,17.11077214840721,9
subject-02,1,184,0.77159595489502,bird,bird,0.2,0.20_bird_10_n01532829_4692.png,True,-0.34170737371311266,1.633832931518555,1.0,-0.4717135024164486,29.143104076385498,9,3.1106893106893105,8,33.59121531019863,9
subject-02,1,185,0.903358936309814,bear,car,0.9,0.90_car_10_n02814533_27929.png,False,0.306461430431837,2.5503060817718506,0.1111111111111111,-3.0069653975739734,30.383774042129517,3,1.0081349206349206,8,40.418840575561106,1
subject-02,1,186,0.751000881195068,airplane,airplane,0.03,0.03_airplane_10_n02690373_5845.png,True,-0.4430187143342817,0.0437425337731838,1.0,-0.00501696994926982,24.697414750233293,9,7.722222222222222,3,21.66199995783228,8
subject-02,1,187,0.862926006317139,keyboard,keyboard,0.2,0.20_keyboard_10_n03085013_22597.png,True,0.10756365504736072,0.4017031490802765,1.0,-0.0675837848620949,27.822965055704117,10,4.5087051837051835,7,29.410988694444963,9
subject-02,1,188,1.29664206504822,airplane,oven,0.1,0.10_oven_10_n04111531_9831.png,False,2.24110082996303,1.215099811553955,1.0,-0.3166231608547222,29.41644787788391,10,2.974242424242424,9,36.026564397113745,9
subject-02,1,189,0.786668062210083,bicycle,bicycle,0.0,0.00_bicycle_10_n02835271_9297.png,True,-0.26756462383411,0.34483802318573,1.0,-0.06283480361110988,25.91636347770691,9,7.4,4,19.279604956498133,9
subject-02,1,190,1.33674097061157,car,airplane,0.6,0.60_airplane_10_n02690373_7115.png,False,2.438355471497725,2.58119797706604,0.0833333333333333,-3.485634045140114,31.019979238510132,3,1.6709457209457206,3,34.842952972876496,3
subject-02,1,191,0.686290979385376,clock,clock,0.1,0.10_clock_10_n03196217_3140.png,True,-0.761339833224932,0.0493589863181114,1.0,-0.005577592924160058,24.406977012753487,9,5.099679487179487,6,27.702820084378775,8
subject-02,1,192,0.877995014190674,elephant,knife,0.6,0.60_knife_10_n03041632_87380.png,False,0.18169115814546075,2.5703201293945312,0.1666666666666666,-2.7293593114057204,30.757660627365112,3,4.278968253968254,5,29.273546773611287,5
subject-02,1,193,0.609760999679565,bird,bird,0.0,0.00_bird_10_n02009912_31837.png,True,-1.1378063103380807,1.2592120170593262,1.0,-0.3513446989496438,27.734570264816284,9,3.3237484737484735,8,32.58492750474013,9
subject-02,1,194,0.787758111953735,elephant,elephant,0.0,0.00_elephant_10_n02504458_8889.png,True,-0.2622024482729997,0.2194203287363052,1.0,-0.03465430039823123,25.575305715203285,9,7.660256410256411,1,20.448321505842156,0
subject-02,1,195,0.793581008911133,truck,truck,0.1,0.10_truck_10_n03796401_21198.png,True,-0.23355843827102069,0.2787415683269501,1.0,-0.042061754522036934,26.57150861620903,9,3.2928571428571427,9,26.277095555033313,9
subject-02,1,196,0.545169115066528,chair,chair,0.03,0.03_chair_10_n04099969_37437.png,True,-1.4555468787250685,0.3289148211479187,1.0,-0.055087083230836775,27.628187358379364,10,3.6376123876123874,8,28.190416295493378,9
subject-02,1,197,0.761099100112915,car,car,0.03,0.03_car_10_n04285008_5559.png,True,-0.3933435293187739,0.803341269493103,1.0,-0.16471546422445804,28.708770632743835,10,3.4428571428571426,8,34.81606815684155,9
subject-02,1,198,1.03084111213684,bear,bicycle,0.6,0.60_bicycle_10_n02835271_12799.png,False,0.9335720844893514,2.5747313499450684,0.1428571428571428,-2.827147541045562,30.798531532287598,3,3.7773809523809523,3,28.659576019803588,4
subject-02,1,199,0.894723176956177,truck,truck,0.2,0.20_truck_10_n03417042_4994.png,True,0.26398038034456256,0.8476623892784119,1.0,-0.2427210876327606,28.438601195812225,10,3.069047619047619,9,28.420652738637287,9
subject-02,1,200,0.744517087936401,chair,chair,0.05,0.05_chair_10_n04429376_14729.png,True,-0.4749138071567746,0.0621483661234378,1.0,-0.007385458484493303,27.32525447383523,10,3.6325757575757573,9,27.37297490616201,9
subject-02,1,201,0.792162895202637,truck,truck,0.05,0.05_truck_10_n03417042_6489.png,True,-0.24053442694938706,0.287928432226181,1.0,-0.046425248740223996,26.806402415037155,9,4.459523809523809,8,24.721470493390786,9
subject-02,1,202,0.722063064575195,car,car,0.0,0.00_car_10_n02814533_72473.png,True,-0.5853696978326182,0.3463310599327087,1.0,-0.06462600868845356,26.8839892745018,9,4.254599567099567,8,31.403815966362917,9
subject-02,1,203,1.17214703559875,dog,dog,0.9,0.90_dog_10_n02109525_13812.png,True,1.6286845542093218,2.5608925819396973,0.0833333333333333,-3.383049110499616,30.413121223449707,3,0.7127344877344874,7,36.36245651471584,0
subject-02,1,204,1.07383394241333,airplane,clock,0.2,0.20_clock_10_n03196217_4486.png,False,1.1450625280714863,0.4993738234043121,1.0,-0.09144822646537208,27.665200024843216,10,4.5898559773559775,6,30.603133547847897,9
subject-02,1,205,1.18745708465576,bear,dog,0.6,0.60_dog_10_n02113023_6945.png,False,1.7039977877300718,2.337108373641968,0.1111111111111111,-3.1549392463704886,30.417641639709473,10,0.7266233766233765,6,36.329052821967906,0
subject-02,1,206,0.879409074783325,elephant,bicycle,0.9,0.90_bicycle_10_n03792782_4067.png,False,0.18864720872571986,2.5203943252563477,0.5,-2.031591006372779,30.316046476364136,3,4.191666666666666,4,27.196168840046685,3
subject-02,1,207,0.649086952209473,chair,chair,0.03,0.03_chair_10_n04429376_33792.png,True,-0.944353981395032,0.3875395655632019,1.0,-0.07483309165942381,27.910190045833588,10,3.742099567099567,9,27.14027851437595,9
subject-02,1,208,0.965307950973511,truck,car,0.35,0.35_car_10_n02814533_81455.png,False,0.611201186024663,1.6553534269332886,0.125,-3.9913484164894424,29.916941046714783,10,0.39345238095238055,8,45.183292067367674,1
subject-02,1,209,0.656856060028076,bottle,bottle,0.03,0.03_bottle_10_n04560804_11426.png,True,-0.9061361658144591,0.3952702581882477,1.0,-0.0651461326573317,26.54763427376747,9,4.263034188034188,7,26.749980185419147,9
subject-02,1,210,1.26257801055908,elephant,dog,0.9,0.90_dog_10_n02095570_9488.png,False,2.073532843678263,2.59381103515625,0.0833333333333333,-3.30106592761677,30.48410129547119,3,0.6809884559884558,7,36.20866837114098,0
subject-02,1,211,1.35436701774597,bear,airplane,0.6,0.60_airplane_10_n02690373_5729.png,False,2.5250615688418745,2.535707950592041,0.1,-3.2876582087406727,30.940133333206177,10,1.7345238095238094,3,34.20440152675951,3
subject-02,1,212,1.14015913009644,bear,dog,0.9,0.90_dog_10_n02109047_6542.png,False,1.4713295654719007,2.6259725093841553,0.0833333333333333,-3.248963311026008,30.56469225883484,3,0.6948773448773446,7,36.28431198682341,0
subject-02,1,213,0.818169116973877,car,car,0.0,0.00_car_10_n03100240_11400.png,True,-0.11260455252791832,0.1925525963306427,1.0,-0.029288662798651624,25.52438986301422,9,3.7121753246753246,8,31.622980290097104,9
subject-02,1,214,0.640024900436401,bottle,bottle,0.1,0.10_bottle_10_n04591713_1978.png,True,-0.9889320502713044,0.1372803598642349,1.0,-0.018215328570907872,26.2771704941988,9,3.6225579975579976,8,29.01827497438657,9
subject-02,1,215,0.629513025283813,knife,knife,0.03,0.03_knife_10_n03041632_29580.png,True,-1.0406420941228847,0.5126476287841797,1.0,-0.098806087643439,27.303579330444336,9,6.5095238095238095,5,21.40237254157969,5
subject-02,1,216,0.687557935714722,car,car,0.0,0.00_car_10_n04285008_14349.png,True,-0.7551074183229731,0.1711636632680893,1.0,-0.02541070995923784,25.84757426381111,9,5.078113553113553,6,30.388193536903454,8
subject-02,1,217,0.749488830566406,elephant,cat,0.6,0.60_cat_10_n02125311_3616.png,False,-0.45045679775697833,2.5776782035827637,0.5,-2.3146706092438314,31.022161722183228,10,1.587373737373737,9,34.063766515172,7
subject-02,1,218,0.771071910858154,clock,clock,0.03,0.03_clock_10_n03196217_3007.png,True,-0.34428525251524333,0.0646893307566642,1.0,-0.007639367242412663,25.3676203712821,9,3.9092032967032964,8,29.84584802497524,8
subject-02,1,219,0.831066846847534,car,clock,0.0,0.00_clock_10_n04548280_4181.png,False,-0.04915800586793037,0.1572407782077789,1.0,-0.022643494124214014,25.91728889197111,9,5.216666666666667,6,28.16820015219662,9
subject-02,1,220,0.68673300743103,chair,chair,0.03,0.03_chair_10_n03376595_5112.png,True,-0.75916540770212,0.1451615989208221,1.0,-0.019871389578464037,27.15593358874321,10,4.232575757575757,8,26.143730428944732,9
subject-02,1,221,0.660425186157227,bear,bear,0.0,0.00_bear_10_n02133161_16147.png,True,-0.8885789111885055,0.2355724871158599,1.0,-0.0380025975921765,25.743578404188156,9,9.75,2,17.807837078322947,9
subject-02,1,222,1.08267402648926,knife,knife,0.6,0.60_knife_10_n03041632_13645.png,True,1.1885486928691584,2.546510696411133,0.2,-2.6928004212088816,30.962632656097412,10,3.1301587301587306,5,29.784723300508155,5
subject-02,1,223,1.23247194290161,elephant,elephant,0.1,0.10_elephant_10_n02504013_7553.png,True,1.9254349966083093,0.1069211885333061,1.0,-0.01366606686245509,25.91151501983404,9,7.776923076923077,1,22.25081978023566,9
subject-02,1,224,0.76829981803894,bear,chair,0.9,0.90_chair_10_n03376595_4887.png,False,-0.35792173879018874,2.6076598167419434,0.0625,-3.9059880506019935,30.51046323776245,3,1.228622766122766,0,38.608890530259096,0
subject-02,1,225,0.881694078445435,elephant,elephant,0.1,0.10_elephant_10_n02504458_2054.png,True,0.1998876047400924,0.049662061035633,1.0,-0.00564694362272842,25.713512737303972,9,7.526923076923077,1,22.2799957448592,9
subject-02,1,226,,na,knife,0.35,0.35_knife_10_n03041632_84012.png,False,,1.6078026294708252,0.1666666666666666,-3.7398215474597887,29.808144569396973,10,1.3131424131424125,5,34.45038919747149,5
subject-02,1,227,0.855586051940918,knife,knife,0.0,0.00_knife_10_n03041632_1607.png,True,0.07145693220737863,0.0841563716530799,1.0,-0.011610595597360215,25.611937291920185,9,7.1761904761904765,5,19.94626651303825,9
subject-02,1,228,0.773154020309448,elephant,airplane,0.6,0.60_airplane_10_n02690373_9001.png,False,-0.33404293423545495,2.5590429306030273,0.0833333333333333,-3.4759751153114427,31.008407592773438,10,1.2134310134310131,3,34.24323170323107,3
subject-02,1,229,1.50014996528625,elephant,chair,0.6,0.60_chair_10_n02791124_5089.png,False,3.242197427163459,2.553143262863159,0.1428571428571428,-2.8666032275202946,30.981064796447754,10,1.3562992562992562,0,35.50516819074426,7
subject-02,1,230,0.696797132492065,car,boat,0.2,0.20_boat_10_n03662601_11739.png,False,-0.7096579372765623,2.0007169246673584,0.25,-3.0321180575696185,30.48656392097473,10,2.0369047619047613,4,32.580670346865496,0
subject-02,1,231,0.880546092987061,bear,bottle,0.35,0.35_bottle_10_n04591713_6138.png,False,0.19424043165900015,1.907938003540039,0.1428571428571428,-3.375962776841357,30.413914680480957,10,0.2966380841380838,10,41.28469666986269,0
subject-02,1,232,1.33646416664124,dog,bicycle,0.6,0.60_bicycle_10_n02835271_5821.png,False,2.436993816680075,2.5996570587158203,0.1111111111111111,-3.0390956504167916,31.01069736480713,3,2.986111111111111,4,28.777988206202895,4
subject-02,1,233,0.762221097946167,car,truck,0.1,0.10_truck_10_n03417042_5380.png,False,-0.3878241946314177,0.3057860136032104,1.0,-0.04949899833033997,28.206294417381287,10,3.7357142857142853,8,27.552959817801185,9
subject-02,1,234,1.07996296882629,bear,clock,0.9,0.90_clock_10_n02708093_6967.png,False,1.1752124508950677,2.565735101699829,0.1111111111111111,-3.000776934709828,30.41110396385193,3,0.677355977355977,6,39.211713755288876,6
subject-02,1,235,0.755769968032837,elephant,oven,0.9,0.90_oven_10_n04111531_845.png,False,-0.4195586098397648,2.612208843231201,0.1428571428571428,-2.777528837757627,30.470088481903076,3,0.83265207015207,7,42.08710174153536,6
subject-02,1,236,0.6680748462677,cat,cat,0.2,0.20_cat_10_n02123159_4876.png,True,-0.8509486830873988,0.627221941947937,1.0,-0.1297539477562648,28.189470171928406,10,5.183333333333334,7,26.40843522473168,9
subject-02,1,237,0.787485122680664,dog,bicycle,0.9,0.90_bicycle_10_n02835271_30318.png,False,-0.2635453378218773,2.5796871185302734,0.5,-2.161292141761729,30.506630659103394,3,3.8444444444444437,4,27.861728977857084,10
subject-02,1,238,0.755440950393677,cat,cat,0.2,0.20_cat_10_n02123597_30864.png,True,-0.4211771142742206,0.1839012503623962,1.0,-0.025642513440574725,26.49431550502777,9,4.822222222222222,7,26.268958460304162,9
subject-02,1,239,0.775169134140015,elephant,bottle,0.1,0.10_bottle_10_n03937543_1290.png,False,-0.32413018098905727,2.370626926422119,0.5,-1.5207172233949247,30.72048807144165,10,1.3459706959706959,9,35.54198960384487,0
subject-02,1,240,0.718935966491699,bicycle,bicycle,0.03,0.03_bicycle_10_n02835271_25268.png,True,-0.6007525269357549,0.1247006356716156,1.0,-0.017036010182091815,25.90241566300392,9,6.069047619047619,4,22.26665575607325,9
subject-02,1,241,0.602967977523804,cat,cat,0.03,0.03_cat_10_n02123394_6828.png,True,-1.1712225627630986,0.6351203918457031,1.0,-0.13050513127896576,27.223688006401062,9,4.726262626262626,7,26.658910186698805,9
subject-02,1,242,0.85060715675354,boat,boat,0.05,0.05_boat_10_n03344393_2937.png,True,0.04696473792857295,0.7761853933334351,1.0,-0.1722152604205484,28.6360684633255,10,5.494047619047619,7,25.02361806163159,10
subject-02,1,243,0.542670011520386,chair,chair,0.03,0.03_chair_10_n03376595_524.png,True,-1.4678404754511318,0.2308996319770813,1.0,-0.03758217039556077,26.495770156383514,9,4.815909090909091,7,26.503446913281454,9
subject-02,1,244,0.718313932418823,boat,bottle,0.2,0.20_bottle_10_n02823428_7570.png,False,-0.6038124385803176,1.1675431728363037,1.0,-0.31740455449540056,29.133554220199585,10,2.028943278943279,10,33.30947867448187,10
subject-02,1,245,0.826189041137695,bottle,keyboard,0.03,0.03_keyboard_10_n04505470_6051.png,False,-0.07315292052339639,0.0752915143966674,1.0,-0.009901686897563936,26.817185759544373,9,5.937276612276612,5,25.275173468373627,9
subject-02,1,246,0.60016918182373,bicycle,bicycle,0.2,0.20_bicycle_10_n03792782_31101.png,True,-1.1849904059196843,0.137087345123291,1.0,-0.018352520685611693,26.34229052066803,9,3.2209457209457204,9,27.179512549419275,9
subject-02,1,247,0.791669845581055,elephant,elephant,0.1,0.10_elephant_10_n02504013_1719.png,True,-0.24295983794247092,0.2390743494033813,1.0,-0.03836485639679772,26.097293466329575,9,7.276923076923077,1,22.26367135267211,9
subject-02,1,248,0.655885934829712,chair,chair,0.05,0.05_chair_10_n02791124_2470.png,True,-0.9109084082375031,0.3730855584144592,1.0,-0.06537944315588327,26.64704841375351,9,4.65952380952381,8,26.071783670997437,9
subject-02,1,249,0.729708909988403,keyboard,keyboard,0.03,0.03_keyboard_10_n04505470_1651.png,True,-0.5477582350003134,0.2218115925788879,1.0,-0.037216544938535774,25.820555359125137,9,5.236421911421911,6,25.78685518599372,9
subject-02,1,250,1.22749304771423,bear,keyboard,0.35,0.35_keyboard_10_n04505470_8620.png,False,1.9009428023294939,2.4984216690063477,0.3333333333333333,-2.384330854615973,31.040209770202637,10,2.6098346098346097,7,34.50569884134395,6
subject-02,1,251,0.660943984985352,clock,clock,0.05,0.05_clock_10_n04548280_2045.png,True,-0.886026834630986,0.0509771332144737,1.0,-0.005823908598332613,24.393413160927594,9,6.129166666666666,5,25.926361741620216,4
subject-02,1,252,0.897154092788696,bird,bird,0.05,0.05_bird_10_n01833805_7361.png,True,0.27593854789073147,0.894399881362915,1.0,-0.1875821517950758,29.313870906829834,10,3.1563603063603063,8,34.298260480702446,10
subject-02,1,253,1.08871006965637,cat,bicycle,0.2,0.20_bicycle_10_n03792782_7050.png,False,1.2182412122656097,2.4261152744293213,0.1111111111111111,-3.4305365276610003,30.83422827720642,10,1.240079365079365,10,33.30428972364585,3
subject-02,1,254,0.616411924362183,clock,clock,0.05,0.05_clock_10_n04548280_7800.png,True,-1.105089064176052,0.0804955586791038,1.0,-0.009903011249224682,25.751288574188948,9,5.231089743589743,6,29.621341415309857,9
subject-02,1,255,0.888334035873413,airplane,boat,0.05,0.05_boat_10_n03662601_33184.png,False,0.23255090075429924,0.147815316915512,1.0,-0.02036989894122051,27.916560024023056,10,4.744047619047619,8,25.072420021923396,9
subject-02,1,256,0.62611198425293,bottle,bottle,0.03,0.03_bottle_10_n03937543_1602.png,True,-1.057372504092098,0.2210466414690017,1.0,-0.03283543135040458,26.63202591240406,9,2.9456099456099456,9,29.031353621710327,9
subject-02,1,257,0.692229032516479,cat,cat,0.35,0.35_cat_10_n02123597_7615.png,True,-0.7321293466708982,1.5650144815444946,0.1428571428571428,-3.880239804186472,29.860827088356018,10,1.0675324675324673,7,35.64418824270127,4
subject-02,1,258,0.757992029190063,bear,oven,0.9,0.90_oven_10_n04111531_22466.png,False,-0.40862784076068553,2.60725736618042,0.1111111111111111,-2.9213785114103636,30.506617069244385,3,0.6127747252747251,7,42.16218598889644,6
subject-02,1,259,0.935405969619751,oven,knife,0.9,0.90_knife_10_n03041632_19620.png,False,0.4641072808357881,2.5986649990081787,0.1666666666666666,-2.390318466948542,30.475252628326416,3,4.652777777777778,6,27.323209613830663,5
subject-02,1,260,0.861268997192383,bear,bear,0.0,0.00_bear_10_n02133161_5434.png,True,0.09941249141006192,0.7459361553192139,1.0,-0.17542730416218927,28.696227073669434,10,6.408333333333333,8,23.070022198379128,9
subject-02,1,261,0.535316944122314,chair,chair,0.03,0.03_chair_10_n04099969_5453.png,True,-1.5040117039026337,0.2264444082975387,1.0,-0.03621125381259394,25.914899084717035,9,5.140909090909091,7,24.102330182934825,9
subject-02,1,262,0.609281063079834,keyboard,keyboard,0.05,0.05_keyboard_10_n04505470_1043.png,True,-1.140167215719644,0.2237908095121383,1.0,-0.03933108797299542,25.17034461349249,9,5.469755244755245,6,24.752406113177344,6
subject-02,1,263,0.958632946014404,bicycle,clock,0.0,0.00_clock_10_n04548280_1032.png,False,0.5783654841033021,2.100830316543579,1.0,-1.086308790774963,30.560214519500732,10,3.3343614718614716,8,35.8926672792879,9
subject-02,1,264,0.736547946929932,bird,knife,0.1,0.10_knife_10_n03041632_31849.png,False,-0.5141156265203245,1.887762188911438,0.5,-1.869772903525731,30.22118318080902,10,2.6837662337662334,9,29.624432141775365,9
subject-02,1,265,0.656677007675171,elephant,bear,0.2,0.20_bear_10_n02132136_17615.png,False,-0.9070169606190058,1.4795368909835815,1.0,-0.46830248226002985,29.10293984413147,9,10.25,3,18.628916167171433,9
subject-02,1,266,0.878187894821167,bear,cat,0.9,0.90_cat_10_n02124075_9291.png,False,0.18263997704942717,2.592750787734986,0.3333333333333333,-2.3189066210806564,30.42119026184082,3,1.0024531024531023,9,35.80068068937479,9
subject-02,1,267,0.869905948638916,cat,chair,0.9,0.90_chair_10_n03376595_3120.png,False,0.14189940564384018,2.579728126525879,0.0625,-4.121107487709668,30.398909330368042,3,1.2450396825396823,0,39.036490020915515,0
subject-02,1,268,0.66375994682312,airplane,airplane,0.0,0.00_airplane_10_n02690373_5967.png,True,-0.872174547764783,0.0319774895906448,1.0,-0.0034345292304466006,24.472565576434135,9,7.749145299145299,3,20.633440387656567,8
subject-02,1,269,0.69153094291687,bird,bird,0.03,0.03_bird_10_n02018207_4180.png,True,-0.7355633908622649,0.6888415813446045,1.0,-0.12836047506902012,26.495450854301453,9,4.116244866244866,7,31.13832011090367,9
subject-02,1,270,0.65366005897522,elephant,elephant,0.35,0.35_elephant_10_n02504458_8064.png,True,-0.9218579425853898,1.9147289991378784,0.25,-2.000493627633155,30.14168107509613,10,3.46025641025641,1,31.2135939300628,0
subject-02,1,271,0.627226829528809,cat,cat,0.03,0.03_cat_10_n02124075_14924.png,True,-1.0518883542837514,0.1900470554828643,1.0,-0.027275096918423645,25.384883984923363,9,6.05959595959596,5,24.15097659081248,9
subject-02,1,272,0.88112998008728,bear,clock,0.6,0.60_clock_10_n03196217_3362.png,False,0.19711269061550674,2.497943162918091,1.0,-1.492870450667248,30.991443157196045,10,4.447557997557997,6,34.723288698174606,6
subject-02,1,273,0.788737058639526,bottle,oven,0.03,0.03_oven_10_n04111531_6415.png,False,-0.25738681116584194,1.494706153869629,1.0,-0.5262187320399647,30.065362691879272,10,2.0885281385281385,9,39.68821748316683,10
subject-02,1,274,0.582961082458496,keyboard,keyboard,0.2,0.20_keyboard_10_n04505470_4684.png,True,-1.2696405335003502,0.0990605354309082,1.0,-0.014946986218184792,26.597626984119415,9,3.9146575646575643,8,28.56330821520747,9
subject-02,1,275,0.724661827087402,bicycle,bicycle,0.0,0.00_bicycle_10_n02835271_15038.png,True,-0.5725858584590137,0.0603705495595932,1.0,-0.007275639499274273,23.88397238822654,8,6.45,6,19.177206457336286,8
subject-02,1,276,0.682207822799683,bird,bird,0.1,0.10_bird_10_n02007558_7446.png,True,-0.7814257078223937,1.6713368892669678,1.0,-0.8412996609841159,29.9506995677948,10,3.132056832056832,8,35.57146650720643,10
subject-02,1,277,0.774040937423706,bear,dog,0.05,0.05_dog_10_n02096051_1308.png,False,-0.3296800092382237,1.7263402938842771,1.0,-0.5169261128432303,29.504355907440186,10,3.492857142857143,8,30.180235605662393,9
subject-02,1,278,0.573955774307251,keyboard,keyboard,0.03,0.03_keyboard_10_n03085013_20877.png,True,-1.3139394690031398,0.0580253526568412,1.0,-0.006733806247547287,24.402188539505005,9,5.473387723387724,6,23.63987182033287,6
subject-02,1,279,1.43586802482605,elephant,elephant,0.0,0.00_elephant_10_n02504013_8534.png,True,2.9259815368669253,0.0528976023197174,1.0,-0.006134812137782935,25.560545220971107,9,8.0,1,20.661816609768774,0
subject-02,1,280,0.753515005111694,bird,bird,0.35,0.35_bird_10_n02018795_248.png,True,-0.4306512293622946,2.148792266845703,0.1666666666666666,-3.348296036845613,30.516013622283936,10,0.5432289932289929,8,40.23169861642948,6
subject-02,1,281,0.679571151733398,boat,boat,0.05,0.05_boat_10_n03662601_19809.png,True,-0.7943960270547545,0.6057965755462646,1.0,-0.11083448776694924,27.823994159698486,10,5.8845238095238095,7,23.520413493583376,9
subject-02,1,282,0.917568922042847,clock,chair,0.9,0.90_chair_10_n02791124_5400.png,False,0.37636322956084994,2.6126530170440674,0.0666666666666666,-3.981175780222929,30.504825830459595,3,1.2348706848706847,0,38.854443616576965,0
subject-02,1,283,0.512978076934814,car,car,0.1,0.10_car_10_n04285008_14554.png,True,-1.6139011180264176,0.1855013370513916,1.0,-0.02704052643397069,25.916615784168243,9,4.151923076923077,7,32.75860556316366,9
subject-02,1,284,1.26084995269775,chair,bear,0.1,0.10_bear_10_n02134418_1749.png,False,2.0650321769094564,0.1859087646007537,1.0,-0.029217162079854815,27.321053117513657,9,10.75,2,17.898468064737486,9
subject-02,1,285,0.674854040145874,truck,truck,0.2,0.20_truck_10_n04467665_40307.png,True,-0.817600454761795,0.2006072551012039,1.0,-0.028472447005379806,26.821350648999214,9,3.956349206349206,8,26.14659905856495,9
subject-02,1,286,0.762349128723145,bird,bear,0.6,0.60_bear_10_n02133161_97.png,False,-0.38719438529713796,2.6143393516540527,0.25,-2.3826017090747205,31.09750461578369,3,4.316666666666666,4,26.36669291216238,10
subject-02,1,287,0.734143972396851,cat,truck,0.9,0.90_truck_10_n04467665_37811.png,False,-0.5259412643555582,2.598228931427002,0.1111111111111111,-3.133293145751971,30.46650195121765,3,0.7940947940947938,0,36.78231837073135,0
subject-02,1,288,0.735905885696411,bear,knife,0.9,0.90_knife_10_n03041632_29285.png,False,-0.5172740558261172,2.5770177841186523,0.3333333333333333,-2.1891232065638455,30.33068013191223,3,4.952380952380952,6,26.405173128537804,5
subject-02,1,289,0.59992504119873,airplane,airplane,0.0,0.00_airplane_10_n02690373_6031.png,True,-1.186191383123223,0.0271902997046709,1.0,-0.0028570538162974875,25.28743903338909,9,7.805555555555555,3,21.400408333114285,9
subject-02,1,290,0.925626993179321,bird,oven,0.35,0.35_oven_10_n04111531_2458.png,False,0.4160025142534231,2.036937713623047,0.1111111111111111,-3.8335697455038793,30.49339270591736,10,0.3205738705738705,10,43.25048622494229,6
subject-02,1,291,0.631816148757935,car,car,0.35,0.35_car_10_n03100240_1702.png,True,-1.029312563081686,1.9601986408233645,0.0833333333333333,-4.036758505727533,30.315099716186523,10,0.09610805860805818,10,46.08297432748898,1
subject-02,1,292,1.20958089828491,dog,dog,0.0,0.00_dog_10_n02110958_16337.png,True,1.8128293098249564,1.8291239738464355,1.0,-0.5934356105956959,28.076904296875,9,3.919877344877345,8,27.83444524186957,9
subject-02,1,293,0.689221143722534,bear,elephant,0.6,0.60_elephant_10_n02504458_5288.png,False,-0.746925761123869,2.569668769836426,0.0625,-3.917246090323991,31.04762625694275,10,2.385353535353535,1,36.590932006614516,0
subject-02,1,294,0.66893196105957,airplane,airplane,0.05,0.05_airplane_10_n02690373_1161.png,True,-0.8467323617527105,0.0278341323137283,1.0,-0.002946601048098619,25.003152035176754,9,5.588888888888889,7,22.912446247361213,8
subject-02,1,295,1.42279410362244,airplane,oven,0.05,0.05_oven_10_n04111531_22872.png,False,2.8616682693540083,0.1770138144493103,1.0,-0.0267327897187297,27.823675096035004,10,2.4844988344988344,9,36.05741019501918,9
subject-02,1,296,0.8488609790802,airplane,airplane,0.05,0.05_airplane_10_n02690373_466.png,True,0.03837493613294992,0.029625080525875,1.0,-0.003155496054067472,25.256760893389583,9,6.794444444444444,5,22.413114542882894,9
subject-02,1,297,1.0724618434906,bicycle,bottle,0.2,0.20_bottle_10_n03937543_2105.png,False,1.1383128954480801,2.0275373458862305,0.5,-1.658892069223229,30.24121618270874,10,1.4793761793761793,9,35.124591444447304,0
subject-02,1,298,0.654175043106079,dog,dog,0.0,0.00_dog_10_n02091244_13118.png,True,-0.9193246312966771,1.9979615211486816,1.0,-1.148463983208946,29.918802738189697,10,2.6571789321789323,10,31.559591517556772,6
subject-02,1,299,0.75817608833313,cat,cat,0.0,0.00_cat_10_n02123597_3896.png,True,-0.4077224165408275,0.2704531252384186,1.0,-0.04318010983293616,25.86722430586815,9,4.537337662337662,7,28.24437628189378,9
subject-02,1,300,1.09210085868835,cat,bottle,0.0,0.00_bottle_10_n03937543_9745.png,False,1.2349211905749007,0.4114726781845093,1.0,-0.07830349217062081,26.494273655116558,9,3.4194444444444443,8,28.877625954575322,9
subject-02,1,301,0.729926824569702,car,car,0.35,0.35_car_10_n02814533_73210.png,True,-0.5466862690198101,1.9040067195892336,0.0714285714285714,-4.467446756064796,30.326428651809692,10,0.06978021978021938,5,47.121705819791096,1
subject-02,1,302,0.617552042007446,cat,cat,0.1,0.10_cat_10_n02123045_2721.png,True,-1.099480594461874,0.2633236050605774,1.0,-0.043084335130807686,26.558487713336945,9,5.334595959595959,5,25.95890879539509,9
subject-02,1,303,0.895429849624634,knife,knife,0.0,0.00_knife_10_n03041632_289.png,True,0.2674566463907427,0.0669590011239051,1.0,-0.008577611111614793,25.34574108198285,9,8.25,5,19.175995452328696,9
subject-02,1,304,0.78490686416626,bicycle,bicycle,0.0,0.00_bicycle_10_n03792782_7092.png,True,-0.27622831387565167,0.0864242911338806,1.0,-0.011386904934445293,24.650939121842384,9,7.066666666666666,4,19.479452163866295,8
subject-02,1,305,0.756808996200562,dog,dog,0.2,0.20_dog_10_n02094433_6402.png,True,-0.414447419748922,1.6363705396652222,1.0,-0.5662714226432944,29.467451453208923,10,2.730988455988456,9,30.755080686118088,9
subject-02,1,306,0.738701820373535,knife,knife,0.0,0.00_knife_10_n03041632_52929.png,True,-0.5035202866211392,0.6583436131477356,1.0,-0.152125181202174,28.221624672412872,9,7.142857142857142,5,21.95898367820224,9
subject-02,1,307,0.844626903533936,cat,knife,0.9,0.90_knife_10_n03041632_99460.png,False,0.017546660588380576,2.5709052085876465,0.3333333333333333,-2.3136623352751373,30.398613691329956,3,4.352777777777778,6,27.380543190928105,5
subject-02,1,308,0.724416017532349,elephant,elephant,0.2,0.20_elephant_10_n02504458_309.png,True,-0.5737950454676514,1.0321946144104004,1.0,-0.2754230169565613,28.978278636932373,10,5.574999999999999,9,26.38296149690662,9
subject-02,1,309,0.6561439037323,clock,clock,0.1,0.10_clock_10_n04548280_8668.png,True,-0.9096394069345447,0.0318554639816284,1.0,-0.0034414073708223555,25.21364225447178,9,6.099679487179486,5,26.816919609902587,4
subject-02,1,310,0.738137006759644,boat,keyboard,0.6,0.60_keyboard_10_n03085013_23718.png,False,-0.5062987192336199,2.638702869415283,0.125,-2.6439121813642523,31.055094718933105,3,1.3643939393939393,7,34.78937134755082,5
subject-02,1,311,0.71994686126709,bicycle,bottle,0.35,0.35_bottle_10_n04557648_310.png,False,-0.5957797307023511,1.5174760818481443,0.3333333333333333,-2.054157500296897,29.505913496017456,10,0.9737234987234984,8,37.041525643806025,0
subject-02,1,312,0.655421018600464,oven,oven,0.03,0.03_oven_10_n04111531_1723.png,True,-0.9131954253731479,0.0505464226007461,1.0,-0.005839076769131543,25.988055646419525,9,3.478943278943279,8,33.88916241996692,6
subject-02,1,313,0.913677930831909,elephant,elephant,0.2,0.20_elephant_10_n02504013_18217.png,True,0.3572226553794504,0.3779913783073425,1.0,-0.06707762552216277,26.847749054431915,9,6.116666666666666,1,22.932534906036786,9
subject-02,1,314,0.617393016815186,cat,cat,0.03,0.03_cat_10_n02123394_9542.png,True,-1.1002628716051908,0.1361924260854721,1.0,-0.01801886096316863,26.2020972520113,9,5.274675324675325,6,27.091778382240605,9
subject-02,1,315,0.787102937698364,elephant,oven,0.05,0.05_oven_10_n04111531_9314.png,False,-0.2654253831903079,1.6469769477844238,1.0,-0.6197300178595573,29.929761171340942,10,2.239260739260739,9,40.71774428248504,6
subject-02,1,316,0.820799112319946,keyboard,keyboard,0.05,0.05_keyboard_10_n04505470_4592.png,True,-0.09966707251597218,0.2702242136001587,1.0,-0.049075776766410194,26.489431351423264,9,5.115811965811965,6,27.351507101419543,9
subject-02,1,317,0.80249810218811,bear,bear,0.35,0.35_bear_10_n02133161_1500.png,True,-0.1896934496093555,1.9551489353179932,0.3333333333333333,-2.5955693810691356,30.301802158355713,10,7.916666666666666,2,24.355436558941268,4
subject-02,1,318,0.82443904876709,car,truck,0.35,0.35_truck_10_n03417042_8928.png,False,-0.08176148758782142,1.3898005485534668,0.3333333333333333,-3.085546886407943,29.596485137939453,10,1.4377344877344873,8,33.874731444494586,0
subject-02,1,319,1.00256395339966,bottle,truck,0.2,0.20_truck_10_n03796401_28656.png,False,0.7944710109822444,0.3637993931770324,1.0,-0.06361051812942603,28.075770676136017,10,3.3869047619047614,9,27.36933222357645,9
subject-02,1,320,0.898120880126953,car,car,0.35,0.35_car_10_n04285008_10631.png,True,0.2806943707035735,1.5634145736694336,1.0,-0.5194773632537383,29.838125944137573,10,2.1977564102564098,9,40.38957642116512,10
subject-02,1,321,0.79656720161438,keyboard,keyboard,0.2,0.20_keyboard_10_n04505470_1351.png,True,-0.2188687512843794,0.0693331807851791,1.0,-0.008244251648211617,25.432906717061996,9,5.3154512154512155,6,25.994598163337965,9
subject-02,1,322,0.560876846313477,keyboard,keyboard,0.0,0.00_keyboard_10_n04505470_4682.png,True,-1.378277365931378,0.2786169052124023,1.0,-0.05494236517511145,26.114128828048706,9,5.073820623820623,6,26.511856325612545,9
subject-02,1,323,0.800565958023071,keyboard,bicycle,0.6,0.60_bicycle_10_n03792782_988.png,False,-0.19919805825923537,2.420363426208496,0.1666666666666666,-2.9050977538295517,30.55229163169861,10,3.194444444444444,4,29.06787873795455,4
subject-02,1,324,0.664119005203247,bicycle,bicycle,0.03,0.03_bicycle_10_n03792782_1004.png,True,-0.8704082668384849,0.1725583970546722,1.0,-0.025814367637695516,26.119390606880188,9,5.7595238095238095,6,23.286831716809942,9
subject-02,1,325,0.674138784408569,boat,boat,0.1,0.10_boat_10_n03344393_7075.png,True,-0.8211189426627887,1.6245332956314087,0.5,-2.36686806207103,29.802457690238953,10,2.227380952380952,10,30.27406966694223,0
subject-02,1,326,0.721611976623535,bicycle,bicycle,0.1,0.10_bicycle_10_n03792782_11921.png,True,-0.5875886908688427,0.0472529046237468,1.0,-0.005402049860205925,27.170453678816557,9,3.3170995670995667,9,27.275320621722674,9
subject-02,1,327,0.625570058822632,bicycle,bicycle,0.05,0.05_bicycle_10_n02835271_5963.png,True,-1.0600383450917508,0.0404110811650753,1.0,-0.004544315899392245,25.545948650687933,9,5.602380952380952,6,23.11223313360704,9
subject-02,1,328,0.80941104888916,bear,chair,0.6,0.60_chair_10_n04429376_21362.png,False,-0.1556872640462662,2.5606069564819336,0.1111111111111111,-3.1043234844646945,30.997313261032104,10,1.1089188589188588,0,36.992086705824164,6
subject-02,1,329,0.753055095672607,cat,oven,0.6,0.60_oven_10_n04111531_9429.png,False,-0.43291361708263304,2.583125114440918,0.0909090909090909,-3.3253232065616545,31.042633295059204,3,0.43701714951714926,7,42.40493542668953,6
subject-02,1,330,0.676934957504272,cat,dog,0.05,0.05_dog_10_n02098105_146.png,False,-0.807364000628511,1.8799943923950195,1.0,-0.9192404265697198,30.15476393699646,10,2.9416666666666664,9,31.213997898328746,9
subject-02,1,331,0.595079898834229,car,car,0.05,0.05_car_10_n03100240_17364.png,True,-1.2100256201645387,0.1092979684472084,1.0,-0.014185371535338007,25.69738994538784,9,4.994780219780219,6,31.690675778027945,9
subject-02,1,332,0.738626003265381,cat,cat,0.6,0.60_cat_10_n02123597_5514.png,True,-0.5038932463386433,2.501882553100586,0.2,-2.7579510233380704,31.012382745742798,10,1.174278499278499,9,34.64137374249853,4
subject-02,1,333,0.79041600227356,car,car,0.03,0.03_car_10_n03100240_8683.png,True,-0.24912774723290945,0.143821433186531,1.0,-0.020405364180529465,25.834103420376778,9,3.851923076923077,8,31.98770413597554,9
subject-02,1,334,1.10830783843994,cat,clock,0.6,0.60_clock_10_n03196217_2346.png,False,1.3146466079234949,2.4029014110565186,1.0,-1.1988314934683264,30.651453733444214,10,4.447557997557997,6,33.446953982761634,6
subject-02,1,335,0.70612096786499,elephant,clock,0.1,0.10_clock_10_n03196217_958.png,False,-0.6637921018285291,0.5754871964454651,1.0,-0.1130464852152545,28.149759113788605,10,5.748946886446886,5,29.572282031110806,5
subject-02,1,336,0.859778165817261,bear,elephant,0.6,0.60_elephant_10_n02504013_1110.png,False,0.09207878979509415,2.545128345489502,0.0625,-4.1968082922377095,31.015724182128906,10,2.3944444444444444,1,37.17668726529492,0
subject-02,1,337,0.707660913467407,elephant,elephant,0.2,0.20_elephant_10_n02504458_5827.png,True,-0.6562167973776932,1.2662769556045532,1.0,-0.45324984817736225,29.372084259986877,10,4.9252747252747255,1,28.049077894066585,10
subject-02,1,338,0.829468011856079,bicycle,truck,0.2,0.20_truck_10_n03417042_6654.png,False,-0.0570229991559474,0.5225085020065308,1.0,-0.11177219424974091,28.435497164726257,10,3.7452380952380953,8,27.77987878691038,9
subject-02,1,339,0.653366804122925,chair,chair,0.0,0.00_chair_10_n04099969_8021.png,True,-0.9233005226247964,0.2114816457033157,1.0,-0.034149545967319686,25.75182469189167,9,5.082575757575757,7,24.52227236908996,9
subject-02,1,340,0.740997076034546,cat,bird,0.9,0.90_bird_10_n01820546_654.png,False,-0.49222945894685466,2.6200780868530273,0.0769230769230769,-3.3834581180681136,30.491122722625732,3,0.13539377289377247,8,45.5027422793887,8
subject-02,1,341,1.27496600151062,bicycle,oven,0.2,0.20_oven_10_n04111531_8144.png,False,2.1344718812941537,2.0193240642547607,0.25,-2.5786729503855197,30.18546986579895,10,0.6734487734487733,8,40.19828147467743,6
subject-02,1,342,1.179034948349,cat,bear,0.6,0.60_bear_10_n02132136_11183.png,False,1.6625675926959036,2.570754051208496,0.1428571428571428,-2.882872721368435,31.047821760177612,10,3.86978021978022,4,27.989787868790824,10
subject-02,1,343,1.23047089576721,bird,bottle,0.9,0.90_bottle_10_n04591713_5279.png,False,1.9155914402906307,2.6178905963897705,0.1428571428571428,-2.7047383055757797,30.626054763793945,3,0.3013028638028635,0,42.401113786246384,0
subject-02,1,344,0.828495025634766,truck,truck,0.03,0.03_truck_10_n03796401_6444.png,True,-0.06180931553059473,0.7662731409072876,1.0,-0.18159493028698317,27.471471667289734,9,3.652380952380952,9,25.338816424880072,9
subject-02,1,345,0.746295928955078,boat,airplane,0.2,0.20_airplane_10_n02690373_2024.png,False,-0.4661633277470063,1.0343225002288818,1.0,-0.2526854229997284,28.530823826789856,9,6.236111111111111,5,25.284536859793768,9
subject-02,1,346,0.555965900421143,cat,airplane,0.6,0.60_airplane_10_n02690373_6674.png,False,-1.4024353038595896,2.603677749633789,0.1,-3.075627424673466,31.06590461730957,3,1.8595238095238094,3,33.865761352139586,3
subject-02,1,347,0.885860204696655,dog,dog,0.0,0.00_dog_10_n02107683_6800.png,True,0.22038162393406752,1.5849356651306152,1.0,-0.6516054210238008,29.323405027389526,9,3.7809884559884557,8,29.751190865686162,9
subject-02,1,348,0.779529094696045,bird,oven,0.1,0.10_oven_10_n04111531_16198.png,False,-0.3026826515739111,1.5758007764816284,0.2,-3.5371355619188902,29.72934925556183,10,0.5081709956709957,9,43.697969097342735,6
subject-02,1,349,0.619449853897095,elephant,bird,0.35,0.35_bird_10_n01824575_2959.png,False,-1.090144873231239,2.2420575618743896,0.0833333333333333,-3.6530023790892034,30.793415307998657,10,0.2896575646575644,6,40.90061092067929,6
subject-02,1,350,0.905300140380859,elephant,elephant,0.6,0.60_elephant_10_n02504013_1132.png,True,0.31601060659513,2.4758992195129395,0.0666666666666666,-3.836525616579576,30.72045373916626,10,2.3426698301698297,1,36.92825452341675,0
subject-02,1,351,0.619117021560669,cat,bird,0.0,0.00_bird_10_n01818515_7370.png,False,-1.0917821429345018,2.493671417236328,0.5,-2.077871477230769,31.08752679824829,10,1.2573926073926072,8,38.61708459207752,6
subject-02,1,352,0.660808086395264,cat,bicycle,0.9,0.90_bicycle_10_n03792782_3754.png,False,-0.8866953473321749,2.6070737838745117,0.5,-2.1452111873650725,30.534366607666016,3,3.927777777777777,4,27.59586540836827,8
subject-02,1,353,0.605059146881104,bear,bear,0.0,0.00_bear_10_n02132136_2263.png,True,-1.1609356769698977,0.1220345199108123,1.0,-0.016045826493029894,26.400240868330002,9,10.25,2,18.151020666877145,9
subject-02,1,354,0.764388084411621,oven,truck,0.9,0.90_truck_10_n03417042_12908.png,False,-0.37716434912071267,2.589561939239502,0.1,-3.0755185626379125,30.433104038238525,3,0.7996503496503494,0,36.26062383138627,0
subject-02,1,355,0.706604957580566,airplane,chair,0.6,0.60_chair_10_n02791124_7167.png,False,-0.6614112583488589,2.4737472534179688,0.0833333333333333,-3.5137773910934382,30.604031324386597,3,1.0799755799755797,0,38.15910596775183,0
subject-02,1,356,0.922502040863037,car,truck,0.6,0.60_truck_10_n04467665_1840.png,False,0.40063024061398994,2.5711851119995117,0.0714285714285714,-3.4762692636940744,31.01104736328125,10,0.5857142857142852,0,37.41287604772737,0
subject-02,1,357,0.721940994262695,airplane,airplane,0.1,0.10_airplane_10_n02690373_2579.png,True,-0.5859701864343875,0.0476707704365253,1.0,-0.00553072248776314,26.550236154347658,9,4.2020202020202015,9,25.7187012690342,9
subject-02,1,358,0.827712059020996,airplane,boat,0.2,0.20_boat_10_n04612504_40672.png,False,-0.06566088695288289,2.1985747814178467,1.0,-1.0841875395895582,30.643083572387695,10,3.427380952380952,9,29.531971305810362,10
subject-02,1,359,0.843571901321411,bear,bottle,0.6,0.60_bottle_10_n02823428_3929.png,False,0.012356890934414567,2.497968912124634,0.2,-2.6964119706786445,30.689918279647827,3,0.418799256299256,10,40.94634230611782,0
subject-02,1,360,0.639331102371216,cat,bicycle,0.9,0.90_bicycle_10_n03792782_37794.png,False,-0.9923449835352639,2.613607883453369,0.5,-2.225478750154023,30.577890872955322,3,3.9916666666666663,4,27.760043178003862,4
subject-02,1,361,0.627115964889526,elephant,elephant,0.2,0.20_elephant_10_n02504013_3939.png,True,-1.0524337199084088,0.1637836396694183,1.0,-0.024191004398472542,26.119275778532028,9,6.199999999999999,1,24.065821453489942,9
subject-02,1,362,0.930999040603638,elephant,boat,0.6,0.60_boat_10_n03344393_382.png,False,0.4424287040484774,2.6159424781799316,0.0769230769230769,-3.4016019778725135,31.065784692764282,3,1.9237484737484731,2,31.605617439314138,0
subject-02,1,363,0.90278697013855,bear,cat,0.9,0.90_cat_10_n02123597_7138.png,False,0.303647812940347,2.59363317489624,0.25,-2.335961776504613,30.435102224349976,3,1.0615440115440113,9,36.13245709568972,9
subject-02,1,364,0.704671144485474,bird,bird,0.0,0.00_bird_10_n01560419_2432.png,True,-0.6709240768038373,0.7857877612113953,1.0,-0.15904787803993004,28.15481835603714,9,4.823784548784548,6,31.543427879027803,9
subject-02,1,365,0.570463895797729,clock,clock,0.1,0.10_clock_10_n02708093_527.png,True,-1.3311167269357853,0.0324218496680259,1.0,-0.003484770649446986,24.454579398268834,9,5.806089743589743,5,26.43555302574508,4
subject-02,1,366,0.748255014419556,elephant,bicycle,0.35,0.35_bicycle_10_n03792782_12504.png,False,-0.4565261893861869,2.113452911376953,0.0909090909090909,-4.092354950465272,30.56326150894165,10,2.2635281385281383,4,32.039058980715204,6
subject-02,1,367,0.84586501121521,knife,knife,0.2,0.20_knife_10_n03041632_10540.png,True,0.023637163144995636,2.043726682662964,0.3333333333333333,-2.1429040072479824,30.32954216003418,10,2.007117882117882,5,31.662800364580512,10
subject-02,1,368,0.63998007774353,cat,cat,0.1,0.10_cat_10_n02123045_3098.png,True,-0.9891525421797659,0.1265460848808288,1.0,-0.01662478917725782,25.08918733894825,9,6.366341991341991,5,22.934349812941047,4
subject-02,1,369,0.633692026138306,keyboard,keyboard,0.0,0.00_keyboard_10_n03085013_19547.png,True,-1.0200847421466848,0.0930674895644187,1.0,-0.012215112129831392,23.905615385621786,9,5.320707070707071,6,23.16795881658373,6
subject-02,1,370,0.623346090316772,elephant,elephant,0.03,0.03_elephant_10_n02504013_104.png,True,-1.0709784968052383,1.3270111083984375,1.0,-0.3714032298108047,29.842610120773315,10,6.226190476190476,1,26.5181091458917,10
subject-02,1,371,0.89134407043457,bear,bird,0.6,0.60_bird_10_n01530575_280.png,False,0.24735787067097303,2.440532684326172,0.0909090909090909,-3.4245294988368484,30.881137132644653,10,0.15530719280719246,10,43.04161106322907,6
subject-02,1,372,0.551112174987793,chair,keyboard,0.0,0.00_keyboard_10_n03085013_23369.png,False,-1.4263117627557238,1.6395432949066162,1.0,-0.6530920434151881,29.37552762031555,9,4.458669108669109,7,30.57549214397871,9
subject-02,1,373,0.642920970916748,car,car,0.35,0.35_car_10_n03100240_319.png,True,-0.9746856927601859,2.410656452178955,0.1,-3.5008134135873923,30.815173864364624,10,0.15037185037185008,8,45.36655194747834,1
subject-02,1,374,0.856882095336914,bottle,bottle,0.05,0.05_bottle_10_n04591713_6662.png,True,0.07783243228397568,0.1610957384109497,1.0,-0.023080071483016922,25.90889599919319,9,3.1467393717393715,8,31.493167182195467,9
subject-02,1,375,0.776407957077026,elephant,bicycle,0.35,0.35_bicycle_10_n03792782_565.png,False,-0.3180361599445423,2.011937379837036,0.0714285714285714,-4.134969204749598,30.50411558151245,10,1.8230158730158728,4,32.41158299935345,6
subject-02,1,376,0.666343927383423,clock,clock,0.03,0.03_clock_10_n02708093_3213.png,True,-0.8594634238077979,0.0502428077161312,1.0,-0.006002823726785458,25.848280798643827,9,4.996703296703297,6,30.332541243968226,9
subject-02,1,377,0.716156959533691,elephant,chair,0.6,0.60_chair_10_n02791124_1635.png,False,-0.6144230252604104,2.610149621963501,0.1428571428571428,-2.7691777695017894,31.094472408294678,3,1.1657980907980905,0,36.19564494462265,6
subject-02,1,378,1.05609512329102,bottle,bottle,0.35,0.35_bottle_10_n03983396_11434.png,True,1.0578016824683047,1.1285443305969238,1.0,-0.48097457848524816,29.143839120864868,10,2.7106282606282606,9,32.86579873460651,9
subject-02,1,379,1.20779800415039,cat,cat,0.1,0.10_cat_10_n02123159_3472.png,True,1.8040588923170902,2.367847442626953,0.0909090909090909,-3.4308569789475496,30.667839527130127,10,0.9461399711399708,4,35.40940575420453,4
subject-02,1,380,0.781553983688354,car,car,0.05,0.05_car_10_n03100240_9305.png,True,-0.29272181232620537,1.5599360466003418,1.0,-0.4781891427638449,29.14776837825775,9,3.3697802197802194,8,35.26919792774301,5
subject-02,1,381,0.645508766174316,keyboard,bottle,0.2,0.20_bottle_10_n02823428_13937.png,False,-0.9619558035343988,1.2079713344573977,0.2,-4.218337289495166,28.755439519882202,10,0.5192210567210567,9,41.227464311855925,0
subject-02,1,382,0.649645090103149,bird,bird,0.03,0.03_bird_10_n01855672_12414.png,True,-0.9416083880029618,0.7947582006454468,1.0,-0.17651471774267916,26.665088057518005,9,3.158308358308358,8,32.37046846431021,9
subject-02,1,383,1.08311796188354,bicycle,bicycle,0.0,0.00_bicycle_10_n03792782_7101.png,True,1.1907325010263392,0.242438793182373,1.0,-0.04088187166205915,25.85422945022583,9,7.516666666666667,4,19.185478222200913,9
subject-02,1,384,0.83685302734375,dog,dog,0.05,0.05_dog_10_n02102480_10015.png,True,-0.020694611578203903,1.6699199676513672,1.0,-0.4821816105599646,29.352877140045166,10,3.5107142857142857,8,29.97866021803029,9
subject-02,1,385,0.684733867645264,elephant,bear,0.0,0.00_bear_10_n02132136_5138.png,False,-0.7689995813853902,0.2530097961425781,1.0,-0.04113741243476257,27.140285968780518,9,10.75,2,18.83527153749308,9
subject-02,1,386,0.626544952392578,keyboard,bottle,0.2,0.20_bottle_10_n04557648_2075.png,False,-1.0552426460826998,1.2459174394607544,0.25,-2.9821210871417136,29.615022778511047,10,0.8606282606282604,7,37.20637967310098,0
subject-02,1,387,0.814608097076416,keyboard,knife,0.6,0.60_knife_10_n03041632_4269.png,False,-0.13012193095765742,2.360795497894287,0.1428571428571428,-2.966572843144798,30.452014446258545,10,3.895238095238095,5,29.498358122057,5
subject-02,1,388,0.70213508605957,clock,clock,0.05,0.05_clock_10_n02708093_2898.png,True,-0.6833994620714581,0.2087651640176773,1.0,-0.03400202960118445,25.395850874483585,9,5.838690476190475,5,27.759710955931464,4
subject-02,1,389,0.601923942565918,elephant,elephant,0.05,0.05_elephant_10_n02504458_8212.png,True,-1.1763583822692483,0.1936378479003906,1.0,-0.02833435010553385,27.5868718624115,10,6.583333333333333,1,23.752460585538934,9
subject-02,1,390,0.514031887054443,cat,cat,0.2,0.20_cat_10_n02123159_1413.png,True,-1.6087172125189555,0.3027395009994507,1.0,-0.04917525749150713,25.82774719595909,9,5.85,6,24.63863052461423,9
subject-02,1,391,0.885544061660767,dog,dog,0.03,0.03_dog_10_n02094114_1589.png,True,0.21882645228183228,2.272958755493164,1.0,-1.3078296148561446,30.585977792739868,9,2.6381313131313133,9,32.406907973840305,9
subject-02,1,392,0.713420867919922,bottle,bottle,0.05,0.05_bottle_10_n03983396_23516.png,True,-0.6278824143110027,0.7801223397254944,1.0,-0.2040571853578297,27.8238587975502,9,3.468253968253968,8,29.59149033471406,9
subject-02,1,393,0.533094167709351,keyboard,keyboard,0.05,0.05_keyboard_10_n03085013_5611.png,True,-1.5149459914696124,0.0932886600494384,1.0,-0.01153914179310376,25.781172528862953,9,5.105866355866356,6,26.366700198175412,9
subject-02,1,394,0.545471906661987,keyboard,knife,0.2,0.20_knife_10_n03041632_46103.png,False,-1.4540573855136485,0.1603403836488723,0.0909090909090909,-6.899480188260076,27.095448449254036,9,1.5170995670995666,1,39.09844778312898,5
subject-02,1,395,0.956718921661377,bicycle,chair,0.0,0.00_chair_10_n04429376_6915.png,False,0.568950010480249,0.9014644026756288,1.0,-0.21565852825312526,29.307644546031952,10,3.849242424242424,8,28.920386020823575,10
subject-02,1,396,1.14891004562378,cat,oven,0.9,0.90_oven_10_n04111531_6211.png,False,1.5143770921112196,2.578785181045532,0.125,-2.920596400686623,30.44113850593567,3,0.6433663558663557,7,42.438446627407274,6
subject-02,1,397,1.47472214698792,cat,keyboard,0.35,0.35_keyboard_10_n03085013_20798.png,False,3.1171128366246386,2.2134313583374023,0.5,-2.2744953495185443,30.708009719848633,10,4.133644133644133,6,32.72525119813517,5
subject-02,1,398,0.780324935913086,boat,bear,0.9,0.90_bear_10_n02133161_10190.png,False,-0.2987677473694073,2.4832770824432373,1.0,-1.572242347069519,30.33965563774109,10,6.392857142857142,8,24.38705990524993,7
subject-02,1,399,0.654384851455688,cat,keyboard,0.0,0.00_keyboard_10_n03085013_23289.png,False,-0.9182925415123877,1.0693577527999878,1.0,-0.3243567880253514,27.849730491638184,9,4.028210678210678,8,29.73279782621006,9
subject-02,1,400,0.969826221466064,cat,dog,0.05,0.05_dog_10_n02091635_8296.png,False,0.6334274740952265,1.3490983247756958,1.0,-0.340387584032399,28.726783633232117,10,3.596067821067821,8,29.892526244173588,9
subject-02,1,401,0.712120771408081,bird,elephant,0.05,0.05_elephant_10_n02504013_13766.png,False,-0.6342778524857063,0.12864950299263,1.0,-0.01699205529071622,27.39551141858101,10,6.993589743589744,1,22.91209116626937,9
subject-02,1,402,0.653874158859253,bottle,bottle,0.1,0.10_bottle_10_n03983396_11859.png,True,-0.9208047418736933,0.4832230806350708,1.0,-0.12185465148695471,28.239374041557312,10,2.763034188034188,9,31.44377785202093,9
subject-02,1,403,0.781548023223877,airplane,airplane,0.35,0.35_airplane_10_n02690373_8524.png,True,-0.2927511330587114,0.9220752120018004,1.0,-0.23871281520123858,29.118248879909515,10,2.3928571428571423,10,29.96763223381381,10
subject-02,1,404,0.669601917266846,elephant,bear,0.35,0.35_bear_10_n02134418_2432.png,False,-0.843436711418778,2.0078163146972656,0.25,-2.8859633470938117,30.348549604415894,10,6.916666666666666,3,24.67709425218097,4
subject-02,1,405,0.673389911651611,bottle,oven,0.35,0.35_oven_10_n04111531_9411.png,False,-0.8248027994951274,1.8451306819915771,0.25,-2.7977506899766236,30.078089952468872,10,0.7873015873015872,9,40.74340781559451,6
subject-02,1,406,0.607445001602173,bicycle,bicycle,0.2,0.20_bicycle_10_n02835271_1075.png,True,-1.1491991741614902,1.601325750350952,1.0,-0.5119616976000981,29.901325941085815,10,3.317857142857143,9,28.147142129807264,10
subject-02,1,407,1.00295996665955,boat,truck,0.03,0.03_truck_10_n04467665_51949.png,False,0.7964190804501046,0.428753137588501,1.0,-0.07459255609829321,28.147133111953735,10,3.3107142857142855,9,26.923049675740767,9
subject-02,1,408,0.738958120346069,truck,truck,0.03,0.03_truck_10_n03796401_9207.png,True,-0.5022594951232848,0.484207272529602,1.0,-0.10227282631844939,27.841749787330627,10,3.935714285714285,8,26.19393495845655,9
subject-02,1,409,0.732475996017456,keyboard,clock,0.35,0.35_clock_10_n04548280_5088.png,False,-0.5341463781406739,1.588648796081543,1.0,-0.5544722088942019,29.66781187057495,10,4.651923076923076,6,32.10838843580877,9
subject-02,1,410,0.806267023086548,keyboard,keyboard,0.05,0.05_keyboard_10_n04505470_4994.png,True,-0.17115336402972586,0.2803167104721069,1.0,-0.05135416826807623,25.52556997537613,9,5.270609945609945,6,24.754713849819495,9
subject-02,1,411,1.10621213912964,elephant,boat,0.35,0.35_boat_10_n03662601_5419.png,False,1.3043374383736013,2.005976676940918,0.0769230769230769,-4.1155046973291345,30.41821813583374,10,1.3654151404151404,5,34.060833298761004,0
subject-02,1,412,1.05999708175659,elephant,elephant,0.35,0.35_elephant_10_n02504458_485.png,True,1.076996206797486,2.2127184867858887,0.1428571428571428,-3.0286604085857696,30.5593159198761,10,3.347023809523809,1,32.96009410494646,0
subject-02,1,413,0.671634912490845,cat,bird,0.9,0.90_bird_10_n02018795_5868.png,False,-0.8334359959748588,2.596181154251098,0.0769230769230769,-3.308600865293512,30.503246307373047,3,0.129899267399267,8,45.52221783362538,8
subject-02,1,414,1.03357601165771,bird,keyboard,0.6,0.60_keyboard_10_n04505470_3309.png,False,0.9470256093934251,2.4556586742401123,0.3333333333333333,-2.4433893632868044,30.70311450958252,10,1.3773559773559771,10,34.40100933783424,5
subject-02,1,415,1.13344812393188,elephant,truck,0.9,0.90_truck_10_n04467665_61522.png,False,1.4383167663261478,2.5608651638031006,0.1111111111111111,-3.094432470202326,30.39615750312805,3,0.9318181818181819,0,35.24572418384985,0
subject-02,1,416,1.02714681625366,bear,dog,0.2,0.20_dog_10_n02096437_4384.png,False,0.915399094480722,1.6051121950149536,1.0,-0.47310750133537327,29.698697209358215,10,2.6297979797979796,9,31.893636002375118,10
subject-02,1,417,0.647467851638794,cat,cat,0.05,0.05_cat_10_n02123045_5381.png,True,-0.9523186651735793,0.1019099056720733,1.0,-0.012818062367224678,25.228069953620434,9,6.142929292929293,5,23.86179994292656,9
subject-02,1,418,0.686926126480103,keyboard,clock,0.05,0.05_clock_10_n03196217_3987.png,False,-0.7582154159688489,0.6101610660552979,1.0,-0.21267996500066755,27.953052520751953,10,2.506089743589743,10,35.03948984363464,10
subject-02,1,419,0.84666895866394,bird,knife,0.05,0.05_knife_10_n03041632_52702.png,False,0.02759194354570852,0.1509007811546325,1.0,-0.02363059280973145,27.602149069309235,10,4.4678571428571425,8,25.158640634774063,9
subject-02,1,420,0.874383926391602,bear,bird,0.9,0.90_bird_10_n01530575_310.png,False,0.1639274855626533,2.5792136192321777,0.0769230769230769,-3.5605798624422342,30.344018697738647,3,0.10682234432234387,8,46.796782861781395,8
subject-02,1,421,0.796586990356445,clock,clock,0.03,0.03_clock_10_n04548280_4872.png,True,-0.21877140645245416,0.1021583452820777,1.0,-0.014247885183768773,26.06468489021063,9,4.866208791208791,6,31.046009151249233,9
subject-02,1,422,0.86232590675354,chair,airplane,0.0,0.00_airplane_10_n02690373_10455.png,False,0.10461164369842675,0.0505268052220344,1.0,-0.006019853510618549,25.636203967034817,9,7.377777777777777,3,22.089113500924423,9
subject-02,1,423,1.13798308372498,dog,dog,0.6,0.60_dog_10_n02109525_50916.png,True,1.4606251524477825,2.5872457027435303,0.1111111111111111,-2.8680752579354607,31.051911115646362,3,0.8678571428571427,7,35.25901298907006,0
subject-02,1,424,0.697781801223755,cat,cat,0.35,0.35_cat_10_n02123159_5950.png,True,-0.7048141522661938,2.2117409706115723,0.1111111111111111,-3.227193996120387,30.563410997390747,10,1.0623737373737372,7,34.65365722629051,4
subject-02,1,425,0.645542144775391,airplane,airplane,0.03,0.03_airplane_10_n02690373_1306.png,True,-0.9617916074323487,0.0385806821286678,1.0,-0.004329623168706538,24.16470843553543,9,7.711111111111111,3,20.250105850756434,8
subject-02,1,426,0.907773017883301,bear,bottle,0.6,0.60_bottle_10_n04591713_5290.png,False,0.32817519209816254,2.406907796859741,0.1666666666666666,-2.9938341631524636,30.5327250957489,10,0.3655885780885778,10,41.06754059390462,0
subject-02,1,427,1.02910709381104,airplane,elephant,0.35,0.35_elephant_10_n02504458_130.png,False,0.9250420969880747,1.9605674743652344,0.0625,-4.80711638707734,30.306713581085205,10,2.6874999999999996,1,36.09313349311064,0
subject-02,1,428,0.829102993011475,truck,truck,0.05,0.05_truck_10_n04467665_3612.png,True,-0.058818600814750946,0.4301549196243286,1.0,-0.0969171299807177,27.60359275341034,9,4.219047619047619,8,25.954289373252426,9
subject-02,1,429,1.24469804763794,bird,oven,0.2,0.20_oven_10_n04111531_6024.png,False,1.9855776831292755,1.4071297645568848,0.25,-3.6225690782605544,29.39423370361328,10,0.6151154401154401,10,41.987791578487794,6
subject-02,1,430,1.1467490196228,bear,dog,0.6,0.60_dog_10_n02096294_5451.png,False,1.503746567333006,2.6013479232788086,0.1428571428571428,-2.7529648266771365,31.09713840484619,10,0.8564213564213562,9,35.18054937983113,0
subject-02,1,431,1.47861385345459,elephant,oven,0.35,0.35_oven_10_n04111531_20493.png,False,3.1362569292939133,2.3822522163391113,0.0666666666666666,-4.164778518193914,30.903157949447632,10,0.28724053724053705,7,43.44457746750713,6
subject-02,1,432,0.708223819732666,dog,dog,0.03,0.03_dog_10_n02102480_6569.png,True,-0.6534477473996114,0.988754153251648,1.0,-0.22168793332662698,27.992945075035095,10,3.211544011544011,9,28.711368567360076,9
subject-02,1,433,0.946040868759155,bird,bicycle,0.9,0.90_bicycle_10_n03792782_30942.png,False,0.5164225046063375,2.582672119140625,0.5,-2.0777368721029204,30.45246148109436,3,3.891666666666666,4,27.522446214177393,8
subject-02,1,434,0.801733016967773,dog,dog,0.03,0.03_dog_10_n02108915_3733.png,True,-0.1934570588341172,1.7428771257400513,1.0,-0.8737808954023469,29.363091468811035,9,3.5218253968253967,8,29.45250977619074,9
subject-02,1,435,0.735605955123901,chair,boat,0.03,0.03_boat_10_n02951358_4397.png,False,-0.5187494750859343,1.1118017435073853,1.0,-0.2644479233406668,29.19238770008087,10,4.3845238095238095,9,26.07841934126088,9
subject-02,1,436,1.16565704345703,elephant,elephant,0.6,0.60_elephant_10_n02504013_5876.png,True,1.5967589678250376,2.506826400756836,0.0909090909090909,-3.486761047113555,30.77099609375,3,2.419913419913419,1,36.12307990199154,0
subject-02,1,437,1.22931098937988,cat,car,0.6,0.60_car_10_n04285008_2363.png,False,1.9098856257445174,2.504436492919922,0.0769230769230769,-3.595215926108911,30.879313230514526,10,0.2510031635031633,5,44.540869800832205,1
subject-02,1,438,0.725208044052124,car,car,0.1,0.10_car_10_n03100240_1438.png,True,-0.5698989065319544,0.2043544948101043,1.0,-0.04204577819485062,26.195002168416977,9,4.0019230769230765,7,32.897374023134155,8
subject-02,1,439,0.846761226654053,bear,clock,0.9,0.90_clock_10_n03196217_12701.png,False,0.02804582848493977,2.596424102783203,0.2,-2.4436392455204867,30.42737054824829,3,1.4630341880341877,6,37.06273116654783,6
subject-02,1,440,0.75656795501709,bird,bird,0.05,0.05_bird_10_n02017213_7721.png,True,-0.415633150171558,1.0925030708312988,0.3333333333333333,-3.0542709857138246,28.607672452926636,10,1.4098956598956596,8,38.378350473590345,6
subject-02,1,441,0.650505065917969,chair,chair,0.05,0.05_chair_10_n03376595_830.png,True,-0.9373779927166657,0.0864711105823516,1.0,-0.010659201398691547,27.922433167696,10,3.4947191697191693,9,29.456381308958754,9
subject-02,1,442,1.28423500061035,bear,bird,0.9,0.90_bird_10_n01843383_4896.png,False,2.180067966003103,2.6084840297698975,0.0769230769230769,-3.3240946256239443,30.548351287841797,3,0.129899267399267,8,45.71347177505856,8
subject-02,1,443,0.984195947647095,clock,clock,0.05,0.05_clock_10_n03196217_3868.png,True,0.7041150688554605,0.0993038415908813,1.0,-0.013479613321835376,25.132220700383186,9,5.116666666666666,6,28.212954781874817,8
subject-02,1,444,0.7499098777771,cat,truck,0.9,0.90_truck_10_n03417042_6554.png,False,-0.44838558121259103,2.6135401725769043,0.0909090909090909,-3.0635231800692275,30.458740711212158,3,0.7814685314685313,0,36.66434678482423,0
subject-02,1,445,0.663760900497437,bicycle,bicycle,0.03,0.03_bicycle_10_n02835271_6167.png,True,-0.8721698564475789,0.1341353952884674,1.0,-0.019038945977337844,25.421726554632187,9,6.709523809523809,4,20.75209288602717,8
subject-02,1,446,0.677737951278687,bird,bird,0.05,0.05_bird_10_n02033041_6728.png,True,-0.8034139115449929,0.7574920654296875,1.0,-0.14534774684233276,26.63827484846115,9,3.3615440115440114,8,31.573061740663732,9
subject-02,1,447,0.58739185333252,airplane,airplane,0.0,0.00_airplane_10_n02690373_1381.png,True,-1.247844673783002,0.0359404608607292,1.0,-0.003954051685902193,23.978277023881674,9,7.882478632478632,3,19.935132146786955,7
subject-02,1,448,0.621118068695068,boat,boat,0.05,0.05_boat_10_n03662601_10811.png,True,-1.0819385866168278,2.653593063354492,1.0,-1.6805840522919655,30.012716054916382,9,5.5773809523809526,7,24.7967041242927,0
subject-02,1,449,0.649194002151489,oven,oven,0.1,0.10_oven_10_n04111531_538.png,True,-0.9438273810391863,0.4206959009170532,1.0,-0.06947328961181015,26.185194611549377,9,3.4944444444444445,8,32.53363589125449,6
subject-02,1,450,0.914763927459717,knife,knife,0.2,0.20_knife_10_n03041632_36789.png,True,0.3625648928424589,2.1823244094848633,0.2,-3.0887510097030684,30.655137538909912,10,1.8420995670995668,5,32.514385982937725,5
subject-02,1,451,0.862679004669189,chair,truck,0.35,0.35_truck_10_n03417042_6847.png,False,0.1063486038922143,2.074514865875244,0.0909090909090909,-3.9693503539765933,30.591192483901978,10,0.7352314352314347,2,36.290048316588695,0
subject-02,1,452,0.678627014160156,bottle,bottle,0.2,0.20_bottle_10_n04560804_21519.png,True,-0.799040431084063,0.3554970622062683,1.0,-0.05591946114606291,26.999605894088745,9,3.157947607947608,8,31.9163228714779,9
subject-02,1,453,0.658444881439209,bird,bird,0.03,0.03_bird_10_n01818515_1617.png,True,-0.8983204313570543,1.1748641729354858,1.0,-0.31913302260152604,29.155388712882996,10,3.465451215451215,8,32.83681075315786,9
subject-02,1,454,0.850260019302368,bear,bird,0.9,0.90_bird_10_n01828970_11546.png,False,0.045257098467290924,2.6022958755493164,0.0769230769230769,-3.341771749087766,30.49231195449829,3,0.129899267399267,8,45.63086204484512,8
subject-02,1,455,0.649977922439575,bicycle,bicycle,0.05,0.05_bicycle_10_n02835271_1530.png,True,-0.939971118299699,0.0855048522353172,1.0,-0.011441044337996741,25.773161880671978,9,5.699999999999999,6,22.199620257856036,8
subject-02,1,456,0.759719848632812,bear,bear,0.03,0.03_bear_10_n02134418_2590.png,True,-0.40012834682118964,0.0893453508615493,1.0,-0.011355495777696881,24.939628824591637,9,10.75,2,15.650212551868046,9
subject-02,1,457,0.889579057693481,bicycle,oven,0.9,0.90_oven_10_n04111531_10220.png,False,0.23867541536062442,2.6042604446411133,0.1428571428571428,-2.858049046063662,30.533382415771484,3,0.6536477411477409,7,42.61583926840333,6
