subject_id,Session,trial,rt,object_response,category,condition,item_id,response_correct,rt_zscore,output_entropy,output_rank_correct,output_logprob_correct,auc_entropy,layer_biggest_change_entropy,auc_rank_correct,layer_biggest_change_rank_correct,auc_logprob_correct,layer_biggest_change_logprob_correct
subject-02,1,1,0.955517053604126,dog,dog,pow,pow_dog_35_n02099601_447.png,True,0.8131948421240952,0.3061040043830871,0.25,-5.783568239229731,26.682485282421112,10,0.9969696969696968,9,42.81861160411625,6
subject-02,1,2,0.785048961639404,boat,boat,0,0_boat_35_n03662601_18676.png,True,-0.007063761273890922,0.0101095577701926,1.0,-0.0010369430029692841,25.079048647545278,10,3.933333333333333,9,26.79594298332123,10
subject-02,1,3,0.818817138671875,car,truck,pow,pow_truck_35_n03796401_142.png,False,0.1554220002120933,0.5283716320991516,0.2,-4.561426412407754,26.255498945713043,10,0.3953768453768452,10,47.98986624539977,6
subject-02,1,4,1.06276321411133,knife,knife,pow,pow_knife_35_n03041632_27963.png,True,1.3292420672883238,1.325080394744873,1.0,-0.3689621960876053,27.47645890712738,10,1.7682650682650682,10,37.0932273276961,10
subject-02,1,5,0.618435859680176,boat,boat,0,0_boat_35_n03344393_7374.png,True,-0.8087729183703714,0.0002803410752676,1.0,-2.0265784573257805e-05,25.581191977427807,10,4.033333333333333,9,24.260327997380617,10
subject-02,1,6,1.12814688682556,bear,bear,0,0_bear_35_n02133161_2044.png,True,1.6438553151253696,0.7168238162994385,0.5,-1.0408978833149614,26.53003227710724,10,2.3285714285714283,8,32.019889794012784,10
subject-02,1,7,0.806092977523804,keyboard,keyboard,0,0_keyboard_35_n03085013_3656.png,True,0.09419586379890735,0.1535329073667526,1.0,-0.03232131292638417,24.695818468928337,10,2.163095238095238,10,38.04099411326003,10
subject-02,1,8,0.755964040756226,chair,chair,0,0_chair_35_n04099969_5364.png,True,-0.14701462426890607,0.0002159033901989,1.0,-1.585496119959798e-05,25.05736006842926,10,2.1678571428571423,9,44.13462681644925,10
subject-02,1,9,0.773604869842529,elephant,elephant,0,0_elephant_35_n02504013_7273.png,True,-0.062130458192195606,0.0004770479281432,1.0,-3.510775204273088e-05,26.079763623245526,10,3.5837662337662337,8,33.44964019500639,10
subject-02,1,10,0.881587028503418,oven,oven,0,0_oven_35_n04111531_13296.png,True,0.45745824391758466,1.527536153793335,1.0,-0.8891180908571182,27.11330556869507,10,1.0178321678321678,10,58.03473448331397,6
subject-02,1,11,1.33939504623413,bottle,knife,pow,pow_knife_35_n03041632_94620.png,False,2.6603395041003264,0.4259617626667022,0.3333333333333333,-5.267566981547159,26.663144499063492,10,1.0977272727272727,10,41.393782755203546,7
subject-02,1,12,0.805028915405273,knife,knife,0,0_knife_35_n03041632_35365.png,True,0.08907580820835373,0.0002776317123789,1.0,-2.044460214741323e-05,24.72299682421726,10,4.43459595959596,7,33.593681883726305,6
subject-02,1,13,0.614991903305054,clock,clock,pow,pow_clock_35_n04548280_8348.png,True,-0.8253445524742231,0.0106621030718088,1.0,-0.0013426611247108592,25.430831218138337,10,8.583333333333332,4,17.510107321750045,10
subject-02,1,14,0.730794191360474,boat,boat,0,0_boat_35_n02951358_18804.png,True,-0.268126940803603,0.0425649732351303,1.0,-0.004969946076678829,26.055096969008446,10,2.117063492063492,10,32.002120424048826,10
subject-02,1,15,0.630782127380371,boat,boat,0,0_boat_35_n03662601_5849.png,True,-0.7493651301783419,0.0335467979311943,1.0,-0.00424342377532906,25.418441526591778,10,2.640018315018315,10,28.784878646377585,10
subject-02,1,16,0.742424964904785,airplane,airplane,pow,pow_airplane_35_n02690373_2147.png,True,-0.21216196839182058,0.009066741913557,1.0,-0.0009579476990918448,25.84620539471507,10,3.566666666666667,10,26.395634929505924,10
subject-02,1,17,0.796146869659424,elephant,elephant,pow,pow_elephant_35_n02504013_18988.png,True,0.04633716806263772,0.0917591527104377,1.0,-0.01664181900190528,26.389236994087696,10,4.107575757575757,8,30.8464507020672,10
subject-02,1,18,0.80012321472168,keyboard,keyboard,0,0_keyboard_35_n03085013_22996.png,True,0.0654705507960442,0.0010919831693172,1.0,-9.721990133023514e-05,22.531643833965063,9,3.8587662337662336,8,31.834686121948025,9
subject-02,1,19,0.697794198989868,chair,chair,0,0_chair_35_n02791124_45.png,True,-0.42691635025894653,0.0753376632928848,1.0,-0.009909633033836482,25.659162417054176,10,2.094780219780219,9,44.74071687298839,10
subject-02,1,20,0.56177806854248,clock,clock,pow,pow_clock_35_n02708093_687.png,True,-1.0813989570300813,0.0074172746390104,1.0,-0.0007131257652597178,25.270947886630893,10,10.083333333333332,2,16.44464524965639,10
subject-02,1,21,0.791522979736328,bicycle,bicycle,0,0_bicycle_35_n03792782_21148.png,True,0.024087928061936093,0.0124808046966791,1.0,-0.0013125804745463734,26.323347518220544,10,2.5817460317460315,10,29.595673848542624,10
subject-02,1,22,0.663166046142578,dog,dog,0,0_dog_35_n02105162_1003.png,True,-0.5935401445737692,0.6778504848480225,1.0,-0.26907343799496886,26.166213512420654,10,2.4519841269841267,10,36.24164239304544,10
subject-02,1,23,0.759355068206787,dog,dog,pow,pow_dog_35_n02102040_312.png,True,-0.1306976736383036,0.7887547016143799,1.0,-0.2037603814932686,26.713799953460693,10,1.7016233766233764,10,37.89585714034069,10
subject-02,1,24,0.814956903457642,truck,truck,pow,pow_truck_35_n03796401_3273.png,True,0.13684731500783978,0.2750632762908935,0.125,-7.143197861068807,26.076804161071777,10,0.2488761238761236,10,50.29490069630947,6
subject-02,1,25,0.570948123931885,clock,clock,0,0_clock_35_n02708093_6734.png,True,-1.0372744716785816,0.0080170007422566,1.0,-0.0008775865235905985,24.051192459650338,10,9.5,3,15.32416208843488,10
subject-02,1,26,0.592457056045532,clock,clock,pow,pow_clock_35_n04548280_5406.png,True,-0.9337777620434825,0.000524618779309,1.0,-4.053197985675233e-05,24.759823539410718,10,10.75,2,16.135126340922767,10
subject-02,1,27,0.648789882659912,oven,oven,0,0_oven_35_n04111531_4418.png,True,-0.6627153881316846,1.8446019887924192,0.5,-1.563279520565781,27.509671092033386,10,0.5700757575757576,10,56.81130657193286,6
subject-02,1,28,0.670161008834839,boat,airplane,pow,pow_airplane_35_n02690373_9264.png,False,-0.5598817733053069,1.777820348739624,0.5,-1.434835528085828,27.726733922958374,10,3.5,4,27.66880933416542,10
subject-02,1,29,0.773829936981201,chair,chair,pow,pow_chair_35_n04099969_20900.png,True,-0.06104747981946841,0.1493526846170425,1.0,-0.02415222943215981,26.520223274827003,10,1.3599567099567094,10,45.986826380258194,10
subject-02,1,30,1.36766409873962,elephant,bear,0,0_bear_35_n02134418_4513.png,False,2.796364570494196,0.0059227831661701,1.0,-0.0005773780306248838,26.272360790520906,10,2.5468253968253967,10,30.32021108647681,10
subject-02,1,31,0.825598001480103,boat,bottle,0,0_bottle_35_n04557648_10171.png,False,0.18805016535904343,1.0324387550354004,0.125,-5.495180067230778,26.812803626060486,10,3.4871794871794872,1,28.67767324756228,1
subject-02,1,32,0.861330986022949,bear,knife,pow,pow_knife_35_n03041632_31037.png,False,0.35999019037218427,1.345307230949402,0.5,-1.050255731589047,27.497661232948303,10,3.3746753246753247,7,33.87132227561274,10
subject-02,1,33,0.677225828170776,cat,cat,0,0_cat_35_n02125311_28447.png,True,-0.5258872657410756,0.0167777836322784,1.0,-0.001958916727052411,26.502823382616043,10,3.1166666666666667,9,32.554078621240365,10
subject-02,1,34,0.75285005569458,truck,truck,pow,pow_truck_35_n03417042_19955.png,True,-0.16199850194494994,0.1635601818561554,1.0,-0.025309408349626365,26.477251559495926,10,1.6869963369963368,10,41.6422422175859,10
subject-02,1,35,0.686697006225586,clock,clock,0,0_clock_35_n03196217_6467.png,True,-0.480313837926914,0.368358165025711,1.0,-0.0824402805996282,24.093297392129898,10,8.833333333333332,10,15.453005637884933,10
subject-02,1,36,1.02299189567566,boat,keyboard,pow,pow_keyboard_35_n03085013_17937.png,False,1.1378703816001288,0.2982096076011657,1.0,-0.05592797059102673,26.186281740665436,10,2.4829115329115328,9,37.62196959634664,10
subject-02,1,37,0.894581079483032,car,keyboard,pow,pow_keyboard_35_n03085013_24087.png,False,0.5199830365997612,1.3461663722991943,0.3333333333333333,-2.308731659601586,26.994194388389587,10,2.0091991341991338,9,38.87366743346994,6
subject-02,1,38,0.904105186462402,bird,bird,pow,pow_bird_35_n01532829_4536.png,True,0.5658111478871672,1.719444990158081,1.0,-1.0697293004008288,28.13997793197632,10,2.092460317460317,10,33.10253691551015,10
subject-02,1,39,0.777953147888184,bottle,bottle,pow,pow_bottle_35_n04557648_2282.png,True,-0.04120740780894102,0.0003831075737252,1.0,-2.8133788085289054e-05,25.580694167525508,10,7.083333333333333,1,19.125031568815682,10
subject-02,1,40,1.20385217666626,bottle,bottle,pow,pow_bottle_35_n04579145_4389.png,True,2.008134134691341,0.0070658465847373,1.0,-0.0007236833692921048,24.852252795360982,10,6.166666666666666,1,20.499985930013487,10
subject-02,1,41,0.691699028015137,bicycle,bicycle,0,0_bicycle_35_n03792782_7878.png,True,-0.45624510248220396,0.0219311863183975,1.0,-0.0027636893406833888,24.239012375473976,10,3.1254329004329002,9,30.42941475749368,9
subject-02,1,42,0.759416818618774,bottle,bottle,pow,pow_bottle_35_n02823428_6327.png,True,-0.13040054291951683,0.00241035153158,1.0,-0.0002326639927261121,25.921481072204188,10,7.25,1,19.298681740583586,10
subject-02,1,43,0.639304876327515,cat,boat,pow,pow_boat_35_n04612504_2479.png,False,-0.7083553548712849,0.0516550205647945,1.0,-0.006778512734018742,26.053552832454443,10,2.0464285714285713,10,31.701119200598168,10
subject-02,1,44,0.707144975662231,dog,dog,pow,pow_dog_35_n02088632_1732.png,True,-0.38192226998528334,0.1166005134582519,1.0,-0.016724002588325557,26.405339002609253,10,2.6305555555555555,10,34.85394912291398,10
subject-02,1,45,0.77680492401123,keyboard,keyboard,pow,pow_keyboard_35_n03085013_22813.png,True,-0.0467324330664152,1.2750773429870603,0.0909090909090909,-5.7785841904452635,27.542283296585083,10,0.6448884448884445,8,43.488232630570835,7
subject-02,1,46,1.05659699440002,clock,chair,pow,pow_chair_35_n04429376_10438.png,False,1.299571442655,0.7095418572425842,1.0,-0.2871790563108512,26.397542417049408,10,1.2297619047619044,10,47.079966137490935,10
subject-02,1,47,0.686486005783081,bottle,bottle,0,0_bottle_35_n02823428_4569.png,True,-0.4813291301513458,0.0010999874211847,1.0,-8.803993573466316e-05,24.39004342118278,10,8.25,1,17.504816013355583,9
subject-02,1,48,0.566390037536621,clock,clock,0,0_clock_35_n02708093_5.png,True,-1.0592070781720029,0.0045017176307737,1.0,-0.00044117167325116594,24.773103373590857,10,10.0,3,16.76971977300552,10
subject-02,1,49,0.63213586807251,airplane,airplane,pow,pow_airplane_35_n02690373_18304.png,True,-0.7428511988220459,0.0310145020484924,1.0,-0.0038368902804342448,25.75296241044998,10,4.4,0,26.01725786697927,10
subject-02,1,50,0.816189050674438,bear,chair,pow,pow_chair_35_n03376595_235.png,False,0.142776162709373,0.1542029231786728,0.1666666666666666,-6.768884541711344,26.82354138791561,10,0.2789682539682534,10,52.768556095575605,7
subject-02,1,51,0.634246826171875,car,car,pow,pow_car_35_n02814533_95669.png,True,-0.7326936876863247,0.8920015692710876,0.5,-1.2401262744161885,26.907531440258026,10,1.61547619047619,9,45.572776734197554,6
subject-02,1,52,0.849509954452515,bear,bear,pow,pow_bear_35_n02134418_2298.png,True,0.3031097341241356,1.344609022140503,1.0,-0.6702223110807947,27.651384830474854,10,2.252380952380952,10,31.247609535281264,10
subject-02,1,53,0.855406999588013,bird,dog,pow,pow_dog_35_n02111129_513.png,False,0.33148514415699704,0.9489874839782716,1.0,-0.350523646225599,27.174031853675842,10,1.8849317349317347,10,37.492968038462536,10
subject-02,1,54,1.09538698196411,car,car,0,0_car_35_n03100240_17108.png,True,1.4862211590824612,0.2141022086143493,1.0,-0.04966948969538412,25.386721432209015,10,3.030891330891331,9,40.48301518637444,6
subject-02,1,55,0.753080129623413,car,truck,0,0_truck_35_n04467665_19132.png,False,-0.16089143189232152,0.0988083928823471,1.0,-0.015370167953821031,25.558976992964745,10,1.7709207459207457,10,41.60712393443474,10
subject-02,1,56,0.647171020507812,bicycle,bicycle,pow,pow_bicycle_35_n03792782_6023.png,True,-0.6705050312999219,1.9123023748397827,0.125,-3.8559617755215676,28.214902758598328,10,1.050396825396825,3,36.304548830431116,6
subject-02,1,57,0.508551836013794,clock,clock,pow,pow_clock_35_n04548280_3999.png,True,-1.3375130171742617,0.0013674558140337,1.0,-0.0001232103908393197,25.353666907642037,10,9.416666666666666,2,17.220601548741833,10
subject-02,1,58,0.828506946563721,truck,truck,0,0_truck_35_n03417042_27966.png,True,0.20204743138196446,0.0065308567136526,1.0,-0.000640657085043523,25.63952157460153,10,2.90054945054945,9,38.741271627040035,10
subject-02,1,59,0.60439920425415,elephant,elephant,0,0_elephant_35_n02504013_4457.png,True,-0.8763145165863802,0.0023057479411363,1.0,-0.0002233039297954194,26.319155694916844,10,5.215909090909091,6,30.407672388091125,10
subject-02,1,60,0.738272905349731,elephant,elephant,0,0_elephant_35_n02504013_5186.png,True,-0.2321408543674946,0.009242701344192,1.0,-0.001022205490154727,26.22214202862233,10,5.224675324675324,6,30.45712926309383,10
subject-02,1,61,0.830052852630615,airplane,airplane,pow,pow_airplane_35_n02690373_4320.png,True,0.2094860243573428,0.4736327528953552,1.0,-0.11463906229012646,26.279131591320038,10,3.783333333333333,10,25.964667573874564,10
subject-02,1,62,0.835620880126953,clock,clock,0,0_clock_35_n02708093_2498.png,True,0.2362782668538035,0.0019526947289705,1.0,-0.00016762230894270497,25.438679980114102,10,8.5,5,17.775921980575916,10
subject-02,1,63,0.97749400138855,keyboard,keyboard,0,0_keyboard_35_n04505470_5131.png,True,0.9189435502185856,0.2642361223697662,1.0,-0.06393267645959373,25.47058466076851,10,2.9023310023310023,9,37.05094893958919,10
subject-02,1,64,0.881392955780029,chair,chair,0,0_chair_35_n02791124_2003.png,True,0.4565244045156768,0.0304404683411121,1.0,-0.0037186657188449726,25.696162719279528,10,2.0313852813852806,9,44.742624834952494,10
subject-02,1,65,0.871083974838257,car,car,pow,pow_car_35_n02814533_46997.png,True,0.4069196355979586,0.3444388806819916,1.0,-0.11068613423782078,26.660896748304367,10,2.4595238095238092,9,43.51759607813814,6
subject-02,1,66,0.813022136688232,truck,truck,0,0_truck_35_n03417042_7036.png,True,0.12753760156008462,0.0098619014024734,1.0,-0.0010314537015581656,25.763178899884224,10,3.390268065268065,8,38.49298758064713,10
subject-02,1,67,0.826752901077271,keyboard,cat,0,0_cat_35_n02125311_27218.png,False,0.19360731285638233,1.783367156982422,0.5,-1.1172660302782906,27.451907992362976,10,3.290909090909091,8,35.17963817361775,6
subject-02,1,68,1.10096406936646,boat,boat,0,0_boat_35_n02951358_5718.png,True,1.5130569960473448,0.012230752967298,1.0,-0.0012530783615920765,25.789063095115125,10,2.8672008547008545,10,28.67390891853461,10
subject-02,1,69,0.822354078292847,keyboard,dog,pow,pow_dog_35_n02097658_6717.png,False,0.17244105122840844,0.3418527841567993,1.0,-0.07550239964144442,26.695171236991882,10,2.9845959595959597,9,34.816999811097666,10
subject-02,1,70,0.906323194503784,bottle,bottle,0,0_bottle_35_n03983396_17636.png,True,0.5764837620836467,0.0004395036667119,1.0,-3.212741961406531e-05,24.10063562678988,10,7.75,1,17.28620332116507,9
subject-02,1,71,0.956161022186279,chair,chair,0,0_chair_35_n04429376_54570.png,True,0.8162934910486007,0.0030979965813457,1.0,-0.0002856066348111098,25.399781689513475,10,1.5321428571428568,10,45.70743734946784,10
subject-02,1,72,0.695947885513306,keyboard,keyboard,0,0_keyboard_35_n04505470_2869.png,True,-0.4358004440284309,0.0045881420373916,1.0,-0.0004579281095939391,23.663370981812477,10,3.2135281385281385,9,35.10863629898322,6
subject-02,1,73,0.715598821640015,chair,chair,0,0_chair_35_n04099969_13105.png,True,-0.34124404208258696,0.0005526013555936,1.0,-4.297587233274031e-05,26.162521547812503,10,2.0790043290043285,9,44.28939166309043,10
subject-02,1,74,0.757611989974976,dog,dog,0,0_dog_35_n02088238_8653.png,True,-0.1390850199126702,0.0094174016267061,1.0,-0.000929429779544818,26.442558394744992,10,2.5483877233877235,10,34.3124206379378,10
subject-02,1,75,0.943243026733398,knife,knife,pow,pow_knife_35_n03041632_29858.png,True,0.7541346624563589,0.8986594676971436,0.3333333333333333,-3.1592829726330236,27.01207184791565,10,1.68023088023088,7,36.88447197873057,0
subject-02,1,76,1.03901505470276,chair,chair,pow,pow_chair_35_n02791124_15457.png,True,1.2149706406228713,0.7557284832000732,1.0,-0.3269488109867236,26.742482662200928,10,1.2511904761904757,10,47.00928464073925,10
subject-02,1,77,0.754873991012573,knife,knife,pow,pow_knife_35_n03041632_37513.png,True,-0.1522597271503778,0.0003254513430874,1.0,-2.5689931881667644e-05,25.40205598875764,10,4.068686868686869,8,30.68159521966733,10
subject-02,1,78,0.968653917312622,oven,chair,pow,pow_chair_35_n03376595_6947.png,False,0.8764068212948986,0.631759524345398,0.3333333333333333,-3.7668090866656168,26.95046842098236,10,0.4532106782106777,10,50.1122768793453,7
subject-02,1,79,0.584660053253174,chair,chair,0,0_chair_35_n04429376_14680.png,True,-0.9712953909876328,0.0042136572301387,1.0,-0.00039931162498185713,25.748966302722692,10,2.8795995670995667,8,45.23951539291148,10
subject-02,1,80,0.644323110580444,truck,truck,0,0_truck_35_n03417042_27326.png,True,-0.6842086082726114,0.1676788330078125,1.0,-0.028935382416063384,25.18066418170929,10,2.423626373626373,9,41.4150962166803,10
subject-02,1,81,1.40345096588135,clock,clock,0,0_clock_35_n03196217_3558.png,True,2.968563867872028,0.3813416361808777,1.0,-0.1006564986394622,25.761377274990082,10,9.75,2,17.49455707933282,10
subject-02,1,82,0.571319103240967,bird,bird,0,0_bird_35_n01795545_14302.png,True,-1.0354893929201465,0.0453664846718311,1.0,-0.005509865250516824,26.105307299643755,10,2.565079365079365,9,34.282184244471345,10
subject-02,1,83,0.535310983657837,truck,truck,0,0_truck_35_n03796401_5873.png,True,-1.2087533131050354,0.0190727636218071,1.0,-0.002326450770423693,25.349467031657696,10,2.2838578088578085,10,40.67407842938648,10
subject-02,1,84,0.627130031585693,truck,truck,0,0_truck_35_n04467665_2098.png,True,-0.766938289832397,0.0036828925367444,1.0,-0.00036055388334171613,25.295249741291627,10,2.2931068931068928,10,41.373614824399255,10
subject-02,1,85,0.584758043289185,boat,boat,0,0_boat_35_n04612504_2089.png,True,-0.9708238823952688,0.0013077328912913,1.0,-0.00010645956218694782,25.958157069515437,10,4.1504329004329,9,23.681444607155694,9
subject-02,1,86,0.628657817840576,airplane,airplane,0,0_airplane_35_n02690373_3493.png,True,-0.7595868857938027,0.0005743477377109,1.0,-4.386998082833577e-05,23.597457942727488,9,6.75,0,20.411551831411384,9
subject-02,1,87,0.758462905883789,chair,chair,pow,pow_chair_35_n04099969_7934.png,True,-0.13499058155222643,0.2766120433807373,0.5,-2.8181441642900418,26.22942352294922,10,0.8566849816849812,10,48.31680264939295,6
subject-02,1,88,0.760398149490356,boat,boat,pow,pow_boat_35_n02951358_28889.png,True,-0.12567857365877222,2.0049257278442383,0.1666666666666666,-2.791169229854928,27.73240089416504,10,1.1255341880341878,10,36.33056293407565,10
subject-02,1,89,0.606158971786499,keyboard,keyboard,pow,pow_keyboard_35_n03085013_24591.png,True,-0.8678468647123363,0.0208347607403993,1.0,-0.003037352017815396,24.34407110698521,10,3.7246753246753244,8,33.57624348009815,9
subject-02,1,90,0.625967979431152,elephant,elephant,0,0_elephant_35_n02504013_2476.png,True,-0.7725298540153098,0.000530703109689,1.0,-4.1604907525385085e-05,25.75500200514216,10,4.61590909090909,7,31.489029230965283,6
subject-02,1,91,0.731698989868164,elephant,elephant,pow,pow_elephant_35_n02504013_213.png,True,-0.2637732300785016,0.0441390983760356,1.0,-0.0067670508805224,26.45471591874957,10,3.692099567099567,8,31.23118533383352,10
subject-02,1,92,0.723632097244263,elephant,elephant,pow,pow_elephant_35_n02504458_6120.png,True,-0.30258951529164196,0.1690948158502578,1.0,-0.03984696301691848,26.66795040667057,10,4.833766233766234,7,30.471808343051855,10
subject-02,1,93,0.819658041000366,bird,bird,0,0_bird_35_n02007558_7112.png,True,0.15946825521273517,0.149508535861969,1.0,-0.021140745229764,26.206546366214752,10,1.9278138528138526,10,33.38478442752788,10
subject-02,1,94,1.2716588973999,cat,cat,pow,pow_cat_35_n02123394_1817.png,True,2.334406608377988,0.0027688513509929,1.0,-0.00025663092265643036,25.994129754137248,10,5.465079365079365,6,27.218670303681687,10
subject-02,1,95,0.845202922821045,keyboard,keyboard,0,0_keyboard_35_n04505470_2102.png,True,0.2823851532943601,0.0011579236015677,1.0,-0.00010556539772774962,21.697020812891424,9,3.4475579975579973,9,33.68226558302228,9
subject-02,1,96,0.700708866119385,truck,truck,0,0_truck_35_n03417042_4574.png,True,-0.4128915508875642,1.0952730178833008,1.0,-0.5767018787345861,25.879505276679993,10,1.8196581196581194,10,42.46279254176673,6
subject-02,1,97,0.816617012023926,elephant,elephant,pow,pow_elephant_35_n02504458_5444.png,True,0.1448354277295503,0.000211405698792,1.0,-1.4901272217253039e-05,26.24385612005426,10,3.691341991341991,9,29.91720037174539,10
subject-02,1,98,0.680346965789795,dog,dog,0,0_dog_35_n02106550_4880.png,True,-0.5108689713794583,0.1216259077191352,1.0,-0.01689808924452006,26.347411163151264,10,3.053185703185703,9,34.22314919946683,10
subject-02,1,99,0.780234098434448,airplane,airplane,0,0_airplane_35_n02690373_6618.png,True,-0.03023192677941462,0.0001781144528649,1.0,-1.2576659133453355e-05,24.118684069195297,9,6.75,0,20.030040146919223,9
subject-02,1,100,0.669837951660156,chair,chair,0,0_chair_35_n03376595_7010.png,True,-0.5614362602703982,0.0030328545253723,1.0,-0.0002755902442997354,25.30915646883659,10,2.241208791208791,9,45.19112522990056,10
subject-02,1,101,0.974011898040771,boat,boat,0,0_boat_35_n03662601_13847.png,True,0.9021883604583357,0.0427223667502403,1.0,-0.0053395474275794025,26.61663856357336,10,4.216666666666667,0,24.06457825622053,10
subject-02,1,102,0.815571069717407,airplane,airplane,pow,pow_airplane_35_n02690373_6231.png,True,0.1398025610757856,0.3378064334392547,1.0,-0.07745955795693242,25.77275750041008,10,4.449999999999999,0,25.966803214580146,10
subject-02,1,103,0.757574081420898,bear,elephant,pow,pow_elephant_35_n02504013_7309.png,False,-0.13926742834621636,1.0474250316619873,0.5,-1.279104488909924,27.4290988445282,10,3.6325757575757573,6,32.56039698058721,6
subject-02,1,104,0.83361291885376,car,chair,pow,pow_chair_35_n02791124_1594.png,False,0.22661635599034755,1.2624067068099976,0.5,-0.936338231618838,27.127259135246277,10,1.1321178821178814,9,45.742446628999005,10
subject-02,1,105,1.0270938873291,elephant,elephant,0,0_elephant_35_n02504458_7841.png,True,1.1576083507767718,0.1497425138950348,1.0,-0.026541129731162766,26.554402738809586,10,3.9873015873015873,8,32.5925336414024,10
subject-02,1,106,0.60093092918396,bottle,bottle,0,0_bottle_35_n03983396_5093.png,True,-0.8930031674211818,0.0273139756172895,1.0,-0.003015649949723925,25.135705856606364,10,5.311111111111112,1,21.5522047128713,10
subject-02,1,107,0.661086082458496,clock,clock,0,0_clock_35_n03196217_412.png,True,-0.6035485167386712,0.1981633752584457,1.0,-0.033544263056775304,25.385302528738976,10,7.861111111111111,10,18.871203783098988,10
subject-02,1,108,1.31655502319336,boat,boat,0,0_boat_35_n02951358_2537.png,True,2.550437849279922,0.0077220294624567,1.0,-0.0008054041878772741,25.591035971418023,10,2.9510281385281383,10,29.23157535031924,10
subject-02,1,109,0.732491016387939,boat,boat,pow,pow_boat_35_n04273569_113.png,True,-0.25996215576261555,0.4930581450462341,0.5,-3.13285055943721,26.248519122600555,10,1.6066849816849815,10,35.5042836052579,6
subject-02,1,110,0.478127002716064,clock,clock,0,0_clock_35_n03196217_4879.png,True,-1.4839112726001344,0.0054378812201321,1.0,-0.0005003869562738407,23.179986268747598,10,10.0,3,14.195256710472156,10
subject-02,1,111,0.545923948287964,oven,oven,pow,pow_oven_35_n04111531_2923.png,True,-1.1576858350504227,1.281604290008545,0.5,-1.4342988901156941,27.514217138290405,10,0.4595238095238094,10,58.90026522514881,6
subject-02,1,112,0.887726068496704,bicycle,boat,0,0_boat_35_n02951358_31965.png,False,0.48699808514569715,1.0876225233078003,0.3333333333333333,-2.2479836086339184,26.316710114479065,10,1.8775183150183148,10,31.441882390556284,10
subject-02,1,113,0.783612966537476,bottle,bottle,pow,pow_bottle_35_n04557648_85.png,True,-0.013973484514281955,0.008620947599411,1.0,-0.0008465653772481796,25.784135669469833,10,5.616666666666666,1,20.150664267497216,10
subject-02,1,114,0.709378004074097,chair,chair,0,0_chair_35_n03376595_6652.png,True,-0.3711773807490954,1.0710604190826416,1.0,-0.6060912997591925,27.19578731060028,10,1.6431318681318678,10,43.91656603798005,10
subject-02,1,115,0.739398956298828,bottle,bottle,pow,pow_bottle_35_n03983396_2998.png,True,-0.2267225208353023,0.1776831746101379,1.0,-0.03480925719715953,25.975785672664642,10,5.016666666666666,10,22.211811774519365,10
subject-02,1,116,0.987080097198486,chair,oven,pow,pow_oven_35_n04111531_3193.png,False,0.9650699394476304,1.636458396911621,1.0,-1.435115815237123,27.76406443119049,10,0.9595238095238094,10,59.318364852898334,7
subject-02,1,117,0.766935110092163,car,car,pow,pow_car_35_n04285008_5699.png,True,-0.094224017489894,0.0911516994237899,1.0,-0.01544522531069098,25.97293983399868,10,2.148015873015873,9,43.95689632162388,10
subject-02,1,118,0.858567953109741,car,keyboard,pow,pow_keyboard_35_n03085013_22966.png,False,0.3466950247349711,0.576288104057312,0.125,-5.367084686236372,26.497979044914246,10,0.8459457209457206,9,44.34652645610132,6
subject-02,1,119,0.56446099281311,clock,clock,pow,pow_clock_35_n04548280_82.png,True,-1.0684892582712957,0.0017902720719575,1.0,-0.00015307644338416088,25.491489874199033,10,9.5,2,16.841798213171213,10
subject-02,1,120,0.856226921081543,knife,knife,0,0_knife_35_n03041632_120.png,True,0.33543044354662144,1.2290654922253452e-05,1.0,-7.152559929891719e-07,24.72394861000612,10,4.501262626262626,7,32.25563404624358,6
subject-02,1,121,0.90250301361084,bear,bird,pow,pow_bird_35_n01824575_10337.png,False,0.5581018103186067,2.0317492485046387,0.1666666666666666,-2.683742848282199,28.202195644378662,10,0.8428932178932176,8,36.47505177706541,6
subject-02,1,122,0.610005140304565,elephant,elephant,pow,pow_elephant_35_n02504013_474.png,True,-0.8493398656563782,0.0018238306511193,1.0,-0.0001694703643874688,26.427175569580868,10,4.265909090909091,8,30.388957420510117,10
subject-02,1,123,0.787714004516602,elephant,elephant,0,0_elephant_35_n02504458_7302.png,True,0.005759895770963021,0.0017277281731367,1.0,-0.00015104957727386827,26.663265137001872,10,5.176623376623376,6,30.55687448384451,10
subject-02,1,124,0.813835859298706,oven,oven,0,0_oven_35_n04111531_4750.png,True,0.13145307315554872,0.504472553730011,1.0,-0.10149319814105648,26.43046122789383,10,1.1644230769230768,10,55.6358495748286,10
subject-02,1,125,1.05529594421387,truck,truck,pow,pow_truck_35_n03796401_9105.png,True,1.2933110475491354,1.1498079299926758,1.0,-0.3837967457469699,27.110331535339355,10,1.803363303363303,10,42.54434652193072,10
subject-02,1,126,0.777091026306152,airplane,airplane,pow,pow_airplane_35_n02690373_5465.png,True,-0.045355765643457044,0.0082278084009885,1.0,-0.000788880534819329,25.96777151338756,10,4.166666666666666,0,25.760450348336427,10
subject-02,1,127,0.961310148239136,knife,knife,pow,pow_knife_35_n03041632_4494.png,True,0.8410700629932831,0.0011660838499665,1.0,-9.447782485813997e-05,26.067629077471793,10,3.199675324675325,7,33.38827666037193,10
subject-02,1,128,1.35678815841675,airplane,airplane,0,0_airplane_35_n02690373_6914.png,True,2.7440317056333434,0.0008330365526489,1.0,-6.777277763243228e-05,24.91611552442191,10,5.783333333333333,8,21.761389055109635,9
subject-02,1,129,1.07065200805664,airplane,boat,pow,pow_boat_35_n04273569_27839.png,False,1.3672013770306635,1.583026885986328,0.3333333333333333,-3.1264107357641806,27.778542041778564,10,1.663034188034188,10,35.22283264214849,3
subject-02,1,130,0.66842794418335,car,car,0,0_car_35_n03100240_17583.png,True,-0.568220936219871,0.3778486251831054,1.0,-0.11965985359436032,26.214147090911865,10,2.666483516483516,9,41.913839319457864,6
subject-02,1,131,0.858186960220337,dog,dog,0,0_dog_35_n02087394_10517.png,True,0.3448617626167341,0.0167355500161647,1.0,-0.001725611967069721,26.016608472913504,10,2.6655483405483404,9,35.37628242086282,10
subject-02,1,132,0.718132019042969,clock,clock,pow,pow_clock_35_n04548280_8841.png,True,-0.32905479927515024,0.0008740138728171,1.0,-7.081282516208753e-05,24.811384887667373,10,10.25,2,15.678974185471887,10
subject-02,1,133,0.831861019134521,elephant,elephant,pow,pow_elephant_35_n02504013_21616.png,True,0.21818656247043386,0.0068703712895512,1.0,-0.0006688685477922537,26.258637052960694,10,4.224242424242425,8,30.18307983070297,10
subject-02,1,134,0.605653047561646,cat,cat,0,0_cat_35_n02123045_3505.png,True,-0.8702812716052641,0.0126138515770435,1.0,-0.0015804136546972408,23.326760698109865,9,5.387301587301587,6,26.628028043065523,9
subject-02,1,135,1.05361008644104,chair,chair,0,0_chair_35_n04099969_17428.png,True,1.2851990347593438,0.0004816238651983,1.0,-3.558460605538139e-05,25.540367740846705,10,2.0377344877344874,9,43.52361827577053,10
subject-02,1,136,0.631472110748291,car,car,0,0_car_35_n02814533_75419.png,True,-0.7460450672433087,0.1553137302398681,1.0,-0.03498374347146709,25.531150579452515,10,3.5115440115440113,8,41.15248068988262,6
subject-02,1,137,0.806989192962646,dog,dog,0,0_dog_35_n02091831_4183.png,True,0.09850827450131834,0.0472673773765563,1.0,-0.006042280499377691,26.241859018802643,10,2.9484487734487734,9,34.908642817755926,10
subject-02,1,138,0.531064987182617,airplane,airplane,0,0_airplane_35_n02690373_10129.png,True,-1.2291842048845805,0.0003352588391862,1.0,-2.4736233519888893e-05,23.8896002000547,10,5.666666666666666,8,21.50550679627828,9
subject-02,1,139,0.565083980560303,cat,cat,0,0_cat_35_n02123394_4286.png,True,-1.065491564957803,0.0844814702868461,1.0,-0.01330195290725863,26.002912513911724,10,4.845634920634921,6,29.430920732588266,10
subject-02,1,140,0.838411092758179,cat,cat,pow,pow_cat_35_n02123045_11501.png,True,0.24970421589619976,1.487283706665039,0.5,-1.1448452810139405,27.389016151428223,10,3.7984126984126982,8,31.456813586970583,6
subject-02,1,141,0.602511882781982,bear,bear,pow,pow_bear_35_n02134418_1826.png,True,-0.8853959326864906,0.0522296652197837,1.0,-0.006782053333123409,26.308833859860897,10,2.659523809523809,10,30.058971128370562,10
subject-02,1,142,0.902131795883179,bicycle,knife,0,0_knife_35_n03041632_29427.png,False,0.5563155843373203,0.7391665577888489,0.5,-1.0867385291919,27.203586637973785,10,0.982153957153957,10,37.697112002370524,10
subject-02,1,143,0.736296892166138,bottle,oven,0,0_oven_35_n04111531_7355.png,False,-0.24164903736871815,0.8333750367164612,0.5,-1.3673280865295874,25.738955080509186,10,0.6242424242424243,10,57.4488770983799,6
subject-02,1,144,0.831817150115967,dog,dog,0,0_dog_35_n02112706_3099.png,True,0.21797547346558355,0.0678250342607498,1.0,-0.01013401705113442,26.273661568760872,10,2.5575757575757576,10,33.30584752260574,10
subject-02,1,145,0.539563894271851,clock,clock,0,0_clock_35_n03196217_6185.png,True,-1.1882891518627687,0.0079265441745519,1.0,-0.0007819013121143106,23.610350927338004,10,9.5,4,15.068246781745808,10
subject-02,1,146,0.933556079864502,dog,bear,0,0_bear_35_n02134418_2714.png,False,0.707522997960721,2.0688467025756836,0.3333333333333333,-1.6734908928200325,27.682796478271484,10,1.1420634920634918,10,35.24228212305916,10
subject-02,1,147,0.639703989028931,car,car,0,0_car_35_n04285008_7508.png,True,-0.706434903816259,0.3935871422290802,1.0,-0.10867421663627577,25.696646958589554,10,3.0280525030525025,9,39.767157629449045,6
subject-02,1,148,0.744923114776611,bottle,bottle,pow,pow_bottle_35_n04591713_1407.png,True,-0.20014136734369672,0.0028157941997051,1.0,-0.0002581810423794423,25.331839870661497,10,7.166666666666666,9,19.499085021720955,10
subject-02,1,149,0.56672191619873,clock,clock,0,0_clock_35_n04548280_16378.png,True,-1.0576101439613736,0.000643239065539,1.0,-5.149973917485155e-05,24.61505244736327,10,10.75,2,15.52748578802727,10
subject-02,1,150,0.688558101654053,car,car,pow,pow_car_35_n04285008_15954.png,True,-0.4713586163405742,0.5834548473358154,0.5,-2.187878902083515,26.99846839904785,10,1.5278138528138525,9,47.68526734075597,6
subject-02,1,151,0.786556959152222,keyboard,keyboard,pow,pow_keyboard_35_n03085013_2277.png,True,0.00019242326795138997,0.4522173106670379,0.3333333333333333,-4.3688771993326165,26.52488061785698,10,1.4524531024531022,9,41.62824922162938,6
subject-02,1,152,0.730211019515991,airplane,airplane,0,0_airplane_35_n02690373_5126.png,True,-0.27093304790073425,0.0012941122986376,1.0,-0.00011319562681159327,24.743362164590508,10,6.083333333333333,0,21.36652230567083,9
subject-02,1,153,0.81407904624939,bear,bear,0,0_bear_35_n02134418_4475.png,True,0.1326232404650643,0.3252192735671997,1.0,-0.0973972312887517,26.458125233650208,10,2.2944444444444443,10,31.04468618710176,10
subject-02,1,154,0.679976940155029,cat,cat,0,0_cat_35_n02123597_7081.png,True,-0.5126494612464857,0.1213351637125015,1.0,-0.019191683960910155,26.070604220032692,10,4.286111111111111,8,29.76055394932182,10
subject-02,1,155,0.815781831741333,bicycle,bicycle,pow,pow_bicycle_35_n03792782_4830.png,True,0.14081670607736543,2.078296184539795,1.0,-1.4945527711606277,28.579541444778442,10,2.0984487734487733,10,33.30478176407103,10
subject-02,1,156,0.903629064559937,car,car,pow,pow_car_35_n02814533_96695.png,True,0.563520143850799,0.5865455269813538,0.5,-1.4901204006206774,26.703929483890533,10,1.571367521367521,9,46.25251842409369,6
subject-02,1,157,1.01840209960938,chair,chair,pow,pow_chair_35_n04099969_24041.png,True,1.1157851944673516,0.2330131083726883,1.0,-0.058766155926274447,26.301184728741646,10,1.3150183150183143,10,45.05540492489794,10
subject-02,1,158,0.839125871658325,bird,bird,0,0_bird_35_n01855672_55167.png,True,0.2531435900078862,0.0200441014021635,1.0,-0.0021521942418520107,26.37192632071674,10,2.0809884559884555,10,32.35672437215529,10
subject-02,1,159,0.707007169723511,elephant,elephant,0,0_elephant_35_n02504013_2778.png,True,-0.38258536479400473,0.0012927681673318,1.0,-0.00010228680155109651,25.67502075736411,10,4.317099567099567,8,29.97002065222318,6
subject-02,1,160,0.948843955993652,boat,boat,0,0_boat_35_n03662601_2120.png,True,0.7810852217064597,1.1887387037277222,1.0,-0.7856050582612912,26.309457778930664,10,2.8472222222222223,10,27.096297255578442,10
subject-02,1,161,0.646301984786987,chair,chair,pow,pow_chair_35_n03376595_3304.png,True,-0.6746866585971546,0.0015387869207188,1.0,-0.00012571409751722384,25.96893766883295,10,1.5947802197802192,10,45.004670855287785,10
subject-02,1,162,0.640234231948853,cat,cat,pow,pow_cat_35_n02124075_3383.png,True,-0.703883480192377,0.0727341100573539,1.0,-0.010799819335831589,25.506025664508343,10,4.923412698412698,6,27.41786198617592,9
subject-02,1,163,1.08996605873108,bird,bird,0,0_bird_35_n01616318_1935.png,True,1.4601367530859823,0.0277856439352035,1.0,-0.003338120624384638,25.98812185227871,10,2.783369408369408,9,33.47902775850587,10
subject-02,1,164,0.531784057617188,cat,cat,0,0_cat_35_n02123159_5224.png,True,-1.2257241807615433,0.7679926156997681,1.0,-0.19789343600838574,26.42777693271637,10,4.724603174603175,7,31.345267433233122,10
subject-02,1,165,0.841536998748779,boat,boat,pow,pow_boat_35_n02951358_14504.png,True,0.264745454714861,2.2245936393737793,0.2,-2.4441807425713606,28.555974006652832,10,1.1422619047619047,10,35.7143428261809,10
subject-02,1,166,1.06369304656982,elephant,elephant,pow,pow_elephant_35_n02504013_6693.png,True,1.3337162364129074,0.001382018206641,1.0,-0.00011403018664983178,26.212318683741614,10,4.017099567099567,8,30.611729850058815,10
subject-02,1,167,0.669204950332642,bird,bird,pow,pow_bird_35_n01820546_6471.png,True,-0.5644821369436887,2.052767276763916,0.5,-1.763506425667249,28.308570623397827,10,1.2484126984126982,10,34.71801103096906,10
subject-02,1,168,0.460899829864502,boat,boat,0,0_boat_35_n03662601_13754.png,True,-1.5668050070278199,0.1683924794197082,1.0,-0.02983149848312419,25.810061991214752,10,3.5095238095238095,9,26.17567214927633,10
subject-02,1,169,0.600607872009277,boat,clock,pow,pow_clock_35_n02708093_384.png,False,-0.894557654386273,1.0996806621551514,1.0,-0.32262445986168725,27.240715265274048,10,8.783333333333333,10,19.458777878624904,10
subject-02,1,170,0.73890209197998,clock,clock,0,0_clock_35_n03196217_3762.png,True,-0.22911333325984032,0.0175818968564271,1.0,-0.002076634770972587,25.16229815967381,10,10.0,2,15.674962252519679,10
subject-02,1,171,0.596359014511108,car,car,0,0_car_35_n04285008_4749.png,True,-0.9150023128400466,0.0184687115252017,1.0,-0.002617264538044568,24.682844255119562,10,3.552380952380952,8,39.01973498716947,6
subject-02,1,172,0.558364868164062,clock,clock,pow,pow_clock_35_n03196217_3647.png,True,-1.0978225993859663,0.1696018427610397,1.0,-0.03421954984963406,25.870774313807487,10,10.083333333333332,2,17.720331934534688,10
subject-02,1,173,0.458463191986084,boat,boat,0,0_boat_35_n02951358_30149.png,True,-1.5785296245800093,0.0259108282625675,1.0,-0.0027877767801220135,26.138312552124262,10,2.8845238095238095,10,28.41955488069195,10
subject-02,1,174,0.721763134002686,car,car,0,0_car_35_n02814533_1297.png,True,-0.31158259523211207,0.5769737958908081,1.0,-0.17267227824947134,26.34669029712677,10,3.518986568986569,8,41.33126345112263,10
subject-02,1,175,0.669592142105103,dog,dog,0,0_dog_35_n02100735_1445.png,True,-0.5626190470312861,0.0070420755073428,1.0,-0.0006513928544384563,26.262781764380634,10,2.7813603063603063,9,36.59606511358284,10
subject-02,1,176,0.78351879119873,bear,bear,pow,pow_bear_35_n02134084_6901.png,True,-0.014426637541009778,0.0918850824236869,1.0,-0.015314423353172135,26.048942558467388,10,2.3607142857142853,10,31.332785083150103,10
subject-02,1,177,0.515375137329102,boat,boat,0,0_boat_35_n04612504_18536.png,True,-1.304680646359573,0.0021733683533966,1.0,-0.0001936742445210206,26.52369445981458,10,3.223448773448774,9,27.842270671391173,10
subject-02,1,178,0.805284976959229,cat,cat,pow,pow_cat_35_n02123159_5170.png,True,0.09030792555190507,1.174858808517456,1.0,-0.5509758860189616,27.29225730895996,10,5.45515873015873,6,28.885371742677787,10
subject-02,1,179,0.927288055419922,dog,knife,pow,pow_knife_35_n03041632_84048.png,False,0.6773625091694251,0.6337925791740417,1.0,-0.13742204072787537,26.72195690870285,10,2.3107864357864356,10,34.09714272920164,10
subject-02,1,180,0.73881983757019,bicycle,bicycle,0,0_bicycle_35_n03792782_13399.png,True,-0.22950912514394062,0.0246685594320297,1.0,-0.0029876711189360276,25.519965514540672,10,2.3087662337662334,10,33.1249248220817,10
subject-02,1,181,1.09447884559631,bottle,bottle,0,0_bottle_35_n03983396_6281.png,True,1.4818513872374124,0.0631212294101715,1.0,-0.009298326185470916,24.818671852350235,10,6.499999999999999,10,21.308890592189847,10
subject-02,1,182,0.618228912353516,car,car,0,0_car_35_n04285008_8616.png,True,-0.8097687078063102,0.0382141396403312,1.0,-0.006032446142921408,24.74858944863081,10,3.591183816183816,8,39.68051413800409,6
subject-02,1,183,0.906524896621704,chair,chair,0,0_chair_35_n04429376_10544.png,True,0.5774543126168323,0.000919084821362,1.0,-8.052911747389731e-05,25.20118425396504,10,2.4337662337662334,9,43.088200838184605,10
subject-02,1,184,0.839830160140991,bird,bird,pow,pow_bird_35_n01537544_9745.png,True,0.2565324863140669,0.4117228984832763,1.0,-0.07508859158251602,26.488856315612793,10,1.7996031746031744,10,33.58836194796701,10
subject-02,1,185,0.627668142318726,airplane,airplane,pow,pow_airplane_35_n02690373_4471.png,True,-0.7643490078543804,0.0031352303922176,1.0,-0.0002745766865639243,25.37675228342414,10,6.116666666666667,0,23.130235229198206,9
subject-02,1,186,0.635619163513184,knife,knife,0,0_knife_35_n03041632_46720.png,True,-0.7260902729475358,0.0009276387281715,1.0,-7.427014534899236e-05,25.681468677241355,10,2.6080086580086577,10,33.521769202457236,10
subject-02,1,187,0.765383005142212,knife,knife,0,0_knife_35_n03041632_32785.png,True,-0.101692438259438,0.000631880480796,1.0,-4.857896543088874e-05,25.844564747530967,10,4.575108225108225,7,32.683652205613456,10
subject-02,1,188,0.55122709274292,bicycle,bicycle,0,0_bicycle_35_n02835271_19875.png,True,-1.1321681571430506,0.000327036017552,1.0,-2.378253606764984e-05,25.315365478629246,10,3.283333333333333,9,29.153842300891192,9
subject-02,1,189,0.547460794448853,clock,clock,pow,pow_clock_35_n02708093_2283.png,True,-1.1502908365434337,0.0288763064891099,1.0,-0.0035841843241849825,25.343543531373143,10,10.583333333333332,2,16.97208409111859,10
subject-02,1,190,0.832817077636719,truck,truck,0,0_truck_35_n03417042_27231.png,True,0.22278692610882042,0.0140986200422048,1.0,-0.001750868595764208,25.248118018731475,10,2.1605311355311354,10,41.32342983239917,10
subject-02,1,191,0.952679872512817,clock,clock,0,0_clock_35_n02708093_353.png,True,0.7995428901797639,0.2273736745119094,1.0,-0.04484690021300188,23.88330753147602,10,9.5,3,15.498060774225175,10
subject-02,1,192,0.908535003662109,knife,knife,0,0_knife_35_n03041632_10802.png,True,0.587126548485961,8.230914318119176e-06,1.0,-4.768372718899988e-07,24.55004835676118,10,4.619119769119769,7,30.28485693499033,9
subject-02,1,193,0.968169927597046,bird,cat,pow,pow_cat_35_n02123159_4952.png,False,0.8740779589043963,1.6221157312393188,1.0,-0.6677485400234499,27.807705760002136,10,4.256746031746031,6,29.895466894918187,10
subject-02,1,194,0.628216981887817,bear,bear,pow,pow_bear_35_n02132136_30306.png,True,-0.7617081008480105,0.2647828757762909,1.0,-0.0478146260242705,26.530963867902756,10,2.442857142857142,10,30.417558918440445,10
subject-02,1,195,0.793767929077148,cat,clock,pow,pow_clock_35_n04548280_2943.png,False,0.03489017844074192,0.0047886995598673,1.0,-0.0004395020081441333,25.57938069384545,10,10.083333333333332,2,17.169052858715386,10
subject-02,1,196,0.943619012832642,dog,cat,0,0_cat_35_n02125311_33516.png,False,0.7559438328946999,0.7932980060577393,1.0,-0.23247558352170075,26.686097621917725,10,4.262301587301587,8,31.03507221677698,10
subject-02,1,197,0.493592023849487,clock,clock,0,0_clock_35_n04548280_7135.png,True,-1.409496662275012,0.1752501875162124,1.0,-0.03628276192899638,25.333658829331398,10,7.5,10,18.20397422608719,10
subject-02,1,198,0.729446887969971,boat,chair,pow,pow_chair_35_n04429376_353.png,False,-0.27460989714288087,0.8533141613006592,0.5,-0.888972141807578,26.67109715938568,10,1.109462759462759,9,46.19517882970895,10
subject-02,1,199,0.579038143157959,clock,clock,0,0_clock_35_n02708093_8079.png,True,-0.9983469058487511,0.0017768809339031,1.0,-0.0001589186098645804,24.5453571745893,10,10.75,2,15.161981762459115,10
subject-02,1,200,0.826848030090332,bear,bear,pow,pow_bear_35_n02134084_17218.png,True,0.1940650547745136,0.0007201991975307,1.0,-5.602993573628958e-05,26.36617463454604,10,2.602380952380952,10,29.478981882943188,10
subject-02,1,201,1.00873517990112,car,knife,0,0_knife_35_n03041632_7982.png,False,1.069269896691279,0.3290606439113617,1.0,-0.07285727713730522,26.03042623400688,10,2.4123737373737373,10,34.16027244074406,10
subject-02,1,202,0.758625984191895,truck,truck,0,0_truck_35_n04467665_64402.png,True,-0.1342058811211379,0.0052247336134314,1.0,-0.0005549539920545978,25.28778841998428,10,2.1966422466422464,10,40.504061145453896,10
subject-02,1,203,0.770795822143555,bear,bear,0,0_bear_35_n02134084_21207.png,True,-0.07564703783993128,0.0001217123717651,1.0,-8.344685085342429e-06,25.35495507685846,10,3.2523809523809524,9,28.014798064787378,9
subject-02,1,204,0.600519180297852,boat,boat,0,0_boat_35_n04273569_19796.png,True,-0.8949844212873861,0.0193229354918003,1.0,-0.002193948525069495,25.82605904713273,10,3.922222222222222,9,26.226651697920857,10
subject-02,1,205,0.967861175537109,bicycle,truck,pow,pow_truck_35_n04467665_45611.png,False,0.8725923053104525,0.3662627637386322,0.3333333333333333,-4.30931451374371,26.732284635305405,10,0.6247668997668996,10,46.101247150044614,6
subject-02,1,206,0.958277225494385,chair,chair,0,0_chair_35_n02791124_2008.png,True,0.82647624108708,0.0001425315858796,1.0,-9.894419982437818e-06,24.685926156234927,10,2.15503663003663,9,44.21570761814413,7
subject-02,1,207,0.529515981674194,boat,boat,0,0_boat_35_n03662601_6230.png,True,-1.236637711757044,0.2153407335281372,1.0,-0.03569064100014885,25.5906640291214,10,2.5004329004329002,10,29.157492129077344,10
subject-02,1,208,0.597564935684204,chair,chair,0,0_chair_35_n03376595_6240.png,True,-0.9091996596522787,0.0093707330524921,1.0,-0.0009975638992590706,25.464925456792116,10,1.574542124542124,10,45.3174571978742,10
subject-02,1,209,1.03519701957703,bear,oven,pow,pow_oven_35_n04111531_6211.png,False,1.1965990138635136,1.4543089866638184,0.5,-1.503242900059069,27.612258672714233,10,0.4595238095238094,10,59.145731824281285,10
subject-02,1,210,0.713438034057617,cat,cat,0,0_cat_35_n02123394_5586.png,True,-0.351641322794477,0.009789758361876,1.0,-0.0010556187866808538,25.491156392730772,10,5.3579365079365076,6,28.976469410044125,10
subject-02,1,211,0.490741014480591,clock,clock,pow,pow_clock_35_n04548280_4947.png,True,-1.4232151531447825,0.0182513799518346,1.0,-0.0023566216796651654,25.469120463356376,10,9.5,10,17.449529972559116,10
subject-02,1,212,0.732631206512451,car,car,0,0_car_35_n02814533_93487.png,True,-0.2592875887253653,0.3799096345901489,1.0,-0.12270733025754064,25.637629747390747,10,3.4257076257076253,8,41.797626174524524,6
subject-02,1,213,1.02639102935791,oven,oven,pow,pow_oven_35_n04111531_8805.png,True,1.1542263378077124,0.0620306059718132,0.3333333333333333,-6.556293917557691,25.65579956024885,10,0.3371794871794871,10,62.7749622617305,7
subject-02,1,214,0.622207164764404,chair,chair,0,0_chair_35_n04099969_8029.png,True,-0.7906261472900877,0.0608775950968265,1.0,-0.008169252067344904,25.629689011722803,10,2.118253968253968,9,45.116879678407,10
subject-02,1,215,0.616069078445435,clock,clock,0,0_clock_35_n03196217_1519.png,True,-0.8201613996267871,0.753628134727478,0.5,-1.5084745330265639,25.23733651638031,10,9.583333333333332,2,17.162572438080538,10
subject-02,1,216,0.820000886917114,knife,keyboard,pow,pow_keyboard_35_n03085013_24793.png,False,0.16111796167457937,1.6179865598678589,0.2,-3.3958711491935505,27.436285138130188,10,1.8861471861471857,9,40.57936409785439,6
subject-02,1,217,0.567754983901978,bicycle,bicycle,pow,pow_bicycle_35_n03792782_14931.png,True,-1.05263922734164,0.0029466291889548,1.0,-0.00027976372815343494,26.133498086594045,10,3.010353535353535,9,30.429370889918303,10
subject-02,1,218,0.825643062591553,car,car,pow,pow_car_35_n02814533_3754.png,True,0.18826699047815817,1.4368524551391602,0.5,-1.3954440394039302,27.709916472434998,10,1.0761294261294259,9,46.53927656433697,6
subject-02,1,219,0.579507112503052,bicycle,bicycle,pow,pow_bicycle_35_n03792782_56250.png,True,-0.996090318497952,0.1241493672132492,1.0,-0.021232005733727057,26.340278193354607,10,2.0103174603174603,10,33.56169745721596,10
subject-02,1,220,0.627336978912354,bear,bear,0,0_bear_35_n02134084_23292.png,True,-0.765942500396454,0.0233879834413528,1.0,-0.0034831557074293472,26.453773573040962,10,3.0940476190476187,9,29.24880104897499,10
subject-02,1,221,0.663455009460449,cat,cat,0,0_cat_35_n02123159_2246.png,True,-0.5921497104765826,0.0229130089282989,1.0,-0.002863091127899498,25.440380841493607,10,5.353968253968254,6,26.173237726332832,9
subject-02,1,222,0.771017074584961,dog,dog,pow,pow_dog_35_n02110958_8916.png,True,-0.07458241503284511,0.1211978644132614,1.0,-0.017865331129957043,26.087592527270317,10,2.849242424242424,9,35.70250038182711,10
subject-02,1,223,0.744726896286011,truck,truck,0,0_truck_35_n03796401_20861.png,True,-0.20108553175127247,0.0217614024877548,1.0,-0.0025700545807745556,25.12167476117611,10,2.232789432789432,9,42.24413371111506,10
subject-02,1,224,0.464547157287598,boat,boat,0,0_boat_35_n04612504_434.png,True,-1.549254791830814,0.0039397692307829,1.0,-0.00035137150004214106,25.279255053959787,10,3.892857142857143,9,25.46926574507884,10
subject-02,1,225,0.580263137817383,car,car,pow,pow_car_35_n04285008_11745.png,True,-0.9924524748327865,1.070063233375549,0.5,-2.870706242077324,27.507062911987305,10,0.7785103785103782,10,47.67987490259045,6
subject-02,1,226,0.804110050201416,clock,clock,0,0_clock_35_n02708093_2295.png,True,0.08465441133495699,0.0273857191205024,1.0,-0.0029944864030356554,23.777463920414448,10,8.833333333333332,10,16.322675258688903,10
subject-02,1,227,0.665776014328003,boat,bird,pow,pow_bird_35_n01860187_486.png,False,-0.5809814960078373,0.4469140768051147,1.0,-0.08782454147768069,26.360660076141357,10,1.8154761904761902,10,34.19350340900508,10
subject-02,1,228,0.749704122543335,boat,elephant,0,0_elephant_35_n02504458_568.png,False,-0.17713610748322087,0.0113292597234249,1.0,-0.0011507334607986305,26.224865522235632,10,4.011111111111111,8,31.873208686410134,10
subject-02,1,229,0.723584175109863,oven,oven,0,0_oven_35_n04111531_3976.png,True,-0.3028201070849906,0.0048754229210317,1.0,-0.0004881619630859183,26.042540790047497,10,1.9970238095238093,9,52.80254220652048,6
subject-02,1,230,0.439278125762939,clock,clock,pow,pow_clock_35_n03196217_3104.png,True,-1.6708443530721393,0.0087028220295906,1.0,-0.0008552750634811915,25.185470290482044,10,9.416666666666666,2,16.502846061699422,10
subject-02,1,231,0.897014141082764,elephant,elephant,pow,pow_elephant_35_n02504013_1854.png,True,0.5316904458091659,0.0284172855317592,1.0,-0.0036486110986468194,26.530997928231955,10,4.790151515151515,6,31.024090146040884,10
subject-02,1,232,0.878976106643677,chair,chair,pow,pow_chair_35_n03376595_14619.png,True,0.444895006460245,0.6375421285629272,0.3333333333333333,-3.585119746962072,27.023767352104187,10,0.38003663003662946,10,50.68321763420725,7
subject-02,1,233,0.659178972244263,keyboard,keyboard,0,0_keyboard_35_n03085013_24522.png,True,-0.6127251523355339,0.0089855212718248,1.0,-0.0010056782543885294,24.292989851906896,10,2.9996392496392494,9,36.81185583461412,10
subject-02,1,234,0.840452909469604,bottle,bottle,pow,pow_bottle_35_n03937543_11347.png,True,0.25952903240470354,0.0391614139080047,1.0,-0.005020444412296056,25.598042100667953,10,6.116666666666666,10,20.362053289996094,10
subject-02,1,235,0.838458061218262,dog,dog,0,0_dog_35_n02091032_250.png,True,0.24993021879813532,0.8324496746063232,0.125,-5.002233787100392,26.04712176322937,10,0.9091380841380841,9,43.597521710493176,6
subject-02,1,236,0.548450946807861,bicycle,bicycle,0,0_bicycle_35_n02835271_3027.png,True,-1.1455264200371515,0.0581205897033214,1.0,-0.00850853778971523,25.80198858305812,10,3.234523809523809,9,30.862046796834992,10
subject-02,1,237,0.7779381275177,bicycle,bicycle,pow,pow_bicycle_35_n03792782_30246.png,True,-0.041279682848649496,0.7276120185852051,0.5,-2.5806654641063735,26.425512075424194,10,1.3197802197802195,10,37.92911607133343,6
subject-02,1,238,0.559777975082397,car,car,pow,pow_car_35_n04285008_10287.png,True,-1.0910230095394076,1.1927177906036377,0.5,-0.9940444712601837,27.444299697875977,10,1.0602564102564098,9,45.761987993545034,6
subject-02,1,239,0.691589117050171,keyboard,keyboard,pow,pow_keyboard_35_n03085013_20882.png,True,-0.45677397221719124,0.9894908666610718,1.0,-0.7325689103146358,27.08470857143402,10,2.7087662337662337,9,35.710873029097264,10
subject-02,1,240,0.825402975082397,bottle,bottle,pow,pow_bottle_35_n04557648_4620.png,True,0.18711173706572304,0.0068363971076905,1.0,-0.0006537785966227593,25.80959199136123,10,5.666666666666666,1,20.467450254729542,10
subject-02,1,241,0.803151845932007,knife,knife,pow,pow_knife_35_n03041632_32292.png,True,0.08004372269090197,1.1242780685424805,1.0,-0.3658444727483153,27.210692405700684,10,4.509595959595959,7,31.14643315608788,10
subject-02,1,242,0.410981893539429,clock,clock,0,0_clock_35_n02708093_7535.png,True,-1.8070002028712016,0.0002766002435237,1.0,-2.098105506162291e-05,23.021957968594506,10,10.5,2,13.477702711282955,10
subject-02,1,243,0.607042789459229,keyboard,keyboard,pow,pow_keyboard_35_n03085013_22713.png,True,-0.8635941095982476,0.0493140816688537,1.0,-0.008258735388365631,26.047326147556305,10,3.053210678210678,9,36.07809946989855,10
subject-02,1,244,0.596589088439941,car,car,0,0_car_35_n03100240_24505.png,True,-0.9138952427874182,0.4241465032100677,1.0,-0.14652333738947093,26.193561047315598,10,3.522557997557997,8,39.491119832308534,10
subject-02,1,245,0.828236103057861,bird,bird,0,0_bird_35_n01833805_7528.png,True,0.20074418622156137,0.0079158339649438,1.0,-0.0007812451483822435,25.92552183009684,10,1.7310245310245307,10,34.31004816066257,10
subject-02,1,246,0.73053503036499,cat,bear,pow,pow_bear_35_n02133161_8982.png,False,-0.26937397204423474,2.046147584915161,0.1666666666666666,-2.858052486960624,28.46012568473816,10,1.6678571428571423,9,32.79364203598642,0
subject-02,1,247,0.752340078353882,cat,cat,pow,pow_cat_35_n02123597_5514.png,True,-0.16445241162637084,0.0373679772019386,1.0,-0.00463167897960045,25.830992497503757,10,5.405555555555555,6,28.015387770312387,9
subject-02,1,248,1.3178699016571,elephant,elephant,pow,pow_elephant_35_n02504458_3463.png,True,2.55676478331124,0.0012856923276558,1.0,-0.00010335979548004553,26.235382934683003,10,4.182575757575758,8,30.789350097787846,10
subject-02,1,249,0.695480108261108,keyboard,keyboard,0,0_keyboard_35_n04505470_751.png,True,-0.43805129526497033,0.0003460961743257,1.0,-2.557071953670479e-05,21.943068297521677,9,3.878968253968254,8,32.45037302559434,9
subject-02,1,250,0.835665941238403,truck,truck,0,0_truck_35_n04467665_68137.png,True,0.23649509197291824,0.0225993394851684,1.0,-0.002975834156945877,25.154282808303833,10,1.84023199023199,10,42.12631672843447,10
subject-02,1,251,0.911547899246216,dog,dog,pow,pow_dog_35_n02111500_3896.png,True,0.6016240036725599,2.212197542190552,0.125,-3.4896708370553187,28.49049460887909,10,0.8520202020202019,9,41.549420508205564,6
subject-02,1,252,0.83093786239624,truck,truck,pow,pow_truck_35_n03796401_2934.png,True,0.21374451558569169,0.1452542394399643,1.0,-0.023102396386239777,25.84970460832119,10,1.4143772893772892,10,43.07030996306721,10
subject-02,1,253,0.947211980819702,keyboard,keyboard,0,0_keyboard_35_n03085013_23465.png,True,0.77323248128134,0.0011727069504559,1.0,-0.00010145225151324291,22.392318651545793,9,3.6356893106893104,8,33.634850202923104,9
subject-02,1,254,1.07277607917786,bottle,chair,pow,pow_chair_35_n02791124_16085.png,False,1.3774219854232916,0.966034173965454,0.5,-1.0893279315405338,27.182427048683167,10,1.0873015873015868,9,45.36855757822684,10
subject-02,1,255,0.596562147140503,oven,clock,pow,pow_clock_35_n03196217_2859.png,False,-0.914024878969744,1.5187222957611084,1.0,-0.7181466953821058,28.057304859161377,10,8.416666666666666,10,21.12488515100805,10
subject-02,1,256,0.772578954696655,elephant,elephant,pow,pow_elephant_35_n02504458_3616.png,True,-0.06706695812635059,0.0001052057486958,1.0,-6.973767755493553e-06,25.99266821501078,10,4.358008658008658,8,29.548648782340365,10
subject-02,1,257,0.652097940444946,cat,cat,0,0_cat_35_n02124075_13663.png,True,-0.6467976710537382,0.02442367374897,1.0,-0.002891305582142367,25.30195327103138,10,4.934523809523809,7,29.261006845287753,9
subject-02,1,258,0.643786907196045,bird,bird,0,0_bird_35_n02056570_5891.png,True,-0.6867887124678024,0.0021728496067225,1.0,-0.00018568570699912366,26.078737638425082,10,2.082936507936508,10,33.61050098359183,10
subject-02,1,259,0.747648000717163,dog,dog,0,0_dog_35_n02106030_22.png,True,-0.1870297573628768,0.5370701551437378,1.0,-0.1709317280179924,26.624558091163635,10,2.6194444444444445,10,32.90030929454262,10
subject-02,1,260,0.713878154754639,cat,cat,pow,pow_cat_35_n02123394_530.png,True,-0.3495235494088246,0.7317720651626587,0.3333333333333333,-2.641171340225152,27.32824993133545,10,2.6734126984126982,9,33.31849682308339,0
subject-02,1,261,0.745397090911865,boat,knife,pow,pow_knife_35_n03041632_13509.png,False,-0.1978606883129964,0.0459856875240802,1.0,-0.006460989975253481,26.31065272167325,10,3.489321789321789,8,31.94708959233239,10
subject-02,1,262,0.487250089645386,truck,truck,pow,pow_truck_35_n03417042_27931.png,True,-1.44001279015057,1.6000285148620603,1.0,-0.9617459766370413,27.58823823928833,10,1.4895104895104891,10,42.49194685093626,10
subject-02,1,263,1.07296299934387,keyboard,keyboard,0,0_keyboard_35_n03085013_24449.png,True,1.3783214081395974,0.0469621643424034,1.0,-0.006916845462379487,24.608556769788265,10,3.0551948051948052,9,37.80901105881929,10
subject-02,1,264,0.786722898483276,dog,dog,0,0_dog_35_n02100583_5392.png,True,0.0009908903732636027,0.0405672416090965,1.0,-0.004904475755810328,25.70564778894186,10,2.7770202020202017,10,34.02291916052654,10
subject-02,1,265,0.722525835037231,knife,cat,pow,pow_cat_35_n02123159_463.png,False,-0.30791262932708185,1.2732664346694946,1.0,-0.389430701868291,27.387692093849182,10,4.340079365079365,8,30.980737247255973,10
subject-02,1,266,1.19872903823853,bicycle,chair,0,0_chair_35_n04429376_6480.png,False,1.983482610037601,0.6677603721618652,1.0,-0.26123947218324584,26.068883538246155,10,2.1492063492063487,9,45.06938345231623,10
subject-02,1,267,0.582303047180176,oven,oven,pow,pow_oven_35_n04111531_7883.png,True,-0.9826368361070987,1.5823979377746582,1.0,-0.817718533140014,27.531904816627502,10,1.0595238095238093,10,56.6721881722528,6
subject-02,1,268,1.23402500152588,bird,dog,0,0_dog_35_n02094258_654.png,False,2.15331977556216,0.2674208283424377,1.0,-0.04702026344406181,26.299244940280914,10,2.9594988344988344,9,35.78546664598518,10
subject-02,1,269,0.716048955917358,bicycle,bicycle,pow,pow_bicycle_35_n02835271_20149.png,True,-0.33907808533713735,0.0071519562043249,1.0,-0.0007440234743402032,26.072998876217753,10,2.7888888888888888,9,32.32631146753361,10
subject-02,1,270,0.559664964675903,bicycle,bicycle,pow,pow_bicycle_35_n02835271_3329.png,True,-1.0915667931714752,0.958635151386261,0.5,-1.225843501355632,27.021080672740936,10,1.332972582972583,10,35.37917822252462,10
subject-02,1,271,1.06355309486389,bird,bird,0,0_bird_35_n01817953_689.png,True,1.3330428165985233,1.6982065439224243,0.5,-1.5064855575527791,27.51374912261963,10,1.1980158730158728,10,37.510415892404225,10
subject-02,1,272,0.739464998245239,airplane,airplane,pow,pow_airplane_35_n02690373_1071.png,True,-0.22640474010517012,0.8458611965179443,1.0,-0.35740572542085414,26.65929412841797,10,3.928210678210678,10,27.030126183681574,10
subject-02,1,273,0.64728307723999,airplane,airplane,pow,pow_airplane_35_n02690373_911.png,True,-0.6699658365592619,0.0115070044994354,0.5,-8.168495747160037,25.573921412229538,10,3.9,0,34.213197015684486,6
subject-02,1,274,0.690787076950073,knife,knife,0,0_knife_35_n03041632_30196.png,True,-0.460633229892884,0.0027381163090467,1.0,-0.00024560129400345756,25.166282771155238,10,3.3405844155844155,9,33.35953909865522,10
subject-02,1,275,0.880612850189209,keyboard,keyboard,pow,pow_keyboard_35_n04505470_1904.png,True,0.45277069134241393,0.170293241739273,1.0,-0.026547434154440917,26.234515577554703,10,2.5710678210678206,9,37.104241561366855,10
subject-02,1,276,1.19054198265076,knife,knife,0,0_knife_35_n03041632_37274.png,True,1.944088124506809,0.0024135378189384,1.0,-0.0002133477806705773,26.133384492713958,10,3.842929292929293,8,32.041576111744895,10
subject-02,1,277,0.552350044250488,airplane,airplane,0,0_airplane_35_n02690373_5714.png,True,-1.1267647375079441,0.0035571765620261,1.0,-0.0003498212358562545,24.743194432230666,10,7.916666666666666,0,18.3920048529371,9
subject-02,1,278,0.698169946670532,keyboard,keyboard,0,0_keyboard_35_n03085013_21166.png,True,-0.42510832704346274,0.0019945793319493,1.0,-0.0001961185112891315,21.83388605643995,9,3.7686868686868684,8,34.99223503872374,9
subject-02,1,279,0.535923004150391,bicycle,bicycle,0,0_bicycle_35_n03792782_12751.png,True,-1.2058083920427574,0.0067338575609028,1.0,-0.0006961264675691118,25.826870881486684,10,2.9285464535464536,9,30.77268143685768,10
subject-02,1,280,0.513822078704834,clock,clock,pow,pow_clock_35_n02708093_2546.png,True,-1.31215365602053,0.0012025755131617,1.0,-9.972354293645234e-05,24.888517133542337,10,9.583333333333332,2,16.524378576498332,10
subject-02,1,281,0.521545886993408,airplane,airplane,pow,pow_airplane_35_n02690373_4578.png,True,-1.2749882244920854,0.275524377822876,1.0,-0.04986939370328583,26.096787571907043,10,5.083333333333334,0,25.681012668257285,10
subject-02,1,282,0.787457942962646,car,car,pow,pow_car_35_n02814533_65623.png,True,0.0045277784274116795,0.1602319180965423,1.0,-0.028190141373445336,26.11623987555504,10,2.0916666666666663,9,43.991085865485445,6
subject-02,1,283,0.553193092346191,bicycle,bicycle,0,0_bicycle_35_n02835271_4534.png,True,-1.1227081575016296,0.0012279008515179,1.0,-9.87101634359333e-05,24.430383131373674,9,3.774242424242424,9,28.714190554116882,9
subject-02,1,284,0.795127868652344,chair,chair,0,0_chair_35_n02791124_359.png,True,0.04143393759120367,0.0173536539077758,1.0,-0.001929295291976519,25.784379363059998,10,2.4523809523809517,9,44.032860351762736,10
subject-02,1,285,0.650943994522095,bear,bear,pow,pow_bear_35_n02132136_3603.png,True,-0.6523502296596646,0.3341358304023742,1.0,-0.09957091469488584,26.48846822977066,10,2.742857142857143,10,29.619288002406353,10
subject-02,1,286,0.876751899719238,cat,cat,0,0_cat_35_n02123597_5697.png,True,0.4341925644695993,0.012552136555314,1.0,-0.001375070456846702,25.686260337010026,10,4.795634920634921,6,29.380075351111103,6
subject-02,1,287,0.616505861282349,bear,bear,pow,pow_bear_35_n02134418_1974.png,True,-0.8180596873610724,0.1610341668128967,1.0,-0.028073906614413086,26.61941510438919,10,2.8428571428571425,10,29.29740215005081,10
subject-02,1,288,1.212327003479,airplane,bear,pow,pow_bear_35_n02133161_1309.png,False,2.04891331820503,1.8739545345306396,0.125,-3.3703312053329317,28.29899764060974,10,1.1706349206349205,6,34.67717327316297,0
subject-02,1,289,0.696245908737183,cat,cat,pow,pow_cat_35_n02123597_111.png,True,-0.43436641546285004,1.1564044952392578,0.25,-3.6724885236586515,26.47565531730652,10,1.9567460317460315,5,35.87511055333268,6
subject-02,1,290,0.963792085647583,dog,dog,pow,pow_dog_35_n02094258_794.png,True,0.8530126528874393,0.0957763046026229,1.0,-0.01322705624046342,26.424780949950218,10,2.8388888888888886,9,35.22811621447914,10
subject-02,1,291,0.589698076248169,car,car,0,0_car_35_n02814533_4449.png,True,-0.9470534248922028,0.0751360729336738,1.0,-0.013434968718395205,25.31074882298708,10,3.542002442002442,8,39.95941101589875,6
subject-02,1,292,0.795484066009521,bottle,bottle,pow,pow_bottle_35_n03983396_6889.png,True,0.043147888532782695,0.0007492626318708,1.0,-6.091780241209771e-05,25.86622551328037,10,7.416666666666666,1,18.952892649481516,10
subject-02,1,293,0.677248001098633,dog,dog,0,0_dog_35_n02106166_5135.png,True,-0.5257805740157937,0.1414428800344467,1.0,-0.022077855324354204,25.919904693961143,10,2.159931734931735,10,35.97168673539853,10
subject-02,1,294,0.741143941879272,truck,truck,pow,pow_truck_35_n04467665_21942.png,True,-0.2183259967781149,1.9278507232666016,1.0,-0.9415780869336325,28.29298448562622,10,1.4374542124542122,10,43.265165656071595,10
subject-02,1,295,0.613234043121338,clock,clock,0,0_clock_35_n04548280_280.png,True,-0.8338030265654464,0.0012594871222972,1.0,-0.00010556539772774962,23.785893242806196,10,9.5,3,15.32147899892877,10
subject-02,1,296,0.626654148101807,airplane,airplane,0,0_airplane_35_n02690373_2643.png,True,-0.7692281466459133,0.0001509654102846,1.0,-1.02520514534671e-05,25.341302679735236,10,7.583333333333333,0,20.727593993991352,10
subject-02,1,297,0.782653093338013,keyboard,keyboard,pow,pow_keyboard_35_n03085013_8364.png,True,-0.018592203718305295,0.4726118743419647,1.0,-0.16086130349806105,26.561044543981552,10,2.9337662337662334,9,34.76851893039915,10
subject-02,1,298,0.686312913894653,car,car,0,0_car_35_n02814533_93476.png,True,-0.4821620139422368,0.6603666543960571,1.0,-0.4378952696648748,25.339989185333252,10,3.669780219780219,8,40.872310555981265,6
subject-02,1,299,0.862055063247681,clock,clock,0,0_clock_35_n04548280_2601.png,True,0.36347430617512216,9.612590656615794e-05,1.0,-6.1989022697956e-06,24.2489257887064,10,10.25,2,16.024176527158186,10
subject-02,1,300,0.814099073410034,elephant,elephant,0,0_elephant_35_n02504458_7777.png,True,0.13271960718466866,0.0007310903165489,1.0,-5.638758370754788e-05,26.042482236633077,10,5.25,6,30.056468322402903,10
subject-02,1,301,1.02390599250793,elephant,bear,pow,pow_bear_35_n02134418_4452.png,False,1.1422688340164517,1.807439208030701,0.25,-2.286085985648331,28.14063823223114,10,1.207539682539682,10,33.882841246673046,0
subject-02,1,302,0.749545812606812,car,car,pow,pow_car_35_n02814533_24730.png,True,-0.17789786345725528,1.1019381284713743,0.5,-1.2804134773560691,27.29679834842682,10,1.5840659340659338,9,46.564849788366764,6
subject-02,1,303,0.657542943954468,airplane,airplane,pow,pow_airplane_35_n02690373_3269.png,True,-0.6205973955491472,0.0177161581814289,1.0,-0.0020400815661661747,25.91516088321805,10,4.116666666666667,10,26.269439501215132,10
subject-02,1,304,0.687570810317993,keyboard,keyboard,pow,pow_keyboard_35_n03085013_20732.png,True,-0.47610926617263205,1.6307024955749512,0.5,-1.6902501861107133,27.606862664222717,10,1.467099567099567,9,39.23757232598673,6
subject-02,1,305,0.865201950073242,bird,bird,0,0_bird_35_n01824575_3046.png,True,0.37861650060480084,2.145040512084961,1.0,-1.3058283850001615,27.83389413356781,10,2.067460317460317,10,35.367120618616795,6
subject-02,1,306,0.809278011322021,chair,chair,0,0_chair_35_n04099969_39507.png,True,0.10952161388497927,0.1118040382862091,1.0,-0.015503519709224272,25.773455172777176,10,1.2928571428571423,10,46.21762034992442,10
subject-02,1,307,0.525070190429688,airplane,airplane,0,0_airplane_35_n02690373_3032.png,True,-1.2580299762869487,0.0001864126970758,1.0,-1.3232318686768462e-05,23.499335139160394,9,6.75,0,19.66134317556654,9
subject-02,1,308,0.620595932006836,airplane,keyboard,pow,pow_keyboard_35_n03085013_19416.png,False,-0.7983790793270419,1.4676640033721924,0.1666666666666666,-4.377598945175236,27.679053902626038,10,1.0599567099567095,9,42.887688096815694,7
subject-02,1,309,0.772307157516479,cat,cat,pow,pow_cat_35_n02123597_6405.png,True,-0.0683747921781614,1.826789617538452,0.2,-2.8846609683458806,27.849026679992676,10,3.141269841269841,9,32.58434037604427,6
subject-02,1,310,0.816451072692871,bottle,bottle,0,0_bottle_35_n03937543_1680.png,True,0.14403696062423327,0.0081661967560648,1.0,-0.0008190647425992081,24.16815150063485,10,7.75,1,17.580016545152816,10
subject-02,1,311,0.851980924606323,dog,dog,0,0_dog_35_n02085936_1706.png,True,0.3149995517670769,0.0101485773921012,1.0,-0.001112662637127474,25.93745570629835,10,3.240909090909091,9,33.50729564678909,10
subject-02,1,312,1.19576096534729,bicycle,truck,pow,pow_truck_35_n04467665_42823.png,False,1.9692008327472457,1.6772245168685913,1.0,-0.9086146397247465,27.3966304063797,10,1.2446442446442445,10,43.320806519789066,10
subject-02,1,313,0.707921028137207,bear,bear,0,0_bear_35_n02134084_19791.png,True,-0.37818805960050866,0.0007276971591636,1.0,-6.348096155939567e-05,25.995408578659408,10,4.126190476190476,9,26.741459176589224,9
subject-02,1,314,0.731412887573242,bird,bird,pow,pow_bird_35_n01829413_943.png,True,-0.2651498975014598,0.0565585047006607,1.0,-0.006901360847964082,26.34284533560276,10,2.0757936507936505,10,32.52142203609854,10
subject-02,1,315,0.477308034896851,airplane,airplane,0,0_airplane_35_n02690373_1797.png,True,-1.4878519830983465,0.0001608874590601,1.0,-1.1444157280882109e-05,23.466979935386917,9,6.083333333333334,0,20.620547356714066,9
subject-02,1,316,0.69539213180542,car,car,0,0_car_35_n04285008_1313.png,True,-0.4384746204975271,0.0332022905349731,1.0,-0.004778458951566272,24.879581689834595,10,3.042002442002442,9,41.239185940284926,6
subject-02,1,317,0.654762983322144,bottle,bottle,0,0_bottle_35_n02823428_3028.png,True,-0.6339740140088843,0.0046090260148048,1.0,-0.0004612675041271267,25.262177504599094,10,7.75,1,19.707563717123993,10
subject-02,1,318,0.796562910079956,bottle,bottle,0,0_bottle_35_n02823428_1149.png,True,0.048339071940187515,0.4391716122627258,1.0,-0.08779994299743592,26.174364984035492,10,6.866666666666666,10,21.182109378138723,10
subject-02,1,319,0.750498056411743,cat,cat,pow,pow_cat_35_n02123159_7465.png,True,-0.17331585538451402,1.6594419479370115,0.5,-1.0920777111177498,27.531522035598755,10,3.8734126984126984,8,30.522814589504545,6
subject-02,1,320,0.784387826919556,bird,bird,0,0_bird_35_n02013706_1016.png,True,-0.010245010243772277,0.3207473754882812,1.0,-0.05627458715537999,26.16580379009247,10,2.1384920634920634,10,33.23926189713336,10
subject-02,1,321,0.774829149246216,airplane,airplane,0,0_airplane_35_n02690373_1206.png,True,-0.0562394688447868,0.0404633320868015,1.0,-0.005481337090224138,25.914665702730417,10,6.449999999999999,0,22.332869974924904,10
subject-02,1,322,0.730699062347412,bear,bear,pow,pow_bear_35_n02133161_10441.png,True,-0.2685846827217385,1.0365417003631592,1.0,-0.2886791590380827,27.681156516075134,10,2.3690476190476186,10,30.51778667010174,10
subject-02,1,323,0.674376964569092,airplane,airplane,pow,pow_airplane_35_n02690373_8791.png,True,-0.5395954316051734,0.0301414486020803,1.0,-0.0037250073699115743,26.26284501515329,10,4.283333333333333,0,25.92550161984705,10
subject-02,1,324,0.872323989868164,truck,truck,pow,pow_truck_35_n03417042_11165.png,True,0.4128863416536263,1.0910427570343018,1.0,-0.43853456349240827,27.129590153694153,10,1.3990093240093238,10,42.34008920342269,10
subject-02,1,325,0.995939016342163,car,boat,pow,pow_boat_35_n04273569_23162.png,False,1.0076972989766617,0.0650915503501892,0.0666666666666666,-10.259645075180476,25.992562234401703,10,1.0422619047619046,3,43.99570012232857,7
subject-02,1,326,0.839684009552002,car,airplane,pow,pow_airplane_35_n02690373_5149.png,False,0.2558292387055071,0.7191497683525085,1.0,-0.17580158212022998,26.856353223323822,10,5.583333333333333,0,25.396981219434995,10
subject-02,1,327,0.589574098587036,cat,cat,pow,pow_cat_35_n02124075_10456.png,True,-0.9476499807754849,0.0062609612941741,1.0,-0.0006673177913241906,25.15265855193138,10,4.973015873015873,6,27.397970745585834,9
subject-02,1,328,0.811694860458374,airplane,keyboard,pow,pow_keyboard_35_n03085013_24665.png,False,0.12115101194041589,1.0246479511260986,0.25,-3.474349405066639,27.39264464378357,10,1.2349567099567098,9,40.62240343245868,6
subject-02,1,329,0.633543968200684,truck,truck,pow,pow_truck_35_n04467665_3433.png,True,-0.7360757006553884,0.0529962703585624,1.0,-0.0066563397395469895,26.09247063845396,10,1.5589549339549338,10,41.335843674863426,10
subject-02,1,330,0.583328008651733,elephant,elephant,pow,pow_elephant_35_n02504013_7026.png,True,-0.9777049250643562,0.004157343879342,1.0,-0.000452561248885429,26.462336698547006,10,5.358008658008658,6,29.89630840449548,10
subject-02,1,331,1.05489897727966,boat,bottle,pow,pow_bottle_35_n03983396_2256.png,False,1.2914009214997528,0.5475804209709167,0.5,-1.553301099141559,26.0620396733284,10,4.394444444444445,1,24.1519457948006,10
subject-02,1,332,0.672724008560181,knife,knife,0,0_knife_35_n03041632_48675.png,True,-0.5475491276413105,0.0044766436330974,1.0,-0.0004050359726000373,25.50513122184202,10,3.717929292929293,8,31.759645001737965,10
subject-02,1,333,0.716506958007812,chair,chair,0,0_chair_35_n04099969_1163.png,True,-0.33687427023755323,9.902592864818872e-05,1.0,-6.735347542021472e-06,25.490551911556395,10,3.183150183150183,8,42.074881735591376,10
subject-02,1,334,0.628574132919312,keyboard,keyboard,pow,pow_keyboard_35_n03085013_4636.png,True,-0.7599895610150147,0.0025159255601465,1.0,-0.00022491361590871428,25.476318849716336,10,3.6028138528138527,8,34.58192918736392,9
subject-02,1,335,0.864443063735962,knife,oven,pow,pow_oven_35_n04111531_5967.png,False,0.37496489026540736,0.1043825298547744,0.3333333333333333,-6.053461242695674,26.27872444689274,10,0.2880952380952379,10,63.060270984968234,6
subject-02,1,336,0.535875082015991,clock,clock,pow,pow_clock_35_n04548280_1106.png,True,-1.2060389838361056,0.000467401347123,1.0,-3.457129154982886e-05,24.205337982974015,10,10.25,2,15.479421225476232,10
subject-02,1,337,0.577878952026367,clock,clock,0,0_clock_35_n04548280_11806.png,True,-1.0039247033574354,0.0140603380277752,1.0,-0.0014732598358251307,24.82710333634168,10,7.833333333333333,10,17.59463562032072,10
subject-02,1,338,0.849556922912598,bear,bear,0,0_bear_35_n02132136_24633.png,True,0.30333573702607114,0.0095367049798369,1.0,-0.0009610501159580015,26.125348172150552,10,2.5011904761904757,10,30.971045097780628,10
subject-02,1,339,0.817348003387451,bear,bear,0,0_bear_35_n02133161_1360.png,True,0.14835281299520486,1.3183435201644895,1.0,-0.5730031993550229,27.509592175483704,10,2.394047619047619,10,32.022439225506965,10
subject-02,1,340,0.757093191146851,truck,truck,pow,pow_truck_35_n03417042_26102.png,True,-0.14158137683963334,1.5913734436035156,1.0,-0.884812029220198,28.114282369613647,10,1.3366355866355863,10,42.09681526904774,10
subject-02,1,341,0.871417999267578,elephant,elephant,0,0_elephant_35_n02504458_6079.png,True,0.4085268948142605,0.0100364303216338,1.0,-0.0010725645280285042,26.23415060993284,10,3.9317460317460315,8,33.10890450285291,10
subject-02,1,342,0.602789163589478,bear,bear,0,0_bear_35_n02134084_3840.png,True,-0.88406171250907,0.0017268094234168,1.0,-0.00016291276373494394,26.546380463521928,10,3.2095238095238092,10,27.453860164794648,10
subject-02,1,343,0.732538938522339,airplane,airplane,pow,pow_airplane_35_n02690373_2433.png,True,-0.2597315639692675,0.0017245491035282,1.0,-0.00015504369971405468,25.55719978408888,10,4.316666666666666,10,26.483552869586436,10
subject-02,1,344,0.926578998565674,bird,bird,0,0_bird_35_n01829413_6608.png,True,0.6739506684061957,1.0017856359481812,1.0,-0.268870014726998,26.509885907173157,10,2.902417027417027,9,34.188589142021186,10
subject-02,1,345,0.768418073654175,keyboard,keyboard,pow,pow_keyboard_35_n04505470_4844.png,True,-0.08708829134756207,0.0030305201653391,1.0,-0.00029437105880979246,24.946481447899714,10,2.9675324675324672,9,36.142411333395145,10
subject-02,1,346,0.49610710144043,cat,cat,0,0_cat_35_n02123159_5270.png,True,-1.3973946084043591,0.0016340224537998,1.0,-0.0001368020167288341,24.70800211117603,9,5.5246031746031745,6,25.70790369582246,9
subject-02,1,347,0.613857984542847,clock,clock,pow,pow_clock_35_n04548280_2362.png,True,-0.8308007443605452,0.0117177385836839,1.0,-0.0012640594279659297,25.38118046708405,10,9.083333333333332,2,17.04042091732066,10
subject-02,1,348,0.887794017791748,boat,boat,pow,pow_boat_35_n02951358_5064.png,True,0.48732504365865015,1.508129000663757,0.3333333333333333,-2.722848672897849,27.972458243370056,10,1.2700396825396825,10,35.3802806094814,10
subject-02,1,349,1.08542394638062,bear,bird,pow,pow_bird_35_n01532829_3914.png,False,1.4382810105236958,0.2145913243293762,0.0833333333333333,-6.930569560005045,26.66811639070511,10,0.7341269841269837,8,40.23646927173034,0
subject-02,1,350,1.26160621643066,car,car,pow,pow_car_35_n03100240_4065.png,True,2.2860351040266598,0.920702874660492,1.0,-0.4040959436745796,26.85671991109848,10,2.0777777777777775,9,45.300678348342956,6
subject-02,1,351,0.669039011001587,knife,knife,0,0_knife_35_n03041632_3247.png,True,-0.5652806040490057,2.7520374715095383e-05,1.0,-1.6689314462652265e-06,24.944923026279866,10,3.843290043290043,8,33.47631089864672,10
subject-02,1,352,0.712867021560669,bird,bird,pow,pow_bird_35_n02009229_1091.png,True,-0.3543889215261289,1.3775568008422852,1.0,-0.5423284273962646,27.573615550994873,10,1.8785714285714283,10,33.07473202222754,10
subject-02,1,353,1.24482011795044,dog,dog,pow,pow_dog_35_n02110185_8777.png,True,2.2052637318760526,1.34245765209198,1.0,-0.6162728613194618,27.542983651161194,10,1.7484848484848483,10,37.53476875662428,10
subject-02,1,354,0.952644109725952,truck,truck,pow,pow_truck_35_n03417042_24155.png,True,0.7993708067518953,0.8747750520706177,1.0,-0.29901634801403887,27.02794110774994,10,1.4350233100233099,10,41.9922039759077,10
subject-02,1,355,0.654302835464478,bird,bird,0,0_bird_35_n02028035_8994.png,True,-0.6361881541141411,0.00519076641649,1.0,-0.0004708683255281589,26.857993519864976,10,2.93015873015873,9,30.803619384902415,10
subject-02,1,356,0.648091793060303,keyboard,keyboard,0,0_keyboard_35_n03085013_20138.png,True,-0.6660744566436996,0.0006489194929599,1.0,-5.453973723402376e-05,22.356221977621317,9,3.724242424242424,8,33.49735426187452,9
subject-02,1,357,0.82190203666687,clock,clock,0,0_clock_35_n03196217_9786.png,True,0.17026591670013327,0.002716253278777,1.0,-0.000239579764292354,23.90565330791287,10,10.25,3,14.63189435169646,10
subject-02,1,358,0.937899112701416,bottle,bottle,pow,pow_bottle_35_n03937543_5625.png,True,0.7284208094412177,0.3066734671592712,1.0,-0.06218666702861727,25.618662774562836,10,5.583333333333332,1,19.993302741141303,10
subject-02,1,359,0.693742036819458,chair,chair,0,0_chair_35_n03376595_2056.png,True,-0.4464145498594357,1.3070886135101318,0.5,-1.5315946857326033,27.009737014770508,10,1.147619047619047,9,46.3276704661216,7
subject-02,1,360,0.779809951782227,bicycle,bicycle,0,0_bicycle_35_n03792782_70690.png,True,-0.032272836233946084,0.0044153723865747,1.0,-0.00043264448426419573,25.71049008704722,10,3.1801587301587295,9,29.86039870479002,9
subject-02,1,361,0.631235837936401,cat,cat,0,0_cat_35_n02123597_14032.png,True,-0.7471819650901027,0.0098822806030511,1.0,-0.0010284703982120008,25.04684884287417,10,3.9174603174603173,8,32.34432308766428,10
subject-02,1,362,0.798993825912476,elephant,elephant,pow,pow_elephant_35_n02504013_1763.png,True,0.06003615614391954,0.0014595757238566,1.0,-0.00012273349503969717,26.33923814399168,10,4.140151515151515,8,30.758429781866983,10
subject-02,1,363,0.914918899536133,elephant,elephant,pow,pow_elephant_35_n02504458_4716.png,True,0.617844587583558,0.0007448291871696,1.0,-5.746052838812967e-05,26.432545671472326,10,4.058008658008658,8,30.609244773757247,10
subject-02,1,364,0.778640985488892,boat,boat,pow,pow_boat_35_n02951358_537.png,True,-0.03789766987958041,0.7978776097297668,1.0,-0.17988752594562166,27.06139498949051,10,1.9033730158730158,10,33.18901924418468,10
subject-02,1,365,0.812561988830566,car,car,0,0_car_35_n03100240_5719.png,True,0.12532346145482778,0.0802244246006012,1.0,-0.015166754523251893,25.403378397226334,10,3.4967032967032967,8,40.84660484457527,6
subject-02,1,366,0.50448203086853,boat,boat,0,0_boat_35_n03344393_10748.png,True,-1.357096111265835,0.0182145237922668,1.0,-0.001897465171417288,25.26075404882431,10,3.4944444444444445,9,27.602859378138927,10
subject-02,1,367,0.686306953430176,bear,bear,pow,pow_bear_35_n02132136_18276.png,True,-0.48219069451354574,0.0060616638511419,1.0,-0.0005869203272125274,26.60398088954389,10,3.3761904761904757,9,28.855366047922715,10
subject-02,1,368,1.10987091064453,bird,bird,pow,pow_bird_35_n01860187_2052.png,True,1.5559149473696905,0.689946174621582,1.0,-0.1834163779607799,26.923684239387512,10,2.517857142857143,9,33.0170548557556,10
subject-02,1,369,0.763703107833862,elephant,elephant,0,0_elephant_35_n02504013_5087.png,True,-0.10977577047790626,0.0061563225463032,1.0,-0.0005838787102889684,25.93419444281608,10,5.252020202020201,6,31.070733126367422,10
subject-02,1,370,1.02145290374756,elephant,elephant,0,0_elephant_35_n02504458_13382.png,True,1.1304650580874716,0.012288149446249,1.0,-0.0013041652165377577,25.731440123170614,10,3.4226551226551223,8,34.4829668440993,10
subject-02,1,371,0.835307836532593,bicycle,bicycle,0,0_bicycle_35_n02835271_22263.png,True,0.23477196324851896,0.0172395296394824,1.0,-0.0019561695409176408,24.982241589576006,10,3.5595238095238093,9,28.530644146673,9
subject-02,1,372,0.753193140029907,knife,knife,0,0_knife_35_n03041632_31483.png,True,-0.1603476482602538,0.6734296083450317,0.5,-1.66235370281577,26.776935935020447,10,2.2818181818181817,8,34.115002214084804,6
subject-02,1,373,0.65700101852417,boat,boat,pow,pow_boat_35_n04273569_15625.png,True,-0.6232050330928,0.9634791612625122,0.2,-5.2721419794612645,27.23778474330902,10,1.055753968253968,10,38.3583403421628,3
subject-02,1,374,0.796740055084229,chair,chair,pow,pow_chair_35_n04099969_24378.png,True,0.049191458519570914,0.4565711617469787,0.5,-1.9685590999824472,26.83857947587967,10,1.026623376623376,9,47.25719358909129,7
subject-02,1,375,0.846534967422485,car,car,pow,pow_car_35_n02814533_39666.png,True,0.2887946873710781,0.6976296901702881,1.0,-0.41184526348276945,26.43146276473999,10,2.3130702630702626,9,44.42768134000679,6
subject-02,1,376,0.632314205169678,cat,cat,pow,pow_cat_35_n02123045_5228.png,True,-0.7419930761284023,0.0229994021356105,1.0,-0.0027020687802917576,25.35515772923827,10,4.4412698412698415,8,27.49277948137074,9
subject-02,1,377,0.68233585357666,bicycle,bicycle,0,0_bicycle_35_n02835271_15617.png,True,-0.5012988383441991,0.2245113849639892,1.0,-0.04339316209493901,25.24207901954651,10,3.052380952380952,9,30.503775056046358,9
subject-02,1,378,1.03445100784302,dog,dog,pow,pow_dog_35_n02094258_6800.png,True,1.1930093535581463,0.0484169125556945,1.0,-0.005877867564710254,25.830099403858185,10,3.103943278943279,9,34.57693631120693,10
subject-02,1,379,0.686249017715454,bottle,bottle,0,0_bottle_35_n03983396_13698.png,True,-0.48246946966669624,0.0011664587073028,1.0,-9.721990133023514e-05,25.027482863049954,10,7.75,1,19.119633745574745,9
subject-02,1,380,0.755691051483154,bear,bear,0,0_bear_35_n02133161_14945.png,True,-0.14832819443498188,0.0284965299069881,1.0,-0.003913241099079785,26.374463345855474,10,4.154761904761904,8,29.21498473238906,10
subject-02,1,381,0.979617118835449,keyboard,keyboard,pow,pow_keyboard_35_n03085013_24374.png,True,0.9291595697197815,0.005232558120042,1.0,-0.0005384344767965482,25.72479210840538,10,2.7516233766233764,9,36.18100369823217,10
subject-02,1,382,1.48364090919495,bear,bear,0,0_bear_35_n02132136_891.png,True,3.3544219492928575,0.0040516732260584,1.0,-0.00042036068948726215,25.603548514656723,10,3.3999999999999995,9,28.0527398813563,9
subject-02,1,383,0.851022958755493,cat,cat,pow,pow_cat_35_n02123394_2573.png,True,0.3103900103458743,0.1251163184642791,1.0,-0.020282001668683197,26.105472534894943,10,5.423412698412698,6,28.233541453371565,10
subject-02,1,384,0.664903163909912,oven,oven,0,0_oven_35_n04111531_6120.png,True,-0.5851814788707116,1.087671160697937,0.3333333333333333,-2.3115888368979984,26.816381096839905,10,0.34090909090909083,10,57.36622709837541,6
subject-02,1,385,0.692785978317261,knife,keyboard,pow,pow_keyboard_35_n03085013_1698.png,False,-0.451014913497818,0.7103114128112793,0.5,-3.145068544544262,26.53797745704651,10,1.902355977355977,9,40.629115013377124,7
subject-02,1,386,0.616552114486694,bear,bear,0,0_bear_35_n02134084_18372.png,True,-0.8178371261276974,0.0002388934517512,1.0,-1.704707370629704e-05,25.29831325811392,9,3.6595238095238094,9,26.575823786839226,9
subject-02,1,387,0.488227128982544,bicycle,bicycle,pow,pow_bicycle_35_n02835271_11573.png,True,-1.4353114709011707,0.0887217000126838,1.0,-0.01383708366107255,26.482217259705067,10,2.037337662337662,10,32.18447349909681,10
subject-02,1,388,0.642064094543457,bear,oven,pow,pow_oven_35_n04111531_1989.png,False,-0.6950785447997126,1.3838977813720703,1.0,-0.5188567903564034,27.81120538711548,10,1.0833333333333333,10,56.49573041070277,10
subject-02,1,389,0.574063062667847,clock,clock,0,0_clock_35_n04548280_183.png,True,-1.02228600511113,0.0003395738312974,1.0,-2.4378596868823683e-05,24.923640436143614,10,10.083333333333332,2,16.180841224622032,10
subject-02,1,390,0.715682029724121,knife,knife,pow,pow_knife_35_n03041632_56436.png,True,-0.34084366130707894,0.0030705039389431,1.0,-0.00028191009806072525,25.73123946832493,10,4.492099567099567,7,30.913149994570343,10
subject-02,1,391,0.535759925842285,boat,boat,pow,pow_boat_35_n04612504_857.png,True,-1.2065930924738455,0.4112824201583862,1.0,-0.08034662329733014,26.254624247550964,10,2.0254329004329,10,31.893053762992466,10
subject-02,1,392,0.587299108505249,oven,oven,0,0_oven_35_n04111531_4189.png,True,-0.9585967812337024,0.0051836729981005,1.0,-0.0005296082772488813,25.49950740346685,10,1.25,10,56.355644209830736,6
subject-02,1,393,0.731495141983032,bottle,bottle,pow,pow_bottle_35_n02823428_774.png,True,-0.26475410561735946,0.1338355392217636,1.0,-0.026425820884184062,26.304635033011436,10,5.833333333333333,1,20.446889364414897,10
subject-02,1,394,0.731170892715454,truck,truck,pow,pow_truck_35_n04467665_3411.png,True,-0.2663143286967109,0.047549620270729,1.0,-0.005903948775546524,25.20682741701603,10,1.3256216006216004,10,42.495782818331094,10
subject-02,1,395,0.542829990386963,clock,clock,0,0_clock_35_n02708093_41.png,True,-1.1725733460068568,1.489471435546875,1.0,-0.47297444170356084,25.160908341407776,10,9.5,3,16.111324516473154,10
subject-02,1,396,0.669045925140381,elephant,elephant,0,0_elephant_35_n02504013_6615.png,True,-0.5652473345862842,0.1178872212767601,1.0,-0.022055675149675887,26.32971926778555,10,3.0777777777777775,9,34.162260914057846,10
subject-02,1,397,0.888427972793579,truck,truck,0,0_truck_35_n03796401_322.png,True,0.4903755092233532,0.0354792289435863,1.0,-0.005359322463179717,25.04465703293681,10,2.318070818070818,10,39.81822731773216,10
subject-02,1,398,0.768456935882568,car,car,0,0_car_35_n04285008_8052.png,True,-0.086901294022613,0.0306262951344251,1.0,-0.004778219391016257,25.080362079665065,10,3.5217032967032966,8,39.06986910979538,9
subject-02,1,399,0.744040012359619,truck,truck,pow,pow_truck_35_n03417042_1841.png,True,-0.20439068078922484,0.7237178087234497,0.3333333333333333,-4.906399819155561,26.497119307518005,10,0.5768120768120766,10,47.342560544837326,6
subject-02,1,400,0.603937149047852,bicycle,bicycle,pow,pow_bicycle_35_n02835271_9092.png,True,-0.8785378344744524,0.0393167175352573,1.0,-0.005022780695946292,26.333242002874613,10,2.1448773448773446,10,31.466077763859275,10
subject-02,1,401,0.703832149505615,car,car,0,0_car_35_n02814533_13079.png,True,-0.397862931520279,0.115102045238018,1.0,-0.0239332248993804,25.042258851230145,10,3.5438644688644687,8,39.508538954904374,6
subject-02,1,402,0.791260004043579,elephant,elephant,0,0_elephant_35_n02504458_4463.png,True,0.022822541255667548,0.0004118140204809,1.0,-3.0041192198892712e-05,26.16926140146097,10,5.219047619047619,6,29.984055199569607,10
subject-02,1,403,0.941123008728027,bicycle,bicycle,pow,pow_bicycle_35_n03792782_1715.png,True,0.7439335568522434,0.1397595703601837,1.0,-0.024713605566612378,26.2159164249897,10,2.101984126984127,10,32.5058790105238,10
subject-02,1,404,0.647006034851074,cat,cat,0,0_cat_35_n02123045_8031.png,True,-0.6712989095138259,0.4138251543045044,1.0,-0.09399643290496923,25.910523176193237,10,4.7746031746031745,7,29.718097013416276,6
subject-02,1,405,0.651105880737305,bird,bird,0,0_bird_35_n02028035_5332.png,True,-0.6515712653428405,0.0153130833059549,1.0,-0.0015950399968770754,26.235607916489244,10,2.942460317460317,9,32.52025976976516,10
subject-02,1,406,0.590541124343872,bicycle,bicycle,0,0_bicycle_35_n03792782_68319.png,True,-0.9429968448858882,0.0167112164199352,1.0,-0.0019347895241376934,25.486769180744886,10,3.238827838827839,9,30.416948190408206,6
subject-02,1,407,0.830642938613892,knife,keyboard,0,0_keyboard_35_n04505470_8828.png,False,0.21232540091719607,0.2344164252281189,1.0,-0.04558594768489866,25.423618376255035,10,2.321042846042846,9,39.95789004782052,10
subject-02,1,408,1.03426814079285,dog,bear,pow,pow_bear_35_n02134418_3073.png,False,1.19212943363031,1.9670463800430296,0.5,-1.3817676358668505,28.36031186580658,10,1.669047619047619,10,32.78934873837066,10
subject-02,1,409,1.41816902160645,chair,truck,pow,pow_truck_35_n03796401_6737.png,False,3.0393842290003885,1.5794757604599,0.2,-2.4454126889664556,27.782509207725525,10,0.45303862803862777,10,44.606946043118015,6
subject-02,1,410,0.819819927215576,car,car,pow,pow_car_35_n04285008_6037.png,True,0.16024721952955867,1.0783438682556152,0.1666666666666666,-4.18677487923659,27.018852710723877,10,0.38684371184371136,9,49.87887709590401,6
subject-02,1,411,0.821666955947876,bear,bear,0,0_bear_35_n02132136_4157.png,True,0.16913475496760363,0.3666779100894928,1.0,-0.10350967742006366,25.860034734010696,10,2.620238095238095,10,30.53080083581912,10
subject-02,1,412,0.555495977401733,clock,clock,pow,pow_clock_35_n04548280_6792.png,True,-1.1116271319696733,0.0008410743903368,1.0,-6.78919950085079e-05,24.85190945188515,10,8.583333333333332,5,16.924012867346143,10
subject-02,1,413,0.491226196289062,boat,boat,pow,pow_boat_35_n04612504_3064.png,True,-1.42088055464002,0.0060583380982279,1.0,-0.0006132217535474393,26.136321189813316,10,2.433333333333333,10,30.518714519990894,10
subject-02,1,414,0.85349702835083,truck,truck,pow,pow_truck_35_n03417042_15903.png,True,0.32229474188590035,0.0772806107997894,1.0,-0.010340805580852626,25.755885928869247,10,2.1278443778443776,9,42.1888897123125,10
subject-02,1,415,0.658727884292603,bottle,bottle,pow,pow_bottle_35_n04591713_1767.png,True,-0.6148956979723966,0.938525915145874,1.0,-0.4030135070605301,26.579100966453552,10,5.017857142857142,10,21.974323267050018,10
subject-02,1,416,0.684643030166626,bottle,bottle,0,0_bottle_35_n04560804_3801.png,True,-0.4901971628008978,0.0050910199061036,1.0,-0.0004669325739297847,26.066969224251807,10,8.083333333333332,1,19.568624011176105,10
subject-02,1,417,0.634637832641602,airplane,airplane,pow,pow_airplane_35_n02690373_1819.png,True,-0.7308122422082804,0.0005008758744224,1.0,-3.8326521042300755e-05,25.32706614152994,10,5.033333333333333,0,26.188220860209373,10
subject-02,1,418,1.21027708053589,car,car,0,0_car_35_n02814533_35174.png,True,2.0390494961195644,0.6931607723236084,1.0,-0.4847374766661997,26.083228826522827,10,2.491208791208791,9,44.04112848014008,6
subject-02,1,419,0.500245094299316,airplane,airplane,0,0_airplane_35_n02690373_4350.png,True,-1.3774834085769858,0.0003531987895257,1.0,-2.563032570740977e-05,24.958947163366247,10,7.416666666666666,0,19.375533426358228,9
subject-02,1,420,0.747872829437256,truck,oven,pow,pow_oven_35_n04111531_23668.png,False,-0.18594792621300155,1.3840559720993042,0.3333333333333333,-1.3452073946887502,27.332624077796936,10,0.4282106782106781,10,56.57519961812634,7
subject-02,1,421,0.547832012176514,cat,cat,0,0_cat_35_n02123394_593.png,True,-1.1485046105621466,0.0126594267785549,1.0,-0.0014649029175771721,25.588974591344595,10,5.591666666666667,6,26.5081282160031,10
subject-02,1,422,0.731619119644165,car,boat,pow,pow_boat_35_n03344393_8258.png,False,-0.2641575497340768,0.8435964584350586,1.0,-0.25816573585272873,26.969545125961304,10,2.1575396825396824,10,31.18368061018334,10
subject-02,1,423,0.90344500541687,keyboard,keyboard,pow,pow_keyboard_35_n04505470_4761.png,True,0.5626344878086936,0.8623473644256592,1.0,-0.4424967564962261,25.98392951488495,10,2.976623376623376,9,36.632487796556646,10
subject-02,1,424,0.739243030548096,airplane,airplane,pow,pow_airplane_35_n02690373_60.png,True,-0.22747280458081207,0.0377081781625747,1.0,-0.005638851461038841,25.679792180657387,10,4.283333333333333,10,25.89219791385755,10
subject-02,1,425,0.655364036560059,keyboard,keyboard,0,0_keyboard_35_n03085013_7058.png,True,-0.6310818651978208,0.0004680035926867,1.0,-3.4809718400045816e-05,24.842092740378575,10,2.851165501165501,9,36.501301538530086,6
subject-02,1,426,0.726887941360474,knife,knife,pow,pow_knife_35_n03041632_13194.png,True,-0.2869230400183843,1.053760290145874,1.0,-0.2810189048366291,27.00631046295166,10,2.1739177489177486,10,36.45712202416444,10
subject-02,1,427,0.644787073135376,car,car,pow,pow_car_35_n03100240_24471.png,True,-0.6819761126017135,0.6637638807296753,1.0,-0.3159517549587636,26.812556505203247,10,2.2821428571428566,9,43.52468845136869,6
subject-02,1,428,0.962476968765259,boat,bird,pow,pow_bird_35_n02007558_11331.png,False,0.8466845716332453,1.7848753929138184,1.0,-1.0033260647993218,27.986037850379944,10,1.8698412698412694,10,34.396043322867975,10
subject-02,1,429,0.850419044494629,cat,cat,pow,pow_cat_35_n02125311_40746.png,True,0.30748409486058237,0.021266521885991,1.0,-0.0026677637315473224,26.210830273106694,10,5.423412698412698,6,27.72121674038356,10
subject-02,1,430,0.786093950271606,bird,cat,0,0_cat_35_n02125311_2103.png,False,-0.00203548351153876,1.332458257675171,0.5,-1.4292362024623153,27.881528615951538,10,4.712734487734488,6,32.61047093266908,6
subject-02,1,431,0.966255903244019,bird,knife,pow,pow_knife_35_n03041632_36789.png,False,0.8648680538448115,1.3474777936935425,0.1666666666666666,-3.0132684445666342,27.059792399406433,10,1.5429292929292926,8,36.37590530279405,0
subject-02,1,432,1.1139190196991,dog,dog,pow,pow_dog_35_n02105056_6724.png,True,1.5753936441817107,1.4388227462768557,1.0,-0.7207522391730922,27.50541317462921,10,1.7167748917748915,10,37.86461490659547,10
subject-02,1,433,0.763698816299438,dog,dog,0,0_dog_35_n02095570_2009.png,True,-0.10979642048925117,0.0224947109818458,1.0,-0.0024018498763886367,26.838202871382236,10,2.5885642135642133,9,34.68222353390245,10
subject-02,1,434,1.18569803237915,car,car,0,0_car_35_n02814533_4374.png,True,1.920779997813267,0.0632123276591301,1.0,-0.01157845582831587,25.257958345115185,10,4.021703296703297,7,39.283959084070595,6
subject-02,1,435,1.00720596313477,bear,bird,pow,pow_bird_35_n02017213_5095.png,False,1.061911609315607,1.5712087154388428,0.5,-1.58031495446282,27.76470112800598,10,1.5690476190476188,10,33.73136576083795,6
subject-02,1,436,0.603167057037354,bicycle,bicycle,0,0_bicycle_35_n02835271_10832.png,True,-0.8822433642879134,0.0029520408716052,1.0,-0.00026748181117748095,25.998358787735924,10,3.383333333333333,9,28.643159777292016,10
subject-02,1,437,0.702991962432861,clock,bottle,0,0_bottle_35_n04579145_2202.png,False,-0.4019057448523651,0.4776870906352997,1.0,-0.15563851469357223,25.464589565992355,10,5.644444444444444,10,21.56021883375999,10
subject-02,1,438,0.852805852890015,car,boat,0,0_boat_35_n02951358_14877.png,False,0.31896894283660737,1.440528392791748,0.1111111111111111,-4.301416001016462,26.772789001464844,10,1.338629426129426,10,35.968395765754025,3
subject-02,1,439,0.854542970657349,knife,knife,0,0_knife_35_n03041632_5102.png,True,0.327327608539665,0.1693844497203827,1.0,-0.026109463091042236,25.94164487719536,10,3.8524531024531026,8,33.50567487552304,10
subject-02,1,440,0.86266303062439,bottle,bottle,pow,pow_bottle_35_n04557648_94.png,True,0.3663997244489071,0.8717113137245178,1.0,-0.2464700630548336,26.820275723934174,10,6.319444444444444,10,21.980934755914184,10
subject-02,1,441,0.772454977035522,knife,knife,pow,pow_knife_35_n03041632_12651.png,True,-0.0676635140096333,0.0805834978818893,1.0,-0.011954187839198665,26.076843306422234,10,4.063131313131313,8,30.685594678322538,10
subject-02,1,442,0.832091808319092,car,car,0,0_car_35_n04285008_13174.png,True,0.21929707419162286,0.2861428558826446,1.0,-0.08551940501911813,24.86132088303566,10,3.488369963369963,8,41.036010871646695,6
subject-02,1,443,0.671751976013184,airplane,airplane,pow,pow_airplane_35_n02690373_7740.png,True,-0.5522263552108085,1.1428864002227783,1.0,-0.4766701454978533,27.19166851043701,10,4.0,10,25.954692058300214,10
subject-02,1,444,0.901506900787354,knife,knife,0,0_knife_35_n03041632_34769.png,True,0.5533087132410108,0.96440988779068,0.5,-0.8067225069218327,26.91263324022293,10,1.6036435786435785,10,35.88352013080828,10
subject-02,1,445,0.683424949645996,truck,truck,0,0_truck_35_n03417042_15893.png,True,-0.4960583243541404,0.0019923942163586,1.0,-0.0001685761435845008,24.648116518743336,10,2.783150183150183,9,40.39197978703837,6
subject-02,1,446,0.557016134262085,cat,cat,0,0_cat_35_n02123045_12010.png,True,-1.1043124390623562,0.0531742125749588,1.0,-0.00877307418641553,23.779225006699562,9,5.47063492063492,6,25.956671077711313,9
subject-02,1,447,0.459269046783447,airplane,airplane,0,0_airplane_35_n02690373_7276.png,True,-1.57465201133868,0.000131683103973,1.0,-8.940736684686734e-06,23.56472130274051,9,6.416666666666666,0,19.888824858236383,9
subject-02,1,448,0.848673820495605,dog,dog,pow,pow_dog_35_n02091467_7264.png,True,0.2990864235805382,0.893841564655304,0.3333333333333333,-3.1077599328322565,27.37647432088852,10,1.3492424242424241,9,39.021823081842676,6
subject-02,1,449,0.810431003570557,truck,truck,pow,pow_truck_35_n03417042_18625.png,True,0.11506958359950221,0.962355136871338,0.1666666666666666,-4.415282689389377,27.240093111991882,10,0.3631368631368628,10,46.90289952650096,6
subject-02,1,450,0.814765930175781,bear,bear,pow,pow_bear_35_n02134418_848.png,True,0.13592838950301236,1.02729332447052,1.0,-0.4909101428066479,27.34984815120697,10,2.302380952380952,10,31.097889351434798,10
subject-02,1,451,1.24635195732117,bicycle,bicycle,0,0_bicycle_35_n02835271_8271.png,True,2.2126346387031512,0.7219515442848206,1.0,-0.1793649400366143,27.15252858400345,10,2.445238095238095,10,30.42913409015575,10
subject-02,1,452,0.731897115707397,boat,oven,pow,pow_oven_35_n04111531_452.png,False,-0.2628198878881051,0.856290340423584,0.2,-4.148583575108668,26.43587815761566,10,0.1602564102564101,10,60.99214807657292,6
subject-02,1,453,0.71578311920166,bottle,bottle,pow,pow_bottle_35_n04579145_3894.png,True,-0.3403572388176339,0.003326095174998,1.0,-0.000299677448087281,25.91749659879133,10,7.283333333333333,1,20.00235152450927,10
subject-02,1,454,1.10965204238892,dog,cat,pow,pow_cat_35_n02125311_12361.png,False,1.5548617967911535,1.6953439712524414,0.1428571428571428,-3.732075325022901,28.09580624103546,10,2.649603174603174,9,34.01758116726529,0
subject-02,1,455,0.831490993499756,oven,oven,0,0_oven_35_n04111531_8398.png,True,0.21640607260341135,1.1894619464874268,1.0,-0.7397980397880863,26.332552552223206,10,1.0844988344988344,10,57.61280458908262,6
subject-02,1,456,0.875293970108032,bottle,bottle,0,0_bottle_35_n04557648_132.png,True,0.4271772967267783,0.006397551856935,1.0,-0.0006388081586153088,23.86674756463617,10,8.25,1,17.578907553080867,10
subject-02,1,457,0.839107036590576,bicycle,bicycle,pow,pow_bicycle_35_n03792782_20190.png,True,0.2530529594025415,1.4806922674179075,0.1,-5.889228964393361,27.995879650115967,10,1.0011655011655012,3,38.70772465855163,6
subject-02,1,458,0.536806106567383,cat,cat,0,0_cat_35_n02123045_9907.png,True,-1.2015590785972288,0.0016897899331524,1.0,-0.00014568436328259344,25.361881731194444,10,5.419047619047619,6,27.166157704134584,9
subject-02,1,459,0.578665971755981,airplane,airplane,0,0_airplane_35_n02690373_19104.png,True,-1.0001377207214506,0.0002079402038361,1.0,-1.502048329029277e-05,23.864567319018533,10,6.333333333333333,6,19.71077941822479,9
subject-02,1,460,0.778893947601318,bottle,knife,pow,pow_knife_35_n03041632_92637.png,False,-0.036680466433119126,1.8026788234710691,0.5,-1.6235736355606427,27.918760538101196,10,1.81038961038961,7,34.98305726601768,10
subject-02,1,461,0.888231039047241,bicycle,bicycle,pow,pow_bicycle_35_n02835271_1436.png,True,0.48942790314721685,0.0719858109951019,1.0,-0.010309188374284505,26.42010733485222,10,2.014957264957265,10,33.04682399486488,10
subject-02,1,462,0.588305950164795,bicycle,bicycle,0,0_bicycle_35_n03792782_15845.png,True,-0.9537520591277435,0.0516179278492927,1.0,-0.006715684187430774,26.46330565959215,10,3.484523809523809,9,29.14873040516269,10
subject-02,1,463,0.614428997039795,bottle,bottle,0,0_bottle_35_n04557648_9310.png,True,-0.8280531456288933,0.0005418755463324,1.0,-4.1783728915391767e-05,24.87751157063758,10,7.083333333333333,3,17.759886514946427,10
subject-02,1,464,1.18980312347412,bear,elephant,pow,pow_elephant_35_n02504013_6552.png,False,1.9405328808870006,0.0020985370501875,1.0,-0.00018127415392866142,26.444754577241838,10,4.2004329004329,8,30.67265074217572,10
subject-02,1,465,0.603652954101562,bottle,bottle,0,0_bottle_35_n03983396_4178.png,True,-0.8799053241145952,0.0033255550079047,1.0,-0.0003043876374400699,25.27462539402768,10,9.083333333333332,1,17.412575628933045,10
