subject_id,Session,trial,rt,object_response,category,condition,item_id,response_correct,rt_zscore,output_entropy,output_rank_correct,output_logprob_correct,auc_entropy,layer_biggest_change_entropy,auc_rank_correct,layer_biggest_change_rank_correct,auc_logprob_correct,layer_biggest_change_logprob_correct
subject-02,1,1,1.01214194297791,elephant,elephant,10,10_elephant_10_n02504458_5379.png,True,0.6132028131998118,2.493110179901123,0.1428571428571428,-2.496247405908066,31.02408266067505,4,1.9336691086691087,1,33.61983269324537,0
subject-02,1,2,0.820026159286499,bear,dog,15,15_dog_10_n02091244_10926.png,False,-0.1963013254748552,2.1411826610565186,0.1666666666666666,-2.9319836852447874,30.863118886947632,10,0.8785714285714283,7,35.079859682286525,6
subject-02,1,3,1.15009307861328,dog,dog,0,0_dog_10_n02109961_1223.png,True,1.1944773606939278,0.91486656665802,1.0,-0.18736280031321254,26.718336701393127,9,3.5134920634920634,9,27.40409080983221,9
subject-02,1,4,0.81782603263855,car,car,3,3_car_10_n03100240_13707.png,True,-0.20557183720950745,1.456781268119812,0.5,-1.4033237021596496,28.96261727809906,10,1.9200757575757574,8,35.132037668488145,9
subject-02,1,5,0.783656120300293,bear,bear,0,0_bear_10_n02132136_7586.png,True,-0.34955108204032304,0.0705252438783645,1.0,-0.008370705985953337,24.361535608768463,9,9.333333333333334,4,15.900047710714158,9
subject-02,1,6,1.15130090713501,keyboard,clock,7,7_clock_10_n03196217_3006.png,False,1.199566698843886,1.8939034938812256,0.25,-2.4233239882517306,29.91939401626587,9,1.191208791208791,9,35.855436625140456,9
subject-02,1,7,0.98501992225647,oven,truck,15,15_truck_10_n03796401_25386.png,False,0.4989207505740156,1.8714752197265625,0.125,-4.620471237303167,30.178476572036743,10,3.2523809523809524,4,32.686905899349924,0
subject-02,1,8,1.13501811027527,car,airplane,1,1_airplane_10_n02690373_5266.png,False,1.1309570760742624,0.3186094760894775,1.0,-0.05558204123046093,26.76744842529297,9,7.66068931068931,3,22.796367475432085,9
subject-02,1,9,1.1247820854187,cat,chair,10,10_chair_10_n04429376_2450.png,False,1.0878262914726187,2.1166605949401855,0.25,-2.2235151154797865,30.574276447296143,10,1.2539682539682535,7,34.007957611278066,7
subject-02,1,10,0.676587104797363,bicycle,bicycle,0,0_bicycle_10_n02835271_24213.png,True,-0.8006999127509925,0.0175414234399795,1.0,-0.0018154759247419857,24.25268086232245,9,8.583333333333332,3,17.64218533178785,8
subject-02,1,11,1.03438401222229,boat,elephant,10,10_elephant_10_n02504458_6107.png,False,0.7069225834344903,1.8516767024993896,0.125,-4.008804699063538,30.304468154907227,10,1.5228687978687976,1,37.21886864212199,0
subject-02,1,12,1.3365957736969,chair,boat,15,15_boat_10_n03662601_16825.png,False,1.9803300410061064,0.884041428565979,0.0833333333333333,-5.731589559120665,28.510681629180908,10,1.313131313131313,2,36.578364558423964,2
subject-02,1,13,0.6200270652771,boat,boat,0,0_boat_10_n03344393_5350.png,True,-1.0390227886517014,0.1785019040107727,1.0,-0.024787106808055775,25.524872362613678,9,5.851190476190476,7,21.41384442495254,9
subject-02,1,14,1.38189196586609,airplane,boat,3,3_boat_10_n03662601_25023.png,False,2.1711912723043114,0.8899418711662292,1.0,-0.19967278924528226,28.643758237361908,10,5.375,7,25.63256151287059,9
subject-02,1,15,1.5000422000885,bicycle,car,15,15_car_10_n02814533_9785.png,False,2.6690322187933857,1.47222900390625,0.0769230769230769,-4.875718531658879,30.001439094543457,10,0.3048742923742922,5,43.17643463534377,1
subject-02,1,16,0.74344277381897,airplane,airplane,3,3_airplane_10_n02690373_20074.png,True,-0.5189951005436539,0.7781916856765747,1.0,-0.16141661292506368,29.275001406669617,10,5.122557997557998,8,29.068892045584303,9
subject-02,1,17,0.685302019119263,bear,bicycle,40,40_bicycle_10_n02835271_9690.png,False,-0.763978519660745,1.673744559288025,0.0714285714285714,-5.027955428312743,29.804414868354797,10,0.6478937728937726,8,39.55982420219815,6
subject-02,1,18,1.22304320335388,bird,airplane,40,40_airplane_10_n02690373_2525.png,False,1.5018619324332523,1.4420442581176758,0.1428571428571428,-3.978943141998194,29.396299362182617,10,3.2206349206349207,5,32.10099540432128,5
subject-02,1,19,1.05501508712769,dog,cat,7,7_cat_10_n02124075_9149.png,False,0.7938542253866918,1.3000733852386477,0.1428571428571428,-3.9304983548238135,28.326833724975586,9,0.8663419913419909,8,39.98397431180455,3
subject-02,1,20,0.582701921463013,clock,clock,1,1_clock_10_n02708093_3605.png,True,-1.1962970001379565,0.0199473816901445,1.0,-0.002044381873853196,25.40488844178617,9,5.270670995670995,6,28.154714650727538,8
subject-02,1,21,1.50007700920105,keyboard,truck,5,5_truck_10_n04467665_69582.png,False,2.6691788913891052,1.8599588871002195,0.25,-2.272199255558107,30.006965398788452,10,3.2095238095238092,3,29.092779455328426,0
subject-02,1,22,1.11244702339172,chair,elephant,7,7_elephant_10_n02504013_24811.png,False,1.0358509484279885,1.2329695224761963,0.125,-3.7995067657456265,29.603841304779053,10,0.7792790542790539,1,36.9942332084733,0
subject-02,1,23,0.852230072021484,bird,bird,7,7_bird_10_n01614925_1097.png,True,-0.060606068481487786,2.10996675491333,0.125,-3.8343353396325526,30.59958004951477,10,0.6431929181929179,6,39.14903879410496,6
subject-02,1,24,0.695775985717773,keyboard,keyboard,3,3_keyboard_10_n04505470_3947.png,True,-0.7198451374527891,0.050632569938898,1.0,-0.005889439144418977,24.878691233694553,9,4.892832167832168,6,26.43524509736266,6
subject-02,1,25,0.771787881851196,car,car,5,5_car_10_n03100240_16907.png,True,-0.39955940493144926,2.201077699661255,0.1666666666666666,-2.6188556686578264,30.53713345527649,10,0.5885281385281382,5,40.044485265952396,0
subject-02,1,26,1.01758503913879,bottle,bottle,3,3_bottle_10_n04591713_5364.png,True,0.6361379868996163,1.1121797561645508,1.0,-0.29266246143102637,28.323466539382935,9,5.410714285714286,6,24.9428510234293,0
subject-02,1,27,1.07379698753357,bear,oven,10,10_oven_10_n04111531_13795.png,False,0.8729941368431966,2.2629735469818115,0.125,-2.976360942042786,31.043437957763672,10,0.5810897435897434,9,36.81906486203979,6
subject-02,1,28,0.945235013961792,oven,airplane,10,10_airplane_10_n02690373_8813.png,False,0.3312820105261631,1.71102774143219,0.0909090909090909,-4.338856306356854,29.984825015068054,10,0.733247308247308,4,39.317927304779765,3
subject-02,1,29,0.955464124679565,chair,bird,40,40_bird_10_n02018795_4730.png,False,0.3743836615300147,1.629297375679016,0.0833333333333333,-4.483787928484421,29.891331553459167,10,0.606166056166056,6,40.436430187927996,6
subject-02,1,30,0.891122102737427,bicycle,bicycle,3,3_bicycle_10_n02835271_9440.png,True,0.10327041902559064,1.7973109483718872,0.1,-4.055925230151068,29.102338671684265,9,4.353373015873014,0,34.0041646793855,10
subject-02,1,31,1.10667490959167,truck,truck,0,0_truck_10_n04467665_19131.png,True,1.011529417316588,0.5043712854385376,1.0,-0.10103796471988002,27.89629852771759,10,4.40952380952381,8,25.174402303485234,9
subject-02,1,32,0.562603950500488,boat,boat,0,0_boat_10_n03344393_3349.png,True,-1.2809823412406964,0.0579335913062095,1.0,-0.006708603471712111,24.892213128507137,9,6.660714285714286,6,20.532742760012678,9
subject-02,1,33,0.764654874801636,oven,oven,1,1_oven_10_n04111531_2715.png,True,-0.42961523177121214,0.0099050309509038,1.0,-0.0009345605586292836,26.333155324682593,9,3.1630050505050504,8,31.572823923924876,9
subject-02,1,34,1.14404010772705,car,car,5,5_car_10_n02814533_82372.png,True,1.168972402748614,0.5273293852806091,0.25,-4.914506525972407,27.973191916942596,10,0.7522186147186145,9,43.18800290055779,0
subject-02,1,35,0.99776291847229,boat,clock,40,40_clock_10_n03196217_634.png,False,0.5526149758875976,1.7344709634780884,0.3333333333333333,-2.0735023255936853,30.045300126075745,10,2.6797619047619046,8,33.88953803950781,6
subject-02,1,36,0.733758926391602,chair,chair,1,1_chair_10_n04429376_5238.png,True,-0.5597992157502425,0.0434048920869827,1.0,-0.004867220085172389,25.49237374216318,9,4.33015873015873,7,27.948345050109186,9
subject-02,1,37,0.767786026000977,car,car,7,7_car_10_n03100240_1406.png,True,-0.4164217304045879,1.84092915058136,0.3333333333333333,-2.435309355827648,30.358100056648254,10,0.8683913308913307,9,39.02398607343845,2
subject-02,1,38,0.913273096084595,chair,clock,1,1_clock_10_n04548280_2809.png,False,0.19660642945506146,1.02573561668396,1.0,-0.32512651173766915,29.023784637451172,10,2.4504329004329,10,34.99964220044726,10
subject-02,1,39,1.12105011940002,cat,chair,15,15_chair_10_n02791124_634.png,False,1.072101180919665,2.054326295852661,0.0909090909090909,-4.559774473649945,30.558550357818604,10,0.7896575646575644,0,38.04090493865157,6
subject-02,1,40,1.41705298423767,dog,cat,5,5_cat_10_n02124075_13187.png,False,2.3193466676857195,2.141385555267334,0.0714285714285714,-4.419765423253341,30.582499980926514,10,0.5162698412698408,4,39.37981210122504,3
subject-02,1,41,0.66084885597229,bottle,bear,15,15_bear_10_n02132136_786.png,False,-0.8670150135438163,1.7286545038223269,0.1111111111111111,-4.430611131815691,30.426400303840637,10,3.3000000000000003,4,32.756897567175,4
subject-02,1,42,0.646771907806396,boat,boat,0,0_boat_10_n03344393_8599.png,True,-0.9263300140151149,0.0680316314101219,1.0,-0.008123882455380408,24.562377594411373,9,6.291666666666666,6,19.87365070653247,9
subject-02,1,43,1.11434602737427,bear,bear,0,0_bear_10_n02134418_5581.png,True,1.043852641749049,0.0261039547622203,1.0,-0.0027512573408832084,25.07930802926421,9,10.25,3,15.913639966429253,9
subject-02,1,44,0.876098871231079,bicycle,bicycle,1,1_bicycle_10_n02835271_20920.png,True,0.03996813408584439,0.0168921090662479,1.0,-0.0016899671722821954,25.091200729832053,9,7.392857142857142,6,19.992738326561767,8
subject-02,1,45,0.981912136077881,clock,clock,1,1_clock_10_n03196217_7836.png,True,0.48582570067574854,0.0277958735823631,1.0,-0.0029824102296422406,24.634706327691674,9,4.665018315018315,7,27.77889063690696,9
subject-02,1,46,1.14192795753479,keyboard,airplane,40,40_airplane_10_n02690373_19134.png,False,1.160072590930532,2.1242175102233887,0.1666666666666666,-3.332556254335267,30.536336660385132,10,4.222222222222222,7,30.083161271323767,1
subject-02,1,47,1.19586396217346,chair,knife,3,3_knife_10_n03041632_13108.png,False,1.3873387641706818,2.1961045265197754,0.5,-1.8096344180369202,30.6107177734375,9,4.074999999999999,6,26.990678137364736,5
subject-02,1,48,0.823709011077881,bottle,bottle,3,3_bottle_10_n02823428_4658.png,True,-0.18078316392682836,0.171531856060028,1.0,-0.028273279583409618,25.10865706205368,9,4.466605616605616,7,25.24443612963653,8
subject-02,1,49,0.699482917785645,boat,boat,0,0_boat_10_n04273569_12318.png,True,-0.7042255106159423,0.1103153377771377,1.0,-0.014674218795002011,24.100968196988106,9,6.684523809523809,2,19.734427422891088,9
subject-02,1,50,0.873231887817383,truck,truck,7,7_truck_10_n03796401_4119.png,True,0.027887737075745628,1.6834900379180908,0.5,-1.645552449920393,29.909449100494385,10,3.8190476190476184,3,28.769923089242738,10
subject-02,1,51,0.895271062850952,cat,cat,15,15_cat_10_n02124075_11888.png,True,0.12075258690665062,2.075263500213623,0.1111111111111111,-3.571950745659571,30.47852063179016,10,1.093253968253968,7,36.85912226258936,3
subject-02,1,52,1.03085207939148,knife,chair,10,10_chair_10_n03376595_1798.png,False,0.6920403380035047,2.275404453277588,0.0666666666666666,-4.5783142217957415,30.705366849899292,9,0.7939865689865686,0,38.479631108862904,7
subject-02,1,53,0.940433979034424,bird,cat,15,15_cat_10_n02123394_5909.png,False,0.31105224299249357,2.041811227798462,0.1428571428571428,-3.892137256919811,30.649489879608154,10,0.9305916305916301,7,37.636099840849205,3
subject-02,1,54,1.31479620933533,elephant,knife,10,10_knife_10_n03041632_24384.png,False,1.888474821029276,2.202819347381592,1.0,-1.3029990872750992,30.801717281341553,10,6.366666666666666,2,25.22091153171508,10
subject-02,1,55,0.732177019119263,clock,clock,0,0_clock_10_n03196217_6160.png,True,-0.5664647820007223,0.0350851379334926,1.0,-0.003906359712610831,23.658442549407482,9,3.9226190476190474,8,28.523401652653796,6
subject-02,1,56,0.784018039703369,bottle,bottle,7,7_bottle_10_n03983396_12042.png,True,-0.34802608888761394,1.1867611408233645,1.0,-0.30011572964023264,28.520960569381714,9,4.40079365079365,7,27.946850578604874,9
subject-02,1,57,0.695835828781128,clock,clock,7,7_clock_10_n02708093_6890.png,True,-0.719592981140975,0.0346475690603256,1.0,-0.0037634769265124236,25.681297779083252,9,4.045670995670996,8,28.387991336417215,9
subject-02,1,58,0.691659927368164,oven,bird,10,10_bird_10_n01843383_277.png,False,-0.7371886695926936,2.3059988021850586,0.1111111111111111,-3.909196178923634,31.01362943649292,10,0.8993437118437115,6,38.929244600293686,6
subject-02,1,59,0.797425985336304,chair,boat,10,10_boat_10_n03344393_4482.png,False,-0.291530015153142,2.036599636077881,0.25,-2.919111783587795,30.571301221847534,10,2.6944444444444446,4,31.515643041518175,2
subject-02,1,60,0.887279033660889,truck,keyboard,40,40_keyboard_10_n03085013_23793.png,False,0.08707716169454707,1.960554122924805,0.25,-2.3336679330588077,30.58555579185486,10,1.4425324675324673,6,33.892717653542235,3
subject-02,1,61,1.24312615394592,bird,bird,5,5_bird_10_n02011460_19314.png,True,1.586483983306327,2.2770228385925293,0.3333333333333333,-1.883974887972105,31.107876300811768,10,1.7697191697191692,8,36.57709225255043,6
subject-02,1,62,0.786919116973877,keyboard,bear,15,15_bear_10_n02134418_5777.png,False,-0.3358020331022581,2.407881021499634,0.3333333333333333,-2.1013938783255055,30.836575031280518,10,3.336544011544011,10,29.721751630901295,10
subject-02,1,63,1.38656306266785,knife,bear,3,3_bear_10_n02134084_20142.png,False,2.1908735291211094,2.0396296977996826,0.25,-2.5285848239128996,30.338515043258667,10,6.916666666666666,2,24.671085904992804,6
subject-02,1,64,0.648765087127686,chair,elephant,40,40_elephant_10_n02504013_572.png,False,-0.9179315010001892,1.9641425609588623,0.0714285714285714,-4.94985175788749,30.46554970741272,10,0.8853327228327226,1,39.58526998965317,0
subject-02,1,65,0.932284116744995,keyboard,oven,10,10_oven_10_n04111531_11279.png,False,0.27671176806556874,1.913646936416626,0.3333333333333333,-1.7299787650850784,30.322888612747192,10,1.3803571428571426,9,34.59427396358177,6
subject-02,1,66,0.804112911224365,chair,keyboard,5,5_keyboard_10_n03085013_23319.png,False,-0.2633538076735369,1.0884580612182615,0.1666666666666666,-4.372256131858327,28.570177793502808,10,1.5107614607614603,6,37.61193098038637,6
subject-02,1,67,0.684262037277222,boat,boat,5,5_boat_10_n04273569_2037.png,True,-0.76836061460944,1.6118721961975098,1.0,-0.6770799858511224,29.276491403579712,10,3.7083333333333335,10,27.06304620349128,10
subject-02,1,68,1.06168222427368,chair,chair,1,1_chair_10_n04429376_19354.png,True,0.8219470505002168,0.0745978057384491,1.0,-0.00899407584560925,26.180812031030655,9,3.7678571428571423,8,29.51728352480376,9
subject-02,1,69,0.667666912078857,boat,boat,7,7_boat_10_n02951358_30909.png,True,-0.8382862723132289,1.9319945573806765,0.5,-1.9337425162816086,30.47705638408661,10,3.236111111111111,8,29.821279793673877,2
subject-02,1,70,0.687519073486328,clock,clock,7,7_clock_10_n04548280_532.png,True,-0.7546366808418762,1.904554009437561,1.0,-1.016692165881032,29.993656516075134,9,3.5448773448773445,8,33.26692546560582,9
subject-02,1,71,1.22348403930664,elephant,elephant,0,0_elephant_10_n02504458_908.png,True,1.5037194504433755,0.0463170707225799,1.0,-0.00522126492532459,25.061858287081122,9,7.9,1,21.122590337262302,0
subject-02,1,72,1.40755701065063,airplane,keyboard,3,3_keyboard_10_n03085013_8136.png,False,2.2793341826532476,1.743142008781433,1.0,-0.7284771475255915,29.323229432106018,9,5.204545454545454,6,28.25496991934715,6
subject-02,1,73,1.49894309043884,airplane,airplane,7,7_airplane_10_n02690373_2293.png,True,2.6644009813533316,1.049092173576355,1.0,-0.2587944129735687,29.52440345287323,10,4.457153957153958,4,29.117191855076516,10
subject-02,1,74,0.734554052352905,bicycle,bicycle,0,0_bicycle_10_n03792782_13281.png,True,-0.5564488520056562,0.0425199344754219,1.0,-0.004788041420630953,25.270104406401515,9,7.333333333333333,6,20.263545674611887,9
subject-02,1,75,0.776388883590698,bear,clock,40,40_clock_10_n03196217_3903.png,False,-0.38017250251973045,2.046186685562134,0.3333333333333333,-1.6854541151080473,30.421793460845947,10,3.4575757575757575,6,33.05081324484661,2
subject-02,1,76,0.976267099380493,car,car,1,1_car_10_n03100240_595.png,True,0.4620396249993949,0.0418447628617286,1.0,-0.004745519914474246,25.175525404512882,9,3.4709706959706956,8,32.088598275295276,8
subject-02,1,77,0.986172914505005,cat,cat,5,5_cat_10_n02123597_5887.png,True,0.5037790291553743,2.0826315879821777,1.0,-1.0773688704650073,30.510154724121094,10,3.7958333333333334,8,31.401949168068626,3
subject-02,1,78,1.3739550113678,cat,cat,3,3_cat_10_n02125311_6283.png,True,2.1377479112676228,0.0689224153757095,1.0,-0.00828535957413203,27.700929656624794,10,4.438034188034187,8,27.720918357808756,9
subject-02,1,79,0.791790962219238,elephant,elephant,5,5_elephant_10_n02504458_3059.png,True,-0.3152738973430589,0.3436964154243469,1.0,-0.05581004243913651,28.185012876987457,10,4.0458333333333325,9,27.75019914512707,9
subject-02,1,80,0.921412944793701,chair,chair,3,3_chair_10_n04429376_57621.png,True,0.2309047108955444,0.8342927098274231,1.0,-0.183772384431382,29.31169730424881,10,3.3025183150183146,9,30.73401404329976,10
subject-02,1,81,0.776771068572998,keyboard,chair,0,0_chair_10_n03376595_6107.png,False,-0.3785621177873228,0.3644073009490967,1.0,-0.07134601514409689,26.623308181762695,9,4.353943278943278,8,26.033304912663166,9
subject-02,1,82,0.646494150161743,oven,bear,40,40_bear_10_n02132136_5815.png,False,-0.9275003809603748,1.5178604125976562,0.1666666666666666,-4.134583787571463,30.03056788444519,10,3.029376179376179,2,33.17887748352409,7
subject-02,1,83,0.578226089477539,boat,boat,3,3_boat_10_n03662601_17665.png,True,-1.2151564839691942,0.9789554476737976,1.0,-0.2185184230745165,28.843337953090668,10,5.180555555555555,4,25.67375867832363,9
subject-02,1,84,0.918317079544067,clock,bear,40,40_bear_10_n02132136_25168.png,False,0.21785989133827569,1.693642020225525,0.0666666666666666,-4.790929142882732,30.044793725013733,10,2.7732142857142845,2,35.725401914240926,7
subject-02,1,85,0.939955949783325,keyboard,keyboard,15,15_keyboard_10_n03085013_23731.png,True,0.30903800631845835,1.2737033367156982,1.0,-0.3551720953248642,29.47347855567932,10,3.528282828282828,9,30.586281530756978,9
subject-02,1,86,0.807601928710938,car,car,0,0_car_10_n03100240_11428.png,True,-0.24865239147014018,0.1533347964286804,1.0,-0.027507333024499883,25.302109330892563,9,4.333170995670995,7,31.659961831695362,8
subject-02,1,87,0.74147891998291,airplane,airplane,1,1_airplane_10_n02690373_9328.png,True,-0.5272700469197215,0.0211064200848341,1.0,-0.00215488223333061,24.760832104831934,9,7.671800421800421,3,22.519285140842314,8
subject-02,1,88,0.855651140213013,bear,bear,15,15_bear_10_n02134084_19849.png,True,-0.04619096522178208,2.061034679412842,0.1428571428571428,-3.3598121269375136,30.839654207229614,10,3.9134920634920634,7,30.66298181378791,7
subject-02,1,89,1.00123906135559,knife,knife,0,0_knife_10_n03041632_8528.png,True,0.567262143322709,0.0964813530445098,1.0,-0.01217981549829388,26.85822895169258,9,4.5353535353535355,8,25.330339438871462,9
subject-02,1,90,1.23081183433533,elephant,boat,40,40_boat_10_n03344393_2915.png,False,1.5345960410550685,1.4910950660705566,0.0833333333333333,-5.071092442282358,29.81217885017395,10,1.1857142857142855,2,35.49882006045033,2
subject-02,1,91,0.648812055587769,clock,clock,3,3_clock_10_n04548280_289.png,True,-0.9177335934566557,0.1764068901538849,1.0,-0.027180894639847204,27.610539108514786,10,4.193589743589744,8,29.911470273371485,9
subject-02,1,92,0.62865686416626,bicycle,bicycle,1,1_bicycle_10_n03792782_51466.png,True,-1.0026600401961858,0.0284537840634584,1.0,-0.0030556466890086505,25.743866534903646,9,6.061111111111111,6,21.496801882326686,8
subject-02,1,93,0.826370000839233,chair,chair,0,0_chair_10_n03376595_13927.png,True,-0.16957074720918178,0.0391432531177997,1.0,-0.004314238426688642,24.595006607705727,9,4.009462759462759,8,26.886373412520147,8
subject-02,1,94,1.08826589584351,truck,keyboard,5,5_keyboard_10_n04505470_9331.png,False,0.9339607109265337,1.9213842153549192,0.3333333333333333,-2.168485833097249,29.592080235481262,9,3.2445887445887447,6,32.05768236092842,6
subject-02,1,95,0.685950994491577,keyboard,keyboard,0,0_keyboard_10_n04505470_4044.png,True,-0.7612439798967975,0.0342224091291427,1.0,-0.0037074183611510766,22.820209886645898,9,5.983838383838384,5,21.966286125118792,5
subject-02,1,96,0.799978971481323,car,car,0,0_car_10_n02814533_4689.png,True,-0.2807726853249403,0.1068533957004547,1.0,-0.015343233421106686,25.29730561375618,9,4.009361471861472,7,33.34597653478992,8
subject-02,1,97,1.14763498306274,dog,dog,7,7_dog_10_n02098105_2343.png,True,1.1841198643800586,1.4556214809417725,1.0,-0.4807668161260751,29.8260395526886,10,3.8377344877344877,8,29.95511293700291,9
subject-02,1,98,1.1455819606781,bird,bird,7,7_bird_10_n02009912_11907.png,True,1.1754691950533398,1.936681032180786,0.125,-3.585153194523082,30.411492109298706,10,0.5111263736263734,7,40.21237208423492,6
subject-02,1,99,,na,oven,5,5_oven_10_n04111531_585.png,False,,0.4082787334918976,1.0,-0.07496080133875135,28.422594100236893,10,4.299044011544011,7,29.2023083480855,6
subject-02,1,100,0.898943185806274,keyboard,keyboard,7,7_keyboard_10_n04505470_1120.png,True,0.1362255411477771,2.384101390838623,0.5,-1.7470025463440406,30.765240907669067,10,4.457153957153957,6,31.91607825275996,6
subject-02,1,101,1.1689510345459,boat,clock,15,15_clock_10_n02708093_274.png,False,1.27393774172603,1.989562511444092,0.25,-2.337292662868896,30.72929620742798,10,0.9841991341991339,6,36.626691224167125,2
subject-02,1,102,0.774729013442993,clock,clock,0,0_clock_10_n04548280_4391.png,True,-0.3871665752003385,0.0277923606336116,1.0,-0.0029402045513223863,25.34510124102235,9,5.333705183705184,6,26.377132584734728,9
subject-02,1,103,0.770925045013428,oven,oven,1,1_oven_10_n04111531_10640.png,True,-0.4031950770129066,0.0077363299205899,1.0,-0.0007171817807423613,24.918391392566264,9,4.988665501165501,6,26.66830397838385,6
subject-02,1,104,1.0964241027832,oven,airplane,40,40_airplane_10_n02690373_4591.png,False,0.968336347092125,1.8893558979034424,0.0909090909090909,-4.165494782074254,30.113689422607422,10,5.1115440115440105,4,30.43454018407541,5
subject-02,1,105,0.983958005905151,bear,bear,3,3_bear_10_n02132136_6441.png,True,0.49444623179788133,0.1456782966852188,1.0,-0.02215165060050904,26.77178765833378,9,10.0,6,18.589020541060176,9
subject-02,1,106,0.950056076049805,knife,knife,0,0_knife_10_n03041632_22570.png,True,0.3515961650327121,0.0722159817814827,1.0,-0.009511922153205952,26.43856305629015,10,4.801190476190476,8,24.851350644998927,9
subject-02,1,107,1.13367295265198,cat,bird,3,3_bird_10_n01616318_6874.png,False,1.1252890843960137,1.9345006942749023,1.0,-0.8281943605831937,30.158486127853394,10,3.5343004218004217,8,33.76147502477131,10
subject-02,1,108,1.29358291625977,oven,bicycle,15,15_bicycle_10_n03792782_13051.png,False,1.799089929222741,2.5082755088806152,0.0714285714285714,-3.840316478251649,31.160643339157104,10,0.6102564102564099,8,37.892775096426796,6
subject-02,1,109,0.867329835891724,keyboard,truck,7,7_truck_10_n03796401_7527.png,False,0.003018695247469199,0.54407799243927,0.2,-5.206428112076154,28.09968137741089,10,3.802380952380952,3,33.00113719470755,0
subject-02,1,110,0.927175045013428,truck,boat,15,15_boat_10_n04273569_103.png,False,0.2551840485205027,1.665013313293457,0.0769230769230769,-4.86286081217248,29.763559103012085,10,1.4043040293040288,2,35.18747324088526,2
subject-02,1,111,0.741323947906494,bear,bird,1,1_bird_10_n01819313_18188.png,False,-0.5279230413526999,0.8186224699020386,1.0,-0.16821866241920538,28.616287112236023,10,3.2112845487845485,8,34.57712506291452,10
subject-02,1,112,0.96092700958252,dog,dog,1,1_dog_10_n02091635_5740.png,True,0.39740221759591654,0.7670462131500244,1.0,-0.14982997855653984,27.76750338077545,9,3.9547619047619045,8,28.085379089601222,9
subject-02,1,113,0.68454384803772,cat,cat,0,0_cat_10_n02125311_35785.png,True,-0.7671731693482399,0.0396032258868217,1.0,-0.0043553647060725655,24.873101369012147,9,4.209498834498834,8,26.333056557644966,9
subject-02,1,114,0.704661130905151,oven,oven,15,15_oven_10_n04111531_8793.png,True,-0.6824064550930877,1.7570184469223022,0.25,-2.47202468795295,29.734624981880188,10,1.2315476190476187,6,33.08482606706004,6
subject-02,1,115,1.00619292259216,chair,clock,5,5_clock_10_n03196217_2530.png,False,0.5881358638279688,2.255033016204834,0.25,-2.5202167649312908,30.59514570236206,10,0.8141025641025637,6,38.00302995756337,6
subject-02,1,116,0.970148086547852,dog,dog,7,7_dog_10_n02090721_7040.png,True,0.43625639096495056,2.404454231262207,0.25,-2.02934041276504,31.110379219055176,9,1.1980158730158728,8,33.44216915185091,10
subject-02,1,117,1.09206795692444,car,car,7,7_car_10_n02814533_44503.png,True,0.9499811758845322,0.1727217435836792,0.1666666666666666,-6.513036486740672,26.253708094358444,9,0.874242424242424,9,45.70270452192952,2
subject-02,1,118,0.947762966156006,boat,truck,7,7_truck_10_n03417042_17545.png,False,0.341933856638271,2.163264274597168,0.125,-3.2982330958523076,30.74938440322876,10,3.108008658008657,3,31.550132646257826,0
subject-02,1,119,0.91956901550293,bicycle,airplane,10,10_airplane_10_n02690373_8543.png,False,0.22313508174992389,1.0799784660339355,0.0714285714285714,-6.069861425299278,28.577038526535034,10,1.2070818070818068,4,40.96077663921088,3
subject-02,1,120,0.525389194488525,keyboard,keyboard,7,7_keyboard_10_n04505470_578.png,True,-1.437791419769307,0.176660880446434,1.0,-0.024480123747474856,26.294629231095314,9,3.9246753246753245,8,28.647386250012293,9
subject-02,1,121,0.711309909820557,cat,cat,3,3_cat_10_n02125311_37322.png,True,-0.6543909847046722,2.4354822635650635,1.0,-1.1438548989255586,30.526304721832275,9,5.326190476190476,6,29.651565775507386,9
subject-02,1,122,0.691045045852661,airplane,cat,7,7_cat_10_n02123159_587.png,False,-0.7397795505813879,1.9709092378616333,0.0909090909090909,-4.108464643209945,30.43630826473236,10,0.5774531024531022,7,39.14524702951749,3
subject-02,1,123,0.786700010299683,bottle,bottle,0,0_bottle_10_n02823428_14536.png,True,-0.33672526676980613,0.0512086227536201,1.0,-0.005827985396333932,25.226438030600548,9,4.0888278388278385,8,24.8029153908848,0
subject-02,1,124,0.940627098083496,oven,cat,40,40_cat_10_n02123045_2029.png,False,0.31186597451666526,1.5906745195388794,0.1666666666666666,-3.5464030150156227,30.02769672870636,10,0.9690476190476186,7,37.89260713049831,6
subject-02,1,125,0.718424081802368,chair,chair,7,7_chair_10_n03376595_11572.png,True,-0.6244145218036862,1.6267669200897217,0.0909090909090909,-5.212011333884144,29.779604196548462,10,0.8474567099567097,0,39.51058162279578,7
subject-02,1,126,0.808385133743286,bear,clock,15,15_clock_10_n04548280_8892.png,False,-0.2453522580665522,1.4581621885299685,1.0,-0.900359610472789,29.79500949382782,10,2.6158730158730155,9,34.42121436868298,9
subject-02,1,127,0.664166927337646,bottle,bottle,1,1_bottle_10_n04557648_12301.png,True,-0.8530339004303409,0.2104120552539825,1.0,-0.03009307587118612,28.010641366243362,10,3.904304029304029,8,28.887346698419133,9
subject-02,1,128,0.948019027709961,dog,dog,1,1_dog_10_n02102480_7293.png,True,0.3430128043629153,0.3807569146156311,1.0,-0.06175531644691756,27.49882596731186,9,4.060714285714285,8,27.628024856171496,9
subject-02,1,129,0.811918973922729,oven,boat,15,15_boat_10_n04612504_13309.png,False,-0.23046197578100644,1.741288661956787,0.1,-4.68873815584713,30.041146278381348,10,2.1770202020202016,4,34.56525935901144,2
subject-02,1,130,1.04934406280518,clock,dog,15,15_dog_10_n02107312_5733.png,False,0.7699586475669618,2.0865349769592285,0.2,-2.4002909910572905,30.550336122512817,10,1.049242424242424,9,34.10989898741697,6
subject-02,1,131,1.50017499923706,bear,bear,5,5_bear_10_n02132136_9815.png,True,2.669591784792109,2.4668352603912354,0.5,-1.9648888325250193,30.94431710243225,9,5.316666666666666,7,26.045975200594636,10
subject-02,1,132,0.853350877761841,chair,chair,0,0_chair_10_n04429376_8237.png,True,-0.05588341182082175,0.1407357156276703,1.0,-0.020975413855031995,27.03554031252861,10,4.180631868131868,7,29.304204842202694,9
subject-02,1,133,0.871075868606567,bear,bear,0,0_bear_10_n02134084_7790.png,True,0.018803077602783966,0.0360604748129844,1.0,-0.0039201823716650906,24.54490512330085,9,9.416666666666666,4,15.613567314657937,9
subject-02,1,134,0.874807834625244,chair,chair,1,1_chair_10_n02791124_66.png,True,0.03452818815572444,0.1210231781005859,1.0,-0.015662681326800803,26.63054132461548,9,3.7511904761904757,8,29.94202878724609,9
subject-02,1,135,1.02645492553711,airplane,airplane,10,10_airplane_10_n02690373_2580.png,True,0.6735123744228589,0.4853820502758026,0.125,-6.344535159449499,27.44383344054222,9,1.74005439005439,4,39.9694715836612,4
subject-02,1,136,0.968270063400269,truck,truck,1,1_truck_10_n03417042_820.png,True,0.42834310304407247,0.0963819622993469,1.0,-0.012095410315114047,25.497460074722767,9,5.092857142857143,8,22.72549640798293,9
subject-02,1,137,0.818140983581543,keyboard,keyboard,10,10_keyboard_10_n04505470_3132.png,True,-0.20424475160033229,0.7695536613464355,1.0,-0.18372503850538444,28.429051637649536,10,3.983008658008658,7,28.485792144925487,9
subject-02,1,138,1.26199984550476,clock,chair,10,10_chair_10_n04429376_10341.png,False,1.666010668388544,2.230003595352173,0.0909090909090909,-4.258106528198418,30.84858798980713,10,0.9166416916416912,7,36.70734745839941,7
subject-02,1,139,1.37404012680054,knife,bicycle,40,40_bicycle_10_n03792782_17666.png,False,2.138106555902354,1.0961596965789795,0.0666666666666666,-5.67862294198512,28.813827514648438,10,0.7387667887667884,5,38.960469403191716,6
subject-02,1,140,0.807633876800537,boat,boat,1,1_boat_10_n02951358_2445.png,True,-0.24851777415626744,0.0520683303475379,1.0,-0.005952935325091082,25.451293335296214,9,7.642857142857142,3,21.910266411050234,9
subject-02,1,141,0.703801870346069,chair,chair,5,5_chair_10_n02791124_3731.png,True,-0.6860270580722478,1.6894309520721436,0.1428571428571428,-4.225770973126704,29.487924098968506,10,1.1230158730158726,7,36.60754714022163,7
subject-02,1,142,0.871389865875244,knife,knife,7,7_knife_10_n03041632_2058.png,True,0.020126144784681114,0.2907768189907074,1.0,-0.04710898075179212,26.964059203863144,9,8.5,5,19.532318500808177,9
subject-02,1,143,0.861235857009888,bicycle,elephant,40,40_elephant_10_n02504458_2419.png,False,-0.02265905507088093,1.2849562168121338,0.2,-3.8030761689426527,29.38403606414795,10,1.3070207570207568,1,36.63626034427254,0
subject-02,1,144,1.17105388641357,bottle,truck,40,40_truck_10_n03417042_10038.png,False,1.2827983738781126,1.691504955291748,0.0625,-5.12590973881956,30.203670978546143,10,1.5828754578754576,3,36.23287086505676,0
subject-02,1,145,0.73674488067627,boat,chair,3,3_chair_10_n03376595_5112.png,False,-0.5472175199369789,0.1531458795070648,1.0,-0.022662272967725584,28.015051692724228,10,2.9394230769230765,9,31.302031179333454,9
subject-02,1,146,0.738384008407593,bear,bear,1,1_bear_10_n02134418_2231.png,True,-0.5403108480497084,0.0250454097986221,1.0,-0.0026227625513791848,24.55870258435607,9,8.783333333333333,4,16.29535149904926,9
subject-02,1,147,1.07249402999878,cat,cat,10,10_cat_10_n02123597_19450.png,True,0.8675039605720782,2.1224019527435303,0.25,-2.3528104003192767,30.64489459991455,10,1.3484487734487731,7,36.0781370549877,3
subject-02,1,148,1.11826395988464,dog,airplane,40,40_airplane_10_n02690373_5961.png,False,1.0603613456215375,1.6815285682678225,0.1,-4.132569863774474,29.931440114974976,10,3.653968253968254,4,31.289684606827326,5
subject-02,1,149,0.905857086181641,chair,chair,3,3_chair_10_n02791124_14040.png,True,0.16535813431999616,0.9107141494750975,0.3333333333333333,-3.127552026259809,28.05936098098755,10,1.434462759462759,9,36.418447708915004,6
subject-02,1,150,1.07593202590942,elephant,bottle,40,40_bottle_10_n04560804_3392.png,False,0.8819903909159801,1.977948784828186,0.5,-1.4112878257224788,30.15988051891327,10,2.4293040293040287,4,30.04998952976901,0
subject-02,1,151,1.39977288246155,chair,bird,15,15_bird_10_n02056570_9572.png,False,2.2465347745881825,1.7238808870315552,0.25,-3.35455037928281,30.04046905040741,10,0.7731893106893104,6,39.40846969172687,6
subject-02,1,152,0.74530816078186,cat,cat,5,5_cat_10_n02123394_4164.png,True,-0.5111350567842364,1.1540920734405518,0.25,-3.6933953591963293,28.658045530319214,9,0.9127705627705625,7,38.90193141432481,3
subject-02,1,153,0.861192941665649,bird,bird,7,7_bird_10_n01601694_10927.png,True,-0.02283988429847822,2.3558497428894043,0.125,-3.019330475262796,31.052372694015503,10,0.9234890109890108,8,37.35617244899523,6
subject-02,1,154,0.894963979721069,boat,car,40,40_car_10_n03100240_5018.png,False,0.11945865332253251,1.6674487590789795,0.1111111111111111,-4.437327117632135,30.23215913772583,10,0.20529609279609248,5,44.263674830210284,1
subject-02,1,155,1.01886391639709,cat,cat,1,1_cat_10_n02124075_8884.png,True,0.6415266978819151,0.3424686193466186,1.0,-0.05467124838003836,28.214215636253357,10,4.574481074481074,7,27.723729043234847,9
subject-02,1,156,0.70303201675415,oven,car,40,40_car_10_n04285008_12868.png,False,-0.689270933493921,1.6639690399169922,0.0909090909090909,-4.316364707363701,29.95402956008911,10,0.32035048285048257,5,43.70406593284632,1
subject-02,1,157,1.05038118362427,cat,elephant,15,15_elephant_10_n02504458_6050.png,False,0.7743286872338097,1.8400003910064695,0.1,-4.400824172809087,30.266578912734985,10,0.8265012765012762,1,37.78529786304952,0
subject-02,1,158,0.806503057479858,keyboard,keyboard,3,3_keyboard_10_n04505470_3615.png,True,-0.2532826243033711,0.082375518977642,1.0,-0.010336469447662248,25.499340407550335,9,5.376695526695527,6,25.144091962659974,9
subject-02,1,159,0.748225927352905,clock,dog,15,15_dog_10_n02108915_1114.png,False,-0.49884067852148284,1.54345703125,0.1428571428571428,-3.83026816742907,29.3342444896698,9,1.020238095238095,7,36.78605514892509,6
subject-02,1,160,0.727837800979614,knife,knife,1,1_knife_10_n03041632_45338.png,True,-0.5847486261241195,0.5599937438964844,1.0,-0.10065300506682825,27.385054111480713,9,6.15952380952381,5,22.441749124182884,5
subject-02,1,161,0.815737962722778,chair,chair,3,3_chair_10_n04429376_16952.png,True,-0.21437018373877856,0.255276471376419,1.0,-0.04170324995459818,28.0891971886158,10,2.1112845487845484,10,32.2051226738503,10
subject-02,1,162,0.507582902908325,oven,oven,3,3_oven_10_n04111531_1002.png,True,-1.5128204801185225,0.0999461114406585,1.0,-0.012937428055563372,26.62564679980278,9,3.7059523809523807,8,31.16779590926794,9
subject-02,1,163,0.949239015579224,elephant,elephant,1,1_elephant_10_n02504458_900.png,True,0.3481533774606861,0.039149947464466,1.0,-0.004293466407352309,24.955544509924948,9,7.583333333333333,1,20.453622844581663,0
subject-02,1,164,0.719247817993164,keyboard,keyboard,0,0_keyboard_10_n04505470_4599.png,True,-0.620943605240701,0.044704295694828,1.0,-0.005051295777281092,25.0661039352417,9,5.046969696969697,6,25.964938429108127,5
subject-02,1,165,1.2911970615387,dog,dog,1,1_dog_10_n02086646_2810.png,True,1.7890368287753309,0.8042184710502625,1.0,-0.1612404631119591,27.715453922748566,9,3.9428571428571426,8,27.076368542136507,9
subject-02,1,166,1.38298988342285,elephant,bicycle,7,7_bicycle_10_n02835271_12608.png,False,2.175817486710247,2.445671558380127,0.1111111111111111,-3.1617026409821802,31.285943031311035,10,1.4181929181929178,0,33.484518537660975,6
subject-02,1,167,0.712624073028564,keyboard,keyboard,1,1_keyboard_10_n03085013_20914.png,True,-0.6488535919130187,0.5310037136077881,1.0,-0.0926714262387125,26.591114223003387,9,5.321969696969697,6,26.234879460262672,9
subject-02,1,168,0.866492986679077,bear,bird,10,10_bird_10_n01860187_27046.png,False,-0.0005074746906159646,2.16819429397583,0.0909090909090909,-4.572886846803452,30.651031732559204,10,0.7531857031857029,6,40.02707264533762,6
subject-02,1,169,1.37824392318726,clock,dog,40,40_dog_10_n02088364_11910.png,False,2.155819783352013,2.1529996395111084,0.0909090909090909,-4.014529721555424,30.853864192962646,10,0.43106060606060587,7,38.18818412708917,7
subject-02,1,170,0.766140937805176,truck,truck,0,0_truck_10_n03417042_4557.png,True,-0.4233535174623594,0.0532689318060874,1.0,-0.006115261642060303,25.565095076337457,9,4.9261904761904765,7,24.2189658420367,9
subject-02,1,171,0.869947910308838,keyboard,keyboard,5,5_keyboard_10_n03085013_15295.png,True,0.014050282737523146,0.5626767873764038,0.5,-3.231235971715399,27.97991192340851,10,1.5488816738816737,10,36.13756355125713,6
subject-02,1,172,1.30562901496887,bird,bird,1,1_bird_10_n02051845_1935.png,True,1.8498476888015338,0.441466361284256,1.0,-0.0745681525185693,26.408457159996033,9,3.1362845487845483,8,32.99820512232197,9
subject-02,1,173,0.59765100479126,oven,oven,3,3_oven_10_n04111531_5171.png,True,-1.1333071479192216,2.336294651031494,0.5,-1.6703400966501019,31.033809661865234,10,2.9982142857142855,8,33.85844908203566,6
subject-02,1,174,0.961429119110107,elephant,elephant,7,7_elephant_10_n02504013_8052.png,True,0.39951791955876276,1.7759196758270264,1.0,-0.7788645654898463,30.336241006851196,10,3.2027777777777775,1,30.219637331417573,10
subject-02,1,175,0.878955125808716,bicycle,truck,40,40_truck_10_n03417042_21758.png,False,0.05200332378904746,1.4665089845657349,0.0769230769230769,-5.063872708920913,29.762967705726624,10,1.8459706959706956,3,35.17111753613224,0
subject-02,1,176,0.861001968383789,oven,airplane,40,40_airplane_10_n02690373_3561.png,False,-0.023644574361270182,1.7581664323806765,0.0714285714285714,-4.850037640679841,30.187869668006897,10,2.9134310134310137,4,34.21669387023029,5
subject-02,1,177,1.08472204208374,chair,chair,3,3_chair_10_n04429376_18863.png,True,0.9190282351545292,1.5398364067077637,1.0,-0.5356924088449626,30.00951886177063,10,3.4358516483516484,8,31.396857562492986,10
subject-02,1,178,1.23475503921509,airplane,airplane,3,3_airplane_10_n02690373_10462.png,True,1.5512112332504948,1.9381141662597656,1.0,-1.1737813598628946,30.217377424240112,10,2.959462759462759,10,31.757699930572397,3
subject-02,1,179,1.08233499526978,bird,bird,1,1_bird_10_n01860187_348.png,True,0.9089701116730426,0.4582696557044983,1.0,-0.07840089520657188,26.248305290937424,9,3.0967032967032964,8,34.3145185744425,9
subject-02,1,180,1.12006402015686,boat,boat,0,0_boat_10_n03662601_1947.png,True,1.0679461271122994,1.499497413635254,0.5,-1.0064723575964258,29.89570450782776,10,3.751190476190476,5,27.74015543497219,10
subject-02,1,181,1.20984506607056,bicycle,bottle,40,40_bottle_10_n03937543_1391.png,False,1.4462499127003745,2.16373062133789,0.25,-2.1776787984001595,30.59401249885559,10,1.2730158730158727,4,33.489123082396176,0
subject-02,1,182,1.09392309188843,oven,knife,15,15_knife_10_n03041632_45264.png,False,0.9577980215506963,1.3981285095214844,1.0,-0.42900373307044953,29.569764614105225,10,7.166666666666666,2,23.063448632347786,10
subject-02,1,183,1.05983185768127,bird,bird,1,1_bird_10_n02033041_11415.png,True,0.8141502969704426,0.4365811049938202,1.0,-0.07171428326691276,25.874507419764996,9,3.5502344877344876,8,31.971560612552672,9
subject-02,1,184,1.12545585632324,car,truck,3,3_truck_10_n03417042_5508.png,False,1.09066531034584,0.1096107810735702,1.0,-0.014157017986900099,25.95838212966919,9,6.176190476190476,5,22.6829470349363,9
subject-02,1,185,1.30116605758667,bird,elephant,7,7_elephant_10_n02504458_716.png,False,1.8310424537385848,2.379140853881836,0.25,-2.675522268752465,31.224231004714966,10,1.9473706848706844,1,34.764136433464564,0
subject-02,1,186,1.10307788848877,keyboard,elephant,40,40_elephant_10_n02504013_7143.png,False,0.996372914223772,1.5863913297653198,0.0666666666666666,-4.9539813448836085,30.034387946128845,10,0.6959096459096457,1,39.13757475663892,0
subject-02,1,187,1.34088802337646,bird,bicycle,3,3_bicycle_10_n03792782_210.png,False,1.9984159775859445,2.360532522201538,1.0,-1.2202869864517587,31.176998376846313,10,4.033333333333333,9,27.92375502052451,10
subject-02,1,188,0.92273998260498,oven,car,15,15_car_10_n02814533_58708.png,False,0.2364963524554784,1.7074673175811768,0.0666666666666666,-5.083111703797757,30.269736766815186,10,0.13928571428571399,4,45.06138348908971,1
subject-02,1,189,1.1363890171051,cat,cat,10,10_cat_10_n02123045_5747.png,True,1.1367335652890542,2.2732088565826416,0.2,-2.4481199142045003,30.871994733810425,10,2.399206349206349,8,34.34078729834989,7
subject-02,1,190,0.834711074829102,airplane,airplane,0,0_airplane_10_n02690373_1051.png,True,-0.1344245776126413,0.0145893739536404,1.0,-0.0014316550130500417,22.989986648783088,8,7.628943278943279,3,20.48181150071899,3
subject-02,1,191,0.926392078399658,bird,bird,0,0_bird_10_n01514859_12705.png,True,0.25188491972373,0.4198602735996246,1.0,-0.06831539195946924,25.54327531158924,9,3.1384920634920634,8,32.95475602334836,9
subject-02,1,192,1.44597315788269,dog,chair,15,15_chair_10_n04429376_16192.png,False,2.441205474947688,1.8560247421264648,0.0833333333333333,-4.482123411036299,30.134937047958374,9,0.8150793650793646,7,37.36459558070498,7
subject-02,1,193,1.20170402526855,truck,airplane,7,7_airplane_10_n02690373_2923.png,False,1.4119466082257561,2.1172056198120117,0.25,-2.7408251564021433,30.61505627632141,10,2.8107614607614604,4,33.10560264745681,4
subject-02,1,194,0.8558189868927,dog,dog,1,1_dog_10_n02097047_2376.png,True,-0.04548372202052783,0.9605541229248048,1.0,-0.20255222272997622,26.804524540901184,9,4.177777777777777,8,26.388354465434748,9
subject-02,1,195,1.50010418891907,knife,dog,40,40_dog_10_n02100583_14082.png,False,2.669293416566592,1.5692483186721802,0.1,-4.355704082516169,29.97170341014862,10,0.4948523698523698,8,39.021874340868166,6
subject-02,1,196,0.805305957794189,clock,clock,7,7_clock_10_n03196217_1272.png,True,-0.25832675514642417,1.485417723655701,0.3333333333333333,-2.5437528989663796,29.611161589622498,10,1.2467032967032963,6,36.73985343697937,9
subject-02,1,197,0.661233186721802,oven,airplane,40,40_airplane_10_n02690373_1279.png,False,-0.8653955873500289,1.323967695236206,0.0833333333333333,-4.8749072992583695,29.64840030670166,10,2.764224664224664,5,34.038630929922206,5
subject-02,1,198,0.727088928222656,chair,dog,15,15_dog_10_n02093859_3707.png,False,-0.5879040961456351,2.1158041954040527,0.125,-3.116809259990461,30.808536529541016,10,0.7773809523809523,7,35.56082906632176,6
subject-02,1,199,0.660847902297974,clock,clock,0,0_clock_10_n04548280_2169.png,True,-0.8670190319710946,0.0351300351321697,1.0,-0.0038098457773266888,24.810618480667472,9,6.124242424242424,5,25.65678984502521,4
subject-02,1,200,1.03648805618286,keyboard,bird,15,15_bird_10_n01843383_2843.png,False,0.7157882386206913,2.0372912883758545,0.0833333333333333,-4.449641907553257,30.26900839805603,9,0.4674353424353421,6,40.97720209182244,6
subject-02,1,201,0.868301153182983,clock,oven,15,15_oven_10_n04111531_8269.png,False,0.007111463432010464,1.934310793876648,0.3333333333333333,-1.7845523600913566,29.762409567832947,10,1.2418040293040291,9,35.871634144171615,6
subject-02,1,202,1.06794595718384,airplane,bear,10,10_bear_10_n02134084_27899.png,False,0.8483400808743982,2.3225314617156982,0.5,-1.7044345464617159,31.13037371635437,10,4.083766233766234,9,27.691191660925345,10
subject-02,1,203,0.815804004669189,clock,clock,0,0_clock_10_n03196217_484.png,True,-0.21409190764964825,0.0735824853181839,1.0,-0.008813662666466406,24.358636632561684,9,3.726465201465201,8,30.167495669626604,9
subject-02,1,204,0.797751903533936,oven,bottle,40,40_bottle_10_n04591713_2537.png,False,-0.290156717630247,1.5366042852401731,0.5,-2.6945118911715493,30.054837822914124,10,2.3428571428571425,6,31.901995212492167,0
subject-02,1,205,0.911311149597168,car,car,7,7_car_10_n03100240_1216.png,True,0.18833951993355413,1.810990810394287,0.1666666666666666,-3.766375771966115,30.280529022216797,10,0.7777888777888775,5,40.30346108604697,1
subject-02,1,206,0.843109846115112,knife,knife,1,1_knife_10_n03041632_33326.png,True,-0.09903529316567587,0.0158486738801002,1.0,-0.0016760558969037074,25.791427478194237,9,5.492857142857143,5,24.152544278753698,9
subject-02,1,207,0.931063890457153,clock,keyboard,10,10_keyboard_10_n03085013_2432.png,False,0.271570190360978,0.9504908919334412,0.2,-3.8913995629388127,29.079563319683075,10,2.2798090798090795,7,35.475795214437525,6
subject-02,1,208,0.763203144073486,oven,clock,10,10_clock_10_n03196217_8526.png,False,-0.435732282697992,1.835404396057129,0.5,-1.5948271308234636,30.05604100227356,10,2.374358974358974,9,34.79703133450307,9
subject-02,1,209,0.759171009063721,bottle,bottle,1,1_bottle_10_n04560804_22426.png,True,-0.4527221932372669,0.4520164430141449,1.0,-0.08009823590886248,28.543426126241684,10,4.393192918192918,7,28.918728463413064,9
subject-02,1,210,0.84288501739502,oven,airplane,10,10_airplane_10_n02690373_5427.png,False,-0.09998263739690125,1.0399678945541382,0.0833333333333333,-5.798921437547422,28.900144696235657,10,1.55037185037185,4,39.834888321166,3
subject-02,1,211,0.790455102920532,chair,chair,1,1_chair_10_n03376595_6942.png,True,-0.32090270935533216,0.1012245416641235,1.0,-0.012900234183466879,27.76526188850403,10,3.3298992673992673,9,30.41808631655723,9
subject-02,1,212,0.646239995956421,clock,clock,1,1_clock_10_n04548280_9700.png,True,-0.9285712918304584,0.055964071303606,1.0,-0.006503824464174686,24.78066173195839,9,5.086446886446886,6,27.843584786971082,6
subject-02,1,213,0.754197120666504,airplane,airplane,7,7_airplane_10_n02690373_2564.png,True,-0.47368030071541417,0.3511474430561065,1.0,-0.0970493335440557,27.021189779043198,9,5.018986568986569,8,27.940619615614356,9
subject-02,1,214,0.967713117599487,bicycle,bicycle,1,1_bicycle_10_n03792782_22416.png,True,0.4259963415126269,0.0505675673484802,1.0,-0.005787457966602559,24.29019832983613,9,8.083333333333332,3,17.983401832962826,8
subject-02,1,215,0.971801042556763,bear,cat,15,15_cat_10_n02123597_11940.png,False,0.4432213300477796,1.998232126235962,0.25,-2.578964045527956,30.580068111419678,10,1.4795995670995667,7,34.603720576873634,3
subject-02,1,216,0.983464002609253,elephant,elephant,10,10_elephant_10_n02504458_5197.png,True,0.4923646864669121,1.4405581951141355,1.0,-0.42300279559947096,30.077332735061646,10,3.337301587301587,1,30.23731676494543,10
subject-02,1,217,0.869235992431641,oven,bottle,15,15_bottle_10_n03937543_2333.png,False,0.011050526773103366,1.52124285697937,0.5,-1.2114047999167994,29.61355710029602,10,4.393589743589743,7,28.315312853693868,0
subject-02,1,218,1.02292919158936,elephant,elephant,10,10_elephant_10_n02504458_11265.png,True,0.6586562487692065,2.06291127204895,0.5,-1.5252872791397454,30.59604787826538,10,1.990079365079365,1,33.08267859492966,10
subject-02,1,219,1.05917596817017,clock,bicycle,40,40_bicycle_10_n03792782_1868.png,False,0.8113866236087497,1.5656139850616455,0.0833333333333333,-4.803535827924609,29.993873357772827,10,0.6867216117216113,5,38.346586991478986,6
subject-02,1,220,1.09318590164185,car,car,0,0_car_10_n03100240_1696.png,True,0.9546917772633675,0.0398008599877357,1.0,-0.0050446461793137755,25.815782465040684,9,4.14745670995671,7,32.43020831129689,9
subject-02,1,221,1.03250002861023,truck,truck,5,5_truck_10_n03417042_12128.png,True,0.6989841803431149,1.5536274909973145,1.0,-0.9034554032088455,29.55940341949463,10,5.926190476190476,3,25.225158802977706,9
subject-02,1,222,0.83237099647522,bottle,bottle,5,5_bottle_10_n02823428_4694.png,True,-0.14428479355061588,1.1498304605484009,1.0,-0.3402296827635876,27.939445853233337,9,4.3880341880341875,7,27.060720225556373,9
subject-02,1,223,0.788141012191772,knife,knife,0,0_knife_10_n03041632_32337.png,True,-0.33065342314993035,0.0760008990764617,1.0,-0.010903096344322264,25.379415288567543,9,6.176190476190476,5,22.538147275472337,9
subject-02,1,224,1.50006008148193,bottle,knife,5,5_knife_10_n03041632_1661.png,False,2.669107564304872,2.167729616165161,0.3333333333333333,-2.3583697993982624,30.532557487487793,10,3.0023809523809524,6,29.837107860681105,5
subject-02,1,225,0.499758005142212,clock,clock,7,7_clock_10_n03196217_4309.png,True,-1.54579167594983,1.247147798538208,1.0,-0.4605945464287439,28.265183210372925,9,2.97554945054945,9,32.281926853163725,9
subject-02,1,226,0.761650085449219,car,car,1,1_car_10_n02814533_48541.png,True,-0.4422762915232531,0.6692176461219788,1.0,-0.32712570956982223,26.181293070316315,9,4.320075757575758,7,30.845250684706514,8
subject-02,1,227,1.28130388259888,knife,dog,10,10_dog_10_n02088364_7448.png,False,1.7473506687808078,0.8926180005073547,0.2,-4.3866634185520015,29.097314655780792,10,0.9337662337662336,7,37.113409572701286,7
subject-02,1,228,0.99725604057312,knife,truck,10,10_truck_10_n03796401_180.png,False,0.5504791817883478,0.6378743052482605,0.1666666666666666,-5.73978040203418,28.30813091993332,10,3.6301587301587297,2,33.83645184942633,0
subject-02,1,229,1.05486011505127,oven,cat,15,15_cat_10_n02123159_737.png,False,0.7932012309536965,2.1460886001586914,0.25,-2.2565081653560193,30.806796312332153,10,2.876785714285714,7,33.8811072746162,3
subject-02,1,230,0.916959047317505,bird,cat,3,3_cat_10_n02124075_7692.png,False,0.21213765089174694,2.4097378253936768,0.1111111111111111,-3.2838161222764066,30.870163202285767,9,0.9126984126984126,5,36.66443562016676,3
subject-02,1,231,0.984774827957153,car,truck,7,7_truck_10_n04467665_9521.png,False,0.4978880147630874,2.364974021911621,0.3333333333333333,-1.8843917589248116,31.02880072593689,10,4.652380952380952,3,27.73394525898153,0
subject-02,1,232,0.988388061523438,cat,bicycle,10,10_bicycle_10_n03792782_7108.png,False,0.5131128311196873,2.366294860839844,0.0714285714285714,-4.684422403729675,31.11868381500244,10,0.8766233766233764,8,37.56253882729109,6
subject-02,1,233,1.10836219787598,chair,cat,15,15_cat_10_n02123159_7629.png,False,1.0186390197815274,2.4426002502441406,0.1428571428571428,-2.542651152508786,31.0856192111969,10,1.4539682539682535,7,34.58156222272102,3
subject-02,1,234,1.14428901672363,dog,knife,15,15_knife_10_n03041632_52848.png,False,1.1700212122686506,1.9382909536361697,1.0,-0.8792015581718411,29.977083563804626,10,8.5,2,22.33297497754892,10
subject-02,1,235,0.905829906463623,boat,oven,40,40_oven_10_n04111531_5727.png,False,0.16524360914251854,1.328027367591858,0.3333333333333333,-3.2350204022515148,29.68263351917267,10,0.7706349206349205,9,41.38068371960537,6
subject-02,1,236,0.667608022689819,boat,boat,3,3_boat_10_n02951358_406.png,True,-0.8385344101977603,0.2820976674556732,1.0,-0.04673991850801744,27.323086351156235,9,4.694444444444445,7,24.79610920410974,9
subject-02,1,237,1.00165104866028,oven,oven,10,10_oven_10_n04111531_11634.png,True,0.5689981039076227,1.559329867362976,1.0,-0.5256003144310556,30.273836731910706,10,2.4422979797979796,9,32.93793299845968,10
subject-02,1,238,0.949292898178101,bear,car,40,40_car_10_n02814533_7984.png,False,0.34838041860199903,1.4757249355316162,0.0625,-5.631174431594217,29.82367706298828,10,0.1559274059274058,5,47.49524103383864,1
subject-02,1,239,0.850992918014526,bicycle,clock,40,40_clock_10_n02708093_7810.png,False,-0.06581897327029525,1.4032533168792725,0.3333333333333333,-2.8766408053962618,29.772130012512207,10,1.3456709956709954,6,37.29763909994124,2
subject-02,1,240,0.981275081634521,elephant,elephant,3,3_elephant_10_n02504013_10330.png,True,0.48314139125279504,0.0876896753907203,1.0,-0.010816509238317455,26.130960665643215,9,4.896825396825397,1,25.96958838281609,9
subject-02,1,241,0.982163190841675,car,knife,15,15_knife_10_n03041632_40530.png,False,0.486883551657174,1.94655179977417,1.0,-0.9421458504125717,30.467230796813965,10,5.916666666666666,6,24.79426681581191,10
subject-02,1,242,0.956063032150269,truck,truck,0,0_truck_10_n04467665_71305.png,True,0.3769072338617749,0.1702800989151001,1.0,-0.03248305099965439,24.781364142894745,9,3.5595238095238093,9,25.344242068489446,9
subject-02,1,243,1.18402504920959,bicycle,bicycle,0,0_bicycle_10_n03792782_6546.png,True,1.3374540079184016,0.0423302240669727,1.0,-0.004843202293797729,25.387532833963633,9,7.666666666666666,6,19.57371691876953,9
subject-02,1,244,0.68784499168396,oven,oven,3,3_oven_10_n04111531_4370.png,True,-0.7532633833189811,0.0641350299119949,1.0,-0.008168170383769208,25.00511185824871,9,5.526923076923077,6,22.55828278733916,5
subject-02,1,245,1.3957040309906,elephant,cat,7,7_cat_10_n02123159_6954.png,False,2.2293901545986174,2.078490734100342,0.2,-2.658421129970359,30.61077117919922,10,1.2559523809523807,8,36.15865447913382,3
subject-02,1,246,0.639378070831299,boat,knife,40,40_knife_10_n03041632_49363.png,False,-0.957484880715921,1.808384895324707,1.0,-0.6339235335470661,30.390857934951782,10,9.25,1,22.26589415090864,10
subject-02,1,247,0.937129974365234,dog,dog,5,5_dog_10_n02091635_7361.png,True,0.29713040168139204,1.023972749710083,1.0,-0.2344608419858688,28.28283989429474,9,4.4523809523809526,7,27.65233368776196,9
subject-02,1,248,0.954884052276611,elephant,elephant,0,0_elephant_10_n02504013_3569.png,True,0.371939453137036,0.161530002951622,1.0,-0.021957028079838854,25.114549873396754,9,6.4,1,21.533949094278515,9
subject-02,1,249,0.766906023025513,knife,knife,0,0_knife_10_n03041632_11741.png,True,-0.42012973417708566,0.0745044872164726,1.0,-0.011182974009958883,25.40732019394636,9,5.313492063492063,5,24.29069369618846,9
subject-02,1,250,1.29054307937622,bear,bear,3,3_bear_10_n02132136_15407.png,True,1.7862811922681434,0.6158554553985596,1.0,-0.12863755010729438,28.68923020362854,10,6.95952380952381,9,23.724166635368277,9
subject-02,1,251,0.814456939697266,bicycle,bicycle,3,3_bicycle_10_n02835271_2594.png,True,-0.2197679361824571,0.198472112417221,1.0,-0.02921237508986256,26.901803344488144,9,5.4678571428571425,8,23.264055364162285,9
subject-02,1,252,0.94406795501709,bird,bird,1,1_bird_10_n01820546_4609.png,True,0.3263644601424263,1.307312250137329,1.0,-0.32212749790163075,28.72586679458618,10,3.6481893106893106,8,32.06533835105331,8
subject-02,1,253,0.797914981842041,bear,bear,1,1_bear_10_n02132136_4271.png,True,-0.2894695665653916,0.1512089371681213,1.0,-0.02023115251827274,25.076745748519897,9,9.583333333333332,4,16.05568105743653,9
subject-02,1,254,0.659921884536743,oven,airplane,15,15_airplane_10_n02690373_9427.png,False,-0.8709209248598474,1.3993821144104004,0.0714285714285714,-5.6461949674722005,29.45975923538208,10,1.0256715506715506,3,38.90069909710859,1
subject-02,1,255,0.727896928787231,oven,oven,3,3_oven_10_n04111531_857.png,True,-0.5844994836327687,2.3485360145568848,1.0,-1.2431779250257071,30.722541332244873,9,3.5989468864468863,8,32.24625377832026,9
subject-02,1,256,0.791504144668579,chair,bottle,3,3_bottle_10_n02823428_7650.png,False,-0.316482439347478,2.271394729614258,0.3333333333333333,-2.1954158496456206,30.544206380844116,9,1.1209457209457208,7,35.24390351521759,0
subject-02,1,257,1.33317494392395,keyboard,truck,40,40_truck_10_n03417042_17616.png,False,1.9659159423532198,1.5327221155166626,0.0625,-5.020746525963548,29.89604151248932,10,1.4476190476190474,1,36.2228206554804,0
subject-02,1,258,1.37903499603271,oven,oven,10,10_oven_10_n04111531_4392.png,True,2.1591530687806246,1.3557535409927368,0.1428571428571428,-3.4378746967261384,30.09248650074005,10,0.5695818070818066,9,38.31567351843803,6
subject-02,1,259,0.818782091140747,bear,truck,10,10_truck_10_n03796401_16425.png,False,-0.20154336386144217,1.6164517402648926,0.2,-3.873785228241826,29.856745719909668,10,4.237301587301587,2,31.134383086560263,0
subject-02,1,260,1.26883792877197,boat,clock,40,40_clock_10_n04548280_4143.png,False,1.6948237965920019,2.277966022491455,0.3333333333333333,-1.844817154841773,30.996020555496216,10,2.855194805194805,8,33.79270368172535,2
subject-02,1,261,1.01242995262146,dog,dog,3,3_dog_10_n02104365_3580.png,True,0.6144163782383121,1.1374354362487793,1.0,-0.28339164884060564,29.35131573677063,10,3.2107142857142854,9,28.949345126230554,9
subject-02,1,262,0.776056051254272,bottle,bottle,1,1_bottle_10_n04591713_4764.png,True,-0.38157493364040496,0.1539529114961624,1.0,-0.021133439879008394,26.383762255311012,9,4.810714285714285,7,24.37962880000859,0
subject-02,1,263,1.15406799316406,dog,elephant,15,15_elephant_10_n02504458_1000.png,False,1.2112261655964087,2.346940040588379,0.1111111111111111,-3.788002590972875,30.87317705154419,10,1.2085470085470085,1,36.92014359553631,0
subject-02,1,264,0.749822854995728,car,car,1,1_car_10_n02814533_43868.png,True,-0.49211182204134274,0.0292493253946304,1.0,-0.0032497940989238963,25.251196965575218,9,3.3373376623376623,8,32.60501589084663,9
subject-02,1,265,0.693594932556152,airplane,airplane,3,3_airplane_10_n02690373_3993.png,True,-0.7290352806418444,0.0877766162157058,1.0,-0.012370975230209792,26.167762473225594,9,6.953185703185703,4,24.727255565234394,9
subject-02,1,266,1.44957518577576,bottle,bottle,1,1_bottle_10_n02823428_8280.png,True,2.4563830747837607,1.564941644668579,0.5,-1.2785515102493203,29.439645767211914,9,3.2888278388278387,8,29.064644649599593,0
subject-02,1,267,0.723404169082642,oven,oven,40,40_oven_10_n04111531_4988.png,True,-0.6034302945482184,1.3875672817230225,0.25,-3.3380520404516214,29.813387632369995,10,0.6448773448773447,8,40.889476624694,6
subject-02,1,268,0.751168012619019,cat,cat,7,7_cat_10_n02123394_4232.png,True,-0.4864438303630903,1.9691625833511353,0.2,-3.171226618446469,30.123533844947815,9,0.6211038961038957,7,39.01492411297956,3
subject-02,1,269,0.684828042984009,elephant,elephant,0,0_elephant_10_n02504458_5482.png,True,-0.7659756780188395,0.0319126918911933,1.0,-0.0034232252590293798,24.678084954619408,9,8.083333333333334,1,19.85131893505411,0
subject-02,1,270,1.50006580352783,clock,knife,3,3_knife_10_n03041632_9256.png,False,2.6691316748685576,2.252676486968994,1.0,-1.0692621811697276,30.65698528289795,9,3.6456349206349206,9,27.443947207219587,9
subject-02,1,271,0.802411079406738,cat,cat,5,5_cat_10_n02125311_39208.png,True,-0.27052469115446,2.6042239665985107,0.5,-1.9484365065321256,31.28503179550171,5,1.2142857142857142,10,34.83715081212361,10
subject-02,1,272,0.532625913619995,oven,truck,40,40_truck_10_n03796401_10234.png,False,-1.4072985889628546,1.1887480020523071,0.0714285714285714,-5.48396104653913,29.446786999702454,10,1.5078754578754574,1,36.32678892790132,0
subject-02,1,273,0.912156105041504,boat,boat,0,0_boat_10_n03344393_3452.png,True,0.19189984650351677,0.147011250257492,1.0,-0.020102520577775,25.045016080141068,9,7.184523809523809,4,19.80859126569173,9
subject-02,1,274,0.711946964263916,clock,bird,40,40_bird_10_n01614925_13283.png,False,-0.6517066752817224,1.481386423110962,0.125,-4.148390919600835,29.88445019721985,10,1.016208791208791,6,38.99149599688236,6
subject-02,1,275,0.826292037963867,boat,boat,1,1_boat_10_n03344393_4001.png,True,-0.16989925363931,0.049441859126091,1.0,-0.00561109884093947,25.791380047798157,9,7.517857142857142,5,22.354966772019775,9
subject-02,1,276,1.22798180580139,bear,elephant,15,15_elephant_10_n02504013_5887.png,False,1.5226713581020446,2.097813129425049,0.1111111111111111,-3.8785157671593145,30.604979515075684,10,1.4902319902319898,1,37.13156242699959,0
subject-02,1,277,0.715329885482788,bear,elephant,7,7_elephant_10_n02504013_7674.png,False,-0.6374523091132147,2.4134600162506104,0.1666666666666666,-2.8072389500232924,31.07115411758423,10,1.9931068931068927,1,35.35234536224279,0
subject-02,1,278,1.46715998649597,keyboard,keyboard,0,0_keyboard_10_n03085013_26656.png,True,2.5304788553972077,0.777071475982666,1.0,-0.17303269977580218,26.510962426662445,9,4.922727272727273,6,26.32311431650463,9
subject-02,1,279,0.84527587890625,knife,knife,15,15_knife_10_n03041632_1964.png,True,-0.08990844020627654,1.5499391555786133,0.5,-1.2360087536808229,29.698302268981934,10,8.5,5,22.028084151005014,5
subject-02,1,280,0.464666843414307,clock,clock,3,3_clock_10_n02708093_4912.png,True,-1.693652721532995,0.0419731214642524,1.0,-0.004655811456721165,24.846200063824654,9,4.707575757575757,7,27.469500920827066,8
subject-02,1,281,1.22070097923279,chair,oven,0,0_oven_10_n04111531_10420.png,False,1.4919926750339148,0.1563668549060821,1.0,-0.023412617724177263,26.97453573346138,10,3.7081349206349206,8,30.920444477431854,6
subject-02,1,282,0.79041600227356,oven,oven,1,1_oven_10_n04111531_22445.png,True,-0.3210674648738039,0.0197327341884374,1.0,-0.002040141292535079,26.881106635555625,9,2.6450396825396822,9,30.430687215637512,9
subject-02,1,283,0.694201946258545,clock,clock,5,5_clock_10_n04548280_3563.png,True,-0.7264775516782072,1.362883448600769,1.0,-0.4133331865408957,29.2048362493515,10,4.467099567099567,7,31.327683263866763,9
subject-02,1,284,0.620457887649536,cat,cat,10,10_cat_10_n02123394_1957.png,True,-1.0372074641280238,2.051574468612671,0.1,-4.170573218774307,30.541583776474,10,0.8011904761904759,7,38.63789115603346,3
subject-02,1,285,0.742058038711548,car,chair,40,40_chair_10_n04099969_20684.png,False,-0.5248298569540213,1.789445400238037,0.0769230769230769,-4.767126700490363,30.189481019973755,10,0.7606282606282603,0,37.937182875130425,6
subject-02,1,286,,na,knife,5,5_knife_10_n03041632_20433.png,False,,1.9428309202194216,0.5,-1.3643567975556492,30.47480547428131,10,3.708333333333333,2,26.819146270445504,9
subject-02,1,287,0.991446018218994,clock,keyboard,5,5_keyboard_10_n04505470_4878.png,False,0.525997918192578,1.6110179424285889,0.3333333333333333,-1.6682947979984348,29.70518159866333,10,2.5345959595959595,6,31.722116361032793,6
subject-02,1,288,0.697546005249023,airplane,airplane,1,1_airplane_10_n02690373_5773.png,True,-0.7123869364213559,0.0192501377314329,1.0,-0.0019462558450151729,25.22787374444306,9,6.453185703185703,4,24.492907080148864,3
subject-02,1,289,1.02920198440552,dog,dog,1,1_dog_10_n02113624_8023.png,True,0.6850874542025233,0.4893962144851684,1.0,-0.08318180562520629,26.0780987739563,9,4.311111111111111,8,25.38299990940411,9
subject-02,1,290,0.659090995788574,cat,bird,40,40_bird_10_n02006656_10568.png,False,-0.8744219796274321,1.793152093887329,0.1111111111111111,-4.140618521840359,30.368189573287964,10,0.7847985347985347,6,39.44158582322978,6
subject-02,1,291,0.606873035430908,bicycle,bicycle,1,1_bicycle_10_n02835271_17184.png,True,-1.0944489561229096,0.0366164222359657,1.0,-0.003991692251952419,24.515572886914015,9,8.166666666666666,3,18.243351730654854,8
subject-02,1,292,0.972733974456787,car,car,1,1_car_10_n02814533_83577.png,True,0.44715235653430757,0.0805644243955612,1.0,-0.013349370229201692,25.484305188059807,9,2.686706349206349,9,34.02997775854857,8
subject-02,1,293,0.784296035766602,bird,bird,0,0_bird_10_n02011460_3892.png,True,-0.34685471733553036,0.3681111335754394,1.0,-0.058407174232128774,25.753425497561693,9,4.029563492063492,7,30.492681914865116,9
subject-02,1,294,0.77435302734375,bicycle,bicycle,7,7_bicycle_10_n03792782_6149.png,True,-0.3887508401554256,2.226548194885254,0.1111111111111111,-3.748261740927318,30.97583556175232,10,1.025335775335775,8,34.7096606685828,7
subject-02,1,295,0.826194047927856,airplane,airplane,5,5_airplane_10_n02690373_7489.png,True,-0.17031214704231726,2.371307373046875,0.3333333333333333,-1.8703481063818101,30.758266925811768,9,2.807081807081807,5,32.799117748681574,3
subject-02,1,296,0.977927207946777,clock,cat,40,40_cat_10_n02123597_6542.png,False,0.4690347022868224,1.7414902448654177,0.1666666666666666,-3.897680445079814,30.199405312538147,10,0.534523809523809,4,39.93744223175747,6
subject-02,1,297,0.715500116348267,oven,bottle,15,15_bottle_10_n02823428_8114.png,False,-0.636735019843756,1.7205907106399536,0.3333333333333333,-2.298692285965152,29.85667335987091,10,2.3491452991452992,6,32.10155929672324,0
subject-02,1,298,0.701888084411621,elephant,elephant,1,1_elephant_10_n02504458_11345.png,True,-0.6940910370161201,0.0300024822354316,1.0,-0.003190116814287216,25.21011772379279,9,7.0,1,21.461460787021405,9
subject-02,1,299,0.775187015533447,knife,knife,1,1_knife_10_n03041632_40887.png,True,-0.38523672549918286,0.0089425425976514,1.0,-0.0008309358565433317,22.926195922365878,8,7.283333333333333,5,17.418019928421856,5
subject-02,1,300,0.855202913284302,truck,truck,5,5_truck_10_n03796401_4878.png,True,-0.04807962604332004,0.6703060269355774,1.0,-0.13555290799517067,28.952735006809235,10,5.376190476190477,3,26.223147360197643,10
subject-02,1,301,0.6249680519104,keyboard,keyboard,7,7_keyboard_10_n03085013_6828.png,True,-1.0182033169147142,0.0841640904545784,1.0,-0.010364052393285193,26.09484676271677,9,4.917099567099567,6,28.21747636498273,9
subject-02,1,302,1.0267870426178,truck,truck,3,3_truck_10_n04467665_19645.png,True,0.6749117917230791,0.1722742021083831,1.0,-0.024965780731493685,27.042020171880722,9,5.876190476190477,3,24.6259710356476,9
subject-02,1,303,0.740557909011841,boat,car,40,40_car_10_n04285008_11748.png,False,-0.5311508430652516,1.134227275848389,0.125,-4.699295805085818,29.21083164215088,10,0.25636446886446873,5,44.80046135081272,1
subject-02,1,304,0.650490045547485,keyboard,keyboard,10,10_keyboard_10_n04505470_9570.png,True,-0.910663170657733,1.5176146030426023,0.3333333333333333,-2.9266762529398482,29.653738260269165,10,1.968337218337218,6,34.01327290377833,6
subject-02,1,305,0.804080963134766,elephant,elephant,0,0_elephant_10_n02504458_10428.png,True,-0.2634884249874101,0.0564162656664848,1.0,-0.006493205659321073,24.656913001090288,9,8.333333333333332,1,19.643648880184248,0
subject-02,1,306,0.681958913803101,car,car,10,10_car_10_n02814533_32924.png,True,-0.7780651164903184,2.462899923324585,0.0666666666666666,-4.567450383461649,31.265931844711304,9,0.213629426129426,5,45.34755607553525,2
subject-02,1,307,0.763949871063232,dog,dog,7,7_dog_10_n02097047_911.png,True,-0.43258585413785666,1.3876886367797852,1.0,-0.3653473829812471,29.765183925628662,10,3.5968253968253965,8,29.637231643394127,9
subject-02,1,308,0.835819005966187,oven,oven,0,0_oven_10_n04111531_136.png,True,-0.1297561697202558,0.0039268368855118,1.0,-0.0003550682935686543,25.160206803120673,9,5.156547619047618,6,26.900231540522807,6
subject-02,1,309,0.847746849060059,dog,dog,0,0_dog_10_n02094258_4979.png,True,-0.07949669512413927,0.965384840965271,1.0,-0.20564824241695898,26.81385576725006,9,3.99563492063492,8,27.787826069775615,9
subject-02,1,310,0.653128862380981,cat,cat,3,3_cat_10_n02123045_20366.png,True,-0.8995441823743414,0.1542432904243469,1.0,-0.0208309843290402,26.727802991867065,9,4.753968253968254,5,26.94784734202053,9
subject-02,1,311,1.50011205673218,cat,oven,7,7_oven_10_n04111531_13862.png,False,2.6693265685916487,2.3684799671173096,1.0,-1.6583272599256513,30.85866928100586,10,2.6613095238095235,10,31.949671481336754,6
subject-02,1,312,0.564821004867554,clock,clock,1,1_clock_10_n04548280_5525.png,True,-1.2716405024218227,0.0414873659610748,1.0,-0.004581200271679497,24.266713298857212,9,6.6337662337662335,4,24.97999535307532,6
subject-02,1,313,1.2167181968689,bear,bear,7,7_bear_10_n02133161_2281.png,True,1.475210718106377,1.3920491933822632,1.0,-0.4184863180130505,29.78827702999115,10,5.361111111111111,9,24.985053719126785,10
subject-02,1,314,1.10256814956665,cat,bird,15,15_bird_10_n02002724_383.png,False,0.9942250648426795,1.9172885417938232,0.25,-2.783860726303531,30.598356008529663,10,1.3886294261294259,8,36.84590813557048,6
subject-02,1,315,0.870224952697754,truck,truck,5,5_truck_10_n04467665_34253.png,True,0.015217635862324509,1.6941349506378174,1.0,-0.6578983195848015,29.609991312026978,10,4.55952380952381,5,25.79092991490808,10
subject-02,1,316,0.640246152877808,clock,clock,10,10_clock_10_n02708093_135.png,True,-0.9538271072844215,1.9661836624145508,1.0,-1.0921696488412438,30.25485348701477,10,3.7909090909090906,8,32.74448223636451,9
subject-02,1,317,0.885778188705444,knife,knife,3,3_knife_10_n03041632_12949.png,True,0.08075316176285358,0.1468545794486999,1.0,-0.024587816724857586,27.755057275295258,10,4.816666666666666,9,23.987513890919082,9
subject-02,1,318,0.615751981735229,cat,cat,7,7_cat_10_n02123597_14267.png,True,-1.057036393540529,2.442399740219116,0.25,-2.31923823002026,31.122159957885742,10,2.070075757575757,8,35.12486414855771,3
subject-02,1,319,0.783613920211792,keyboard,keyboard,7,7_keyboard_10_n04505470_4458.png,True,-0.3497288974474571,0.1609969437122345,1.0,-0.022065424616410714,25.944745868444443,9,5.083838383838383,6,26.327728907977946,9
subject-02,1,320,0.723250150680542,oven,keyboard,15,15_keyboard_10_n03085013_21397.png,False,-0.6040792705539187,2.1380646228790283,0.3333333333333333,-1.890675637496616,30.672126293182373,10,2.9282828282828284,7,33.09629131531949,6
subject-02,1,321,1.04640698432922,bear,elephant,1,1_elephant_10_n02504458_5671.png,False,0.7575828961517586,1.9547295570373535,0.5,-1.4025514132027868,29.800188302993774,10,3.5,1,28.366746286972127,0
subject-02,1,322,0.522511959075928,cat,cat,0,0_cat_10_n02124075_17347.png,True,-1.4499150148726627,0.0274145863950252,1.0,-0.002882637921444518,23.870775809511542,9,4.6269841269841265,7,25.651183111273024,5
subject-02,1,323,1.26818513870239,dog,bottle,10,10_bottle_10_n02823428_5135.png,False,1.692073183118933,2.108736038208008,0.5,-1.67143795723179,30.614005088806152,10,1.7475579975579973,9,32.35790822572565,0
subject-02,1,324,0.655768156051636,oven,clock,15,15_clock_10_n03196217_2488.png,False,-0.8884231848773068,2.156385660171509,0.5,-1.5504896274775701,30.789481163024902,10,1.898351648351648,6,35.102721376085626,9
subject-02,1,325,1.04148316383362,knife,oven,0,0_oven_10_n04111531_6313.png,False,0.7368357561058277,0.0322574190795421,1.0,-0.0038215729499216653,23.22112254332751,8,4.647619047619047,7,25.186430452166505,6
subject-02,1,326,0.801464080810547,knife,knife,10,10_knife_10_n03041632_6309.png,True,-0.27451498944336605,1.6787710189819336,0.5,-1.1939256841481904,29.87578010559082,10,4.666666666666666,6,25.249319658680722,10
subject-02,1,327,0.8214111328125,car,car,7,7_car_10_n02814533_3594.png,True,-0.19046556445766835,1.539134502410889,0.25,-3.302045153341988,29.7211492061615,10,0.5575757575757574,5,41.42239563103357,2
subject-02,1,328,0.895098924636841,clock,keyboard,5,5_keyboard_10_n04505470_4371.png,False,0.12002726078263604,1.3313707113265991,0.5,-1.5120030592035905,28.992472290992737,10,3.4072871572871573,7,32.458659525378,6
subject-02,1,329,0.76521897315979,knife,knife,1,1_knife_10_n03041632_24798.png,True,-0.42723833203517175,0.0179760009050369,1.0,-0.0018015031911577364,25.561459727585316,9,7.166666666666666,5,20.452166762743953,9
subject-02,1,330,0.634711980819702,cat,dog,7,7_dog_10_n02111277_50807.png,False,-0.9771460407894916,2.2774007320404053,1.0,-1.4652355609588246,30.791524648666382,9,3.1607142857142856,9,31.71488018333691,9
subject-02,1,331,0.544534921646118,cat,cat,1,1_cat_10_n02124075_7663.png,True,-1.3571184783055155,0.1318289041519165,1.0,-0.017229555940987906,24.566160932183266,9,4.926923076923076,7,24.910468070426127,5
subject-02,1,332,0.734463930130005,cat,chair,10,10_chair_10_n02791124_6865.png,False,-0.5568285933836021,2.28132700920105,0.0666666666666666,-5.056566935950764,30.85676908493042,10,0.8017857142857139,0,39.48499651998422,7
subject-02,1,333,0.902112007141113,keyboard,keyboard,3,3_keyboard_10_n04505470_5091.png,True,0.14957777039195566,0.0861275568604469,1.0,-0.010705891108796991,25.723609037697315,9,5.0254329004329,6,27.094407115147153,9
subject-02,1,334,1.13190603256226,knife,keyboard,10,10_keyboard_10_n03085013_4374.png,False,1.1178439432532477,1.1158452033996582,0.25,-3.8417900437419457,28.947839975357056,10,1.1588383838383838,6,37.33031347281387,6
subject-02,1,335,1.18390202522278,clock,chair,5,5_chair_10_n04429376_1935.png,False,1.3369356307993259,2.059575080871582,0.125,-3.6065211664124632,30.50832748413086,10,1.0914682539682536,0,36.50229965943598,7
subject-02,1,336,0.825712919235229,oven,bottle,5,5_bottle_10_n04560804_2176.png,False,-0.17233944360501016,2.261953830718994,0.3333333333333333,-1.8579813063718023,30.9711172580719,10,1.6074786324786323,7,33.40224359563576,0
subject-02,1,337,0.475457906723022,cat,cat,0,0_cat_10_n02123045_8215.png,True,-1.6481832122544833,0.1309113800525665,1.0,-0.01704346754846471,25.22428759932518,9,4.456684981684981,7,27.319896347664987,9
subject-02,1,338,0.549360990524292,cat,cat,10,10_cat_10_n02123394_3144.png,True,-1.336783227055748,1.204308032989502,0.2,-4.257715423440967,29.161096811294556,10,0.7504079254079252,7,39.81958954281778,7
subject-02,1,339,1.27302885055542,bicycle,keyboard,5,5_keyboard_10_n03085013_26573.png,False,1.7124827752733887,2.2382349967956543,0.2,-2.431860688779545,31.02046275138855,10,1.723989898989899,6,34.37120387152135,6
subject-02,1,340,0.657013893127441,bear,bear,10,10_bear_10_n02132136_10468.png,True,-0.8831741142429833,2.0252132415771484,0.125,-3.606774527010177,30.503154039382935,10,2.353210678210678,4,31.57289602531736,7
subject-02,1,341,0.878705024719238,elephant,elephant,1,1_elephant_10_n02504013_3739.png,True,0.0509494912349,0.0548881031572818,1.0,-0.006321280704080492,25.160594914108515,9,6.5,1,22.461128445309654,9
subject-02,1,342,0.742522954940796,bear,bear,3,3_bear_10_n02133161_1480.png,True,-0.5228708736550861,0.0788134336471557,1.0,-0.00958503660597109,26.040490984916687,9,8.833333333333332,6,19.332088680844073,9
subject-02,1,343,0.786137819290161,chair,chair,7,7_chair_10_n04099969_34325.png,True,-0.3390941296512896,1.7042322158813477,1.0,-0.7637410108692824,30.19555974006653,10,2.408928571428571,10,31.823053496240686,10
subject-02,1,344,0.670197010040283,airplane,airplane,1,1_airplane_10_n02690373_5010.png,True,-0.8276253847397409,0.0191656965762376,1.0,-0.0019340728834481452,24.493014002218843,9,7.6515984015984015,3,22.212020923978795,8
subject-02,1,345,0.601999044418335,clock,clock,3,3_clock_10_n04548280_5765.png,True,-1.114986133343489,0.0488220006227493,1.0,-0.005597192850112636,25.912583723664284,9,3.741208791208791,8,29.72470751369732,8
subject-02,1,346,0.677775144577026,chair,chair,0,0_chair_10_n04099969_2038.png,True,-0.7956939569670982,0.0601888485252857,1.0,-0.007031307006321895,26.009371001273394,9,4.015018315018315,8,27.15492459731146,9
subject-02,1,347,0.923707008361816,knife,knife,7,7_knife_10_n03041632_2153.png,True,0.24057103771726351,0.0966022759675979,1.0,-0.014657101475585911,25.97662962973118,9,6.45,5,20.560357879270683,9
subject-02,1,348,0.771497964859009,elephant,elephant,3,3_elephant_10_n02504013_9021.png,True,-0.4007810068245265,1.8192834854125977,1.0,-1.0447221120013745,30.21236562728882,10,3.811111111111111,9,28.915304952161048,0
subject-02,1,349,1.31317710876465,bottle,bottle,3,3_bottle_10_n03983396_12728.png,True,1.8816525361148762,2.2910618782043457,0.5,-1.688597890026819,30.877421855926514,9,2.0178571428571423,7,31.898085515423073,0
subject-02,1,350,0.806934118270874,car,elephant,15,15_elephant_10_n02504013_5463.png,False,-0.2514662951728694,2.2740843296051025,0.1428571428571428,-2.914231567177854,30.86887836456299,10,1.6856893106893103,1,35.15083094708886,0
subject-02,1,351,1.0929229259491,cat,oven,1,1_oven_10_n04111531_10313.png,False,0.9535836959409405,0.0236884616315364,1.0,-0.0024783302130922465,25.737724717706442,9,4.420609945609946,7,28.843632120761942,9
subject-02,1,352,1.26882576942444,elephant,bird,10,10_bird_10_n01616318_2290.png,False,1.6947725616442015,1.3273069858551023,0.0769230769230769,-5.5359700374334935,29.738423585891724,10,0.1764041514041511,6,44.182808582130626,6
subject-02,1,353,1.05041718482971,cat,dog,7,7_dog_10_n02106662_2384.png,False,0.7744803828636059,1.9486045837402344,0.3333333333333333,-2.5018623603898673,30.381366729736328,10,1.145238095238095,10,34.4757517067685,7
subject-02,1,354,0.850078105926514,chair,keyboard,7,7_keyboard_10_n03085013_22942.png,False,-0.06967364963850486,2.1335864067077637,0.3333333333333333,-1.9499069279789147,30.264351844787598,9,4.342171717171717,6,30.5211926687625,6
subject-02,1,355,0.806219100952148,clock,clock,0,0_clock_10_n03196217_2414.png,True,-0.25447911102595155,1.9842767715454104,0.2,-3.1952671954053304,29.731802225112915,10,0.7468004218004214,8,39.8194512476048,6
subject-02,1,356,0.810144901275635,boat,boat,3,3_boat_10_n03344393_5091.png,True,-0.2379372551283762,1.4904916286468506,1.0,-0.44298499083353077,29.02921414375305,10,4.176190476190476,9,27.120949988479676,9
subject-02,1,357,1.15779113769531,chair,oven,0,0_oven_10_n04111531_7189.png,False,1.2269141056970096,0.148233562707901,1.0,-0.02253436431846955,26.464454799890518,10,5.191605616605616,6,25.578131094858616,6
subject-02,1,358,0.997370004653931,chair,elephant,15,15_elephant_10_n02504013_9393.png,False,0.5509593838482937,1.7756009101867676,0.1111111111111111,-3.968236092159242,29.857353925704956,9,1.0363247863247862,1,37.49246431094148,0
subject-02,1,359,1.05535006523132,car,oven,40,40_oven_10_n04111531_13625.png,False,0.7952656979687124,1.5293962955474854,0.2,-3.210254241603807,29.991113424301147,10,0.661111111111111,9,41.0502535114172,6
subject-02,1,360,0.64519214630127,chair,chair,10,10_chair_10_n04429376_16459.png,True,-0.9329865388042109,2.105987071990967,0.0909090909090909,-4.052399734207868,30.638798713684082,10,0.9891233766233762,7,36.284152574552074,7
subject-02,1,361,0.859076976776123,bird,bicycle,7,7_bicycle_10_n03792782_11950.png,False,-0.031755769825681256,2.3295812606811523,0.0714285714285714,-4.178022272399182,31.0431547164917,10,0.9626373626373623,8,36.01739036575351,6
subject-02,1,362,0.554777860641479,clock,clock,0,0_clock_10_n04548280_9294.png,True,-1.3139585601061055,0.0410511121153831,1.0,-0.0046795253266054705,24.842774682678282,9,5.348351648351648,6,26.52607326102154,6
subject-02,1,363,0.768661975860596,bird,bird,0,0_bird_10_n02017213_1163.png,True,-0.4127308049480305,0.5536997318267822,1.0,-0.0965260726350802,26.374031364917755,9,4.073051948051948,7,32.02947266492214,9
subject-02,1,364,0.904723882675171,bear,elephant,10,10_elephant_10_n02504013_3425.png,False,0.16058323810469327,2.0100390911102295,0.1111111111111111,-3.744443915320398,30.617236852645874,10,1.0972222222222223,1,35.6719357324052,0
subject-02,1,365,0.994302034378052,knife,car,5,5_car_10_n04285008_7428.png,False,0.5380321032889611,1.3045287132263184,0.1666666666666666,-3.913206600754592,29.1547589302063,10,0.8269230769230766,8,41.191993923655644,0
subject-02,1,366,0.57195520401001,boat,boat,1,1_boat_10_n03662601_1319.png,True,-1.241579652547958,0.0902446135878562,1.0,-0.011337530906976362,25.489039443433285,9,7.128968253968254,4,21.737718002800538,9
subject-02,1,367,1.06818819046021,truck,dog,7,7_dog_10_n02099849_3128.png,False,0.8493607614034966,2.0638723373413086,0.125,-3.752359639104182,30.32576823234558,10,0.6591269841269838,2,37.87419498991185,6
subject-02,1,368,0.625684976577759,clock,bicycle,40,40_bicycle_10_n03792782_43328.png,False,-1.0151824642070713,1.698481559753418,0.0714285714285714,-4.585564306681773,30.089343547821045,10,0.7896214896214894,5,36.38464920362871,6
subject-02,1,369,0.777570962905884,bear,bicycle,10,10_bicycle_10_n03792782_16290.png,False,-0.37519166190633346,2.142448902130127,0.0769230769230769,-4.432986916898226,30.84734058380127,10,0.8578144078144074,10,37.1250401781938,6
subject-02,1,370,0.837152004241943,keyboard,keyboard,0,0_keyboard_10_n03085013_8865.png,True,-0.12413941298982499,1.7919330596923828,1.0,-0.6260582874924494,28.87992835044861,9,5.067929292929293,6,28.16698970945905,9
subject-02,1,371,0.745322942733765,oven,truck,10,10_truck_10_n03796401_22618.png,False,-0.5110727711613956,1.7497185468673706,1.0,-0.9018790990499823,30.114288210868835,10,5.359523809523809,2,26.78372049337373,10
subject-02,1,372,0.864814043045044,knife,knife,7,7_knife_10_n03041632_49513.png,True,-0.0075819159168213504,0.8094830513000488,1.0,-0.16715678332083675,28.222249031066895,10,6.0,8,21.75235326264574,9
subject-02,1,373,0.626607179641724,bottle,bottle,0,0_bottle_10_n03983396_16224.png,True,-1.0112966450274394,0.0205405037850141,1.0,-0.002361700041021244,23.77164761442691,8,4.325396825396825,7,25.05979663473876,8
subject-02,1,374,0.624864101409912,boat,airplane,15,15_airplane_10_n02690373_6336.png,False,-1.0186413254882183,2.06116247177124,0.0625,-5.072888192047603,30.532174348831177,10,2.487078199578199,4,36.149277014036414,1
subject-02,1,375,0.714349031448364,knife,car,15,15_car_10_n03100240_5383.png,False,-0.6415852615705583,2.337002754211426,0.0666666666666666,-4.578415589718772,31.19114899635315,10,0.12259407259407239,5,45.160096782815145,2
subject-02,1,376,0.630162954330444,boat,bear,15,15_bear_10_n02133161_156.png,False,-0.9963139389144582,2.1098711490631104,0.1666666666666666,-2.982927470932972,30.690495014190674,10,3.2094988344988344,10,30.962495498765733,6
subject-02,1,377,0.936047077178955,boat,boat,0,0_boat_10_n02951358_29756.png,True,0.292567477505104,0.0572798736393451,1.0,-0.0067181444478495635,24.61498561827466,9,6.267857142857142,7,21.485739137524416,8
subject-02,1,378,0.789777994155884,oven,oven,0,0_oven_10_n04111531_15052.png,True,-0.3237557927240358,0.0390880927443504,1.0,-0.004504379322503024,25.561797849833965,9,4.572557997557997,7,26.857223661195054,6
subject-02,1,379,1.16771411895752,dog,dog,0,0_dog_10_n02100583_10960.png,True,1.268725841544038,1.00380539894104,1.0,-0.21344270055786824,26.938227355480194,9,3.8912698412698408,8,26.559569251018207,9
subject-02,1,380,0.86586594581604,truck,truck,5,5_truck_10_n04467665_44714.png,True,-0.0031495906271280494,0.5897831916809082,1.0,-0.11087204574208334,27.671102046966553,9,6.0095238095238095,3,24.209369605148574,9
subject-02,1,381,0.829154014587402,knife,knife,15,15_knife_10_n03041632_28443.png,True,-0.1578399533724296,2.235521078109741,1.0,-1.2373427088210072,30.80019187927246,10,6.2,5,25.006863162833117,5
subject-02,1,382,0.66107702255249,bear,bicycle,15,15_bicycle_10_n02835271_3535.png,False,-0.866053604817109,2.051234722137451,0.0625,-5.080532658297581,30.629234313964844,10,0.8060897435897435,1,40.072091066844735,6
subject-02,1,383,0.764902114868164,airplane,airplane,1,1_airplane_10_n02690373_11908.png,True,-0.42857345449890805,0.0145689155906438,1.0,-0.0014312371828633164,25.253662833943963,9,7.680891330891331,3,22.3664885773454,3
subject-02,1,384,0.526524066925049,boat,boat,10,10_boat_10_n03662601_8067.png,True,-1.4330094913062623,1.1187946796417236,0.3333333333333333,-3.5577086599719223,29.01268744468689,10,2.267857142857143,8,32.99984553717562,2
subject-02,1,385,1.03853702545166,bottle,chair,1,1_chair_10_n03376595_9054.png,False,0.7244218296314902,0.4431137442588806,1.0,-0.07552367627890344,28.469917714595795,10,2.724242424242424,9,33.89813094519835,10
subject-02,1,386,0.524180889129639,bear,bear,5,5_bear_10_n02134084_20723.png,True,-1.442882767132895,1.6408483982086182,1.0,-0.6452084649778038,30.164507150650024,10,5.916666666666666,9,24.386531767269396,10
subject-02,1,387,0.598097085952759,bicycle,bicycle,3,3_bicycle_10_n02835271_22355.png,True,-1.1314275285590638,1.1611359119415283,1.0,-0.26656699752756013,28.63471508026123,9,4.427777777777777,8,25.3048193266207,9
subject-02,1,388,0.765950918197632,oven,bear,40,40_bear_10_n02133161_444.png,False,-0.4241541890978734,1.6266274452209473,0.1428571428571428,-3.97554485055644,30.176970720291138,10,3.1548340548340548,10,32.81201690310708,6
subject-02,1,389,0.667760848999023,bear,bear,7,7_bear_10_n02133161_14810.png,True,-0.8378904572261621,1.9510266780853271,0.25,-2.69041041552317,30.368618965148926,10,3.227380952380952,4,29.20222892394351,4
subject-02,1,390,0.821498870849609,cat,cat,0,0_cat_10_n02123045_4237.png,True,-0.19009586914792198,0.4417975544929504,1.0,-0.07686443859405231,27.63207083940506,10,3.379304029304029,8,31.344948635510345,9
subject-02,1,391,0.613313913345337,bicycle,bicycle,0,0_bicycle_10_n02835271_14966.png,True,-1.0673095028815065,0.0475372597575187,1.0,-0.005496619932025006,25.38230236619711,9,8.416666666666666,6,18.133573621610235,9
subject-02,1,392,0.585259914398193,airplane,boat,5,5_boat_10_n02951358_12432.png,False,-1.185518573566536,1.13411283493042,0.3333333333333333,-3.2742748977543226,28.81495440006256,9,2.7972222222222225,4,31.796381203798404,2
subject-02,1,393,0.68886399269104,bear,bear,7,7_bear_10_n02132136_4888.png,True,-0.7489696937704432,1.9669476747512815,0.5,-1.829931476141233,30.250438809394836,9,5.45,6,25.43459158624183,6
subject-02,1,394,0.925042152404785,bottle,chair,0,0_chair_10_n02791124_13033.png,False,0.24619683590907873,0.0775870010256767,1.0,-0.00941643009147512,25.516874944791198,9,4.223290598290598,8,27.529463087729287,9
subject-02,1,395,1.05059194564819,chair,keyboard,15,15_keyboard_10_n03085013_12079.png,False,0.7752167596626359,1.6327636241912842,0.2,-3.021612241017635,29.48227334022522,10,1.3818181818181816,6,34.98656226598579,6
subject-02,1,396,1.09284210205078,cat,cat,7,7_cat_10_n02123597_14094.png,True,0.9532431342289521,1.9820486307144165,0.25,-2.817272682695067,30.398309588432312,10,1.0151154401154399,7,36.54930827161879,3
subject-02,1,397,0.634194135665894,airplane,airplane,10,10_airplane_10_n02690373_18468.png,True,-0.9793280468024571,1.383419156074524,1.0,-0.4857902550202729,29.59245789051056,10,2.841280941280941,9,32.84477183827333,9
subject-02,1,398,1.37806606292725,car,car,0,0_car_10_n04285008_11931.png,True,2.155070346664317,0.0345996953547,1.0,-0.003938074322295282,24.659508273005486,9,4.278113553113553,7,30.215470501810685,8
subject-02,1,399,1.50016307830811,clock,bicycle,5,5_bicycle_10_n02835271_7450.png,False,2.669541554451131,2.1002917289733887,0.0833333333333333,-4.662318048985038,30.2845242023468,10,4.444444444444443,0,32.797567999016,0
subject-02,1,400,0.837565898895264,bird,cat,15,15_cat_10_n02125311_44920.png,False,-0.1223954155503599,2.216949462890625,0.25,-2.587847325756529,31.004078149795532,10,1.232478632478632,7,36.56843139792103,3
subject-02,1,401,0.68132495880127,boat,boat,5,5_boat_10_n03344393_5916.png,True,-0.7807363660246099,1.0982240438461304,1.0,-0.27052449653148813,29.452651858329773,10,4.167857142857143,8,26.97710982133415,10
subject-02,1,402,0.607309103012085,airplane,airplane,5,5_airplane_10_n02690373_6992.png,True,-1.0926115302491894,1.7155815362930298,0.5,-1.6769584851053245,29.950940251350403,10,3.292796092796093,4,31.908023660639895,3
subject-02,1,403,0.584941148757935,clock,dog,40,40_dog_10_n02097047_2426.png,False,-1.1868617328848283,1.8030848503112793,0.125,-3.7912044566343566,30.326202869415283,10,0.5099317349317348,8,37.983299054435285,6
subject-02,1,404,0.714603900909424,oven,truck,5,5_truck_10_n04467665_30023.png,False,-0.640511336880012,2.317446231842041,0.1666666666666666,-2.8059852500416866,30.735727548599243,10,3.069047619047618,5,29.43074135078728,0
subject-02,1,405,0.680905103683472,keyboard,oven,7,7_oven_10_n04111531_2086.png,False,-0.7825054786345719,2.2014431953430176,0.2,-2.512346193210386,30.64867854118347,9,0.8184523809523807,8,36.539216870008076,6
subject-02,1,406,0.590449094772339,boat,elephant,15,15_elephant_10_n02504458_7835.png,False,-1.1636533061299579,2.3598146438598633,0.1428571428571428,-2.7033297792295765,31.069145441055298,10,0.9494921744921743,1,34.785162127996685,0
subject-02,1,407,0.696190118789673,oven,oven,1,1_oven_10_n04111531_14383.png,True,-0.7181001354065045,0.9317070245742798,1.0,-0.21892810372331825,29.111798882484436,10,3.891443278943279,8,30.593583859251783,10
subject-02,1,408,0.777884006500244,cat,boat,10,10_boat_10_n03344393_7826.png,False,-0.3738726131517185,0.5407094955444336,0.0909090909090909,-6.112463411799721,28.112321138381958,10,1.5988455988455987,4,36.74139079891978,2
subject-02,1,409,0.795777082443237,cat,cat,0,0_cat_10_n02123597_2370.png,True,-0.29847787592003483,0.6098179817199707,1.0,-0.15052496356898654,28.25705075263977,10,3.2069597069597067,9,30.395070629677917,9
subject-02,1,410,1.07184791564941,car,car,3,3_car_10_n03100240_8987.png,True,0.8647814760899487,0.7761694192886353,0.5,-1.3262497414565653,27.193860054016113,9,2.4072802197802194,8,34.53672537651636,8
subject-02,1,411,0.803620100021362,airplane,airplane,10,10_airplane_10_n02690373_1862.png,True,-0.2654303299704086,2.4583210945129395,0.25,-2.3333957389807525,31.17206573486328,10,3.1622766122766124,4,32.283759970739446,1
subject-02,1,412,1.0391161441803,bird,bear,7,7_bear_10_n02134418_258.png,False,0.7268620195971998,1.7239344120025637,0.1111111111111111,-4.342848742643473,29.795814990997314,9,2.521800421800422,4,33.11612990651682,4
subject-02,1,413,0.862875938415527,truck,truck,1,1_truck_10_n04467665_50932.png,True,-0.015748364756332463,0.0810463428497314,1.0,-0.010020102908076683,25.5703477114439,9,4.65952380952381,8,23.892254634024187,9
subject-02,1,414,0.702674150466919,oven,oven,0,0_oven_10_n04111531_21173.png,True,-0.6907788483306893,0.0143958814442157,1.0,-0.0015913983161698966,24.017919696401805,8,3.759722222222222,8,27.89579272010556,8
subject-02,1,415,0.768764972686768,car,car,5,5_car_10_n04285008_2880.png,True,-0.4122968148018044,0.9205756783485411,0.5,-1.6909218280596696,28.522571623325348,9,2.878841991341991,8,35.05437394268604,9
subject-02,1,416,0.670504093170166,cat,bear,10,10_bear_10_n02134418_745.png,False,-0.8263314511556228,2.14473295211792,0.25,-2.560275550468074,30.797691583633423,10,4.090151515151515,10,29.609659598567593,7
subject-02,1,417,0.908151865005493,elephant,elephant,3,3_elephant_10_n02504013_1777.png,True,0.17502747496217427,0.1758463084697723,1.0,-0.02445831778965264,26.344005540013313,9,4.628968253968254,9,26.33602279442775,9
subject-02,1,418,0.942126989364624,bird,bird,3,3_bird_10_n01601694_20287.png,True,0.3181859560210765,0.7071917057037354,1.0,-0.13615887632017104,27.251643896102905,9,2.9376373626373624,8,34.5833718765662,9
subject-02,1,419,0.905797958374023,car,car,7,7_car_10_n02814533_6593.png,True,0.16510899182864114,0.9004744291305542,0.0909090909090909,-5.701583084609497,29.09302246570587,10,0.36211427461427437,5,45.15493856583706,0
subject-02,1,420,0.751743078231812,car,cat,10,10_cat_10_n02123394_1690.png,False,-0.4840207187133305,2.0338118076324463,0.1666666666666666,-3.8642168153232515,30.41640615463257,10,1.133928571428571,4,37.01809403529595,3
subject-02,1,421,0.56746506690979,car,car,1,1_car_10_n04285008_10893.png,True,-1.2604994127883928,0.0782458335161209,1.0,-0.010290399193648315,25.794984504580498,9,3.5457070707070706,8,32.25427195073021,9
subject-02,1,422,0.863326072692871,bird,keyboard,40,40_keyboard_10_n03085013_25809.png,False,-0.013851667080234305,1.106160283088684,0.2,-3.852076430441592,29.030552983283997,10,1.2516955266955263,7,36.761031465785436,3
subject-02,1,423,0.443176031112671,clock,clock,1,1_clock_10_n03196217_8282.png,True,-1.784206975677979,0.0585328638553619,1.0,-0.006793275314813497,23.8582104742527,9,3.944444444444444,8,27.98048395573574,8
subject-02,1,424,0.806715965270996,truck,truck,3,3_truck_10_n03796401_23774.png,True,-0.25238551041313945,0.1321135759353637,1.0,-0.0174513428585249,25.92021095752716,9,6.792857142857143,5,22.411935009892627,9
subject-02,1,425,0.62870717048645,bottle,bottle,5,5_bottle_10_n03983396_8164.png,True,-1.0024480681571746,1.5134098529815674,0.3333333333333333,-2.4615210991997105,29.741039276123047,10,2.11541514041514,7,32.411799479990044,0
subject-02,1,426,0.694422960281372,chair,chair,1,1_chair_10_n02791124_15383.png,True,-0.725546281156099,0.0269103925675153,1.0,-0.0028487451005235567,25.409543682821095,9,3.6297619047619047,8,28.432071416211578,8
subject-02,1,427,0.602660894393921,cat,bottle,40,40_bottle_10_n02823428_79.png,False,-1.1121973448112608,1.519564151763916,0.5,-2.3240192987200854,29.825844526290894,10,2.6857142857142855,7,32.396335098708185,0
subject-02,1,428,0.980257987976074,chair,chair,5,5_chair_10_n03376595_899.png,True,0.4788557385588178,0.1779181063175201,1.0,-0.02614978243616831,27.113592892885208,9,2.729563492063492,9,29.63717281496932,9
subject-02,1,429,0.890362024307251,bear,bottle,5,5_bottle_10_n04557648_9493.png,False,0.10006773248353572,1.9948489665985107,0.5,-1.388027555979394,30.605164289474487,10,3.9833333333333334,7,30.340269764278954,0
subject-02,1,430,1.10375809669495,cat,bicycle,5,5_bicycle_10_n02835271_24207.png,False,0.9992390574811513,1.7277672290802002,0.0833333333333333,-4.852472628212518,30.044875860214233,10,3.351226551226551,2,34.02804832567267,0
subject-02,1,431,0.613892078399658,oven,car,40,40_car_10_n02814533_51701.png,False,-1.0648733313430885,1.7834837436676023,0.1428571428571428,-4.276028016505875,30.26100468635559,10,0.2501373626373622,5,43.90405578036051,1
subject-02,1,432,0.813477039337158,dog,dog,15,15_dog_10_n02090721_583.png,True,-0.2238968702125228,2.4286794662475586,0.2,-2.3987543509164495,31.135348558425903,10,1.4099567099567096,8,33.43623712815529,6
subject-02,1,433,0.589675903320312,clock,airplane,40,40_airplane_10_n02690373_9687.png,False,-1.1669112460471127,1.7525277137756348,0.0833333333333333,-4.0714687508936445,30.1469509601593,10,3.475335775335775,4,32.4243589322694,5
subject-02,1,434,0.545163154602051,cat,keyboard,40,40_keyboard_10_n04505470_4492.png,False,-1.3544713393349017,1.5330899953842163,0.25,-2.8614498129766237,29.94484841823578,10,1.3338383838383836,6,34.944973437024856,3
subject-02,1,435,0.807251930236816,boat,boat,1,1_boat_10_n02951358_34917.png,True,-0.25012715428185556,0.071671262383461,1.0,-0.00869971844627782,26.53639627993107,9,6.142857142857142,7,22.533949026401032,9
subject-02,1,436,0.576597929000854,bicycle,bear,40,40_bear_10_n02133161_20090.png,False,-1.2220169439427484,1.73484206199646,0.125,-4.112797333074082,30.21562123298645,10,2.919322344322344,2,33.7509869738995,7
subject-02,1,437,0.792318105697632,boat,car,3,3_car_10_n04285008_3410.png,False,-0.31305271166411053,2.0819320678710938,0.3333333333333333,-1.8231407627953333,30.316590547561646,10,0.9989219114219112,8,38.06869327689289,8
subject-02,1,438,0.792269945144653,bear,bird,7,7_bird_10_n01820546_1222.png,False,-0.3132556422417457,1.352405071258545,0.5,-2.6067069684053235,29.699345350265503,10,1.1252705627705626,10,38.64334482410116,6
subject-02,1,439,0.754114866256714,oven,bottle,10,10_bottle_10_n02823428_4983.png,False,-0.4740268900683027,1.7765069007873535,0.5,-1.831449824658948,29.898226499557495,10,2.209462759462759,8,31.359873783869887,0
subject-02,1,440,0.634086847305298,boat,boat,15,15_boat_10_n02951358_13352.png,True,-0.9797801198714435,2.222613573074341,0.0769230769230769,-4.619966464905414,30.89624047279358,10,2.0884670884670884,4,34.34794107945884,2
subject-02,1,441,0.659780979156494,elephant,elephant,0,0_elephant_10_n02504013_10990.png,True,-0.8715146474904478,0.0468740724027156,1.0,-0.005278247302236505,25.172075930982828,9,5.644444444444444,1,23.839221195189815,9
subject-02,1,442,0.655581951141357,truck,truck,0,0_truck_10_n03417042_24100.png,True,-0.8892077828037036,0.0827635675668716,1.0,-0.010055323389952507,25.034446289762855,9,5.242857142857143,7,22.422503069312764,9
subject-02,1,443,0.665302038192749,bottle,bottle,7,7_bottle_10_n04591713_6971.png,True,-0.8482509673604772,1.602963924407959,0.25,-2.7154739399516514,29.584537744522095,9,1.3547008547008543,0,33.518904700153925,0
subject-02,1,444,0.755527019500732,oven,oven,5,5_oven_10_n04111531_4155.png,True,-0.46807660387364197,1.4260210990905762,1.0,-0.4691311118979201,28.69812250137329,9,4.2914682539682545,8,27.187086503539444,6
subject-02,1,445,0.547053813934326,boat,boat,7,7_boat_10_n03662601_16925.png,True,-1.3465048072525672,2.1405065059661865,0.5,-1.4895535322714268,30.617894887924194,10,3.301190476190476,9,29.317992218076864,9
subject-02,1,446,0.532850027084351,bear,bear,1,1_bear_10_n02132136_22604.png,True,-1.4063542585520836,0.0648664310574531,1.0,-0.0076436916963405245,24.5744126457721,9,9.75,4,15.566593020913706,9
subject-02,1,447,0.544494152069092,clock,boat,40,40_boat_10_n03662601_33625.png,False,-1.3572902660717283,2.0917553901672363,0.1666666666666666,-2.955384987713634,30.305257320404053,10,1.884523809523809,3,32.19200596117356,0
subject-02,1,448,0.852566003799438,oven,oven,1,1_oven_10_n04111531_9427.png,True,-0.0591905774721551,0.004918938037008,1.0,-0.0004368186236340724,25.5997675745748,9,3.5738455988455984,8,27.686251430810884,9
subject-02,1,449,1.18406987190247,elephant,elephant,1,1_elephant_10_n02504458_1626.png,True,1.3376428740005928,0.018347093835473,1.0,-0.0018518417748717125,25.76510170288384,9,6.0,1,23.678401263495733,9
subject-02,1,450,0.876100063323975,airplane,bicycle,40,40_bicycle_10_n03792782_11851.png,False,0.03997315711994656,1.5284202098846436,0.0625,-5.36522864071991,29.75596570968628,10,0.6707833832833829,6,39.19086259013982,6
subject-02,1,451,0.645893096923828,bicycle,bicycle,0,0_bicycle_10_n03792782_9512.png,True,-0.930032994753511,0.0347956493496894,1.0,-0.003791238147940828,24.70402902364731,9,7.833333333333333,3,18.8328927843486,8
subject-02,1,452,0.875517129898071,oven,chair,10,10_chair_10_n04099969_3623.png,False,0.037516893445124586,1.6429829597473145,0.0909090909090909,-4.663697265838818,30.0588858127594,10,0.9670995670995667,0,37.24093469619802,7
subject-02,1,453,1.21371603012085,car,car,3,3_car_10_n02814533_3202.png,True,1.4625607090293424,0.8105849027633667,0.5,-2.4249054484234915,27.778416752815247,9,2.0970238095238094,7,35.27017973764659,0
subject-02,1,454,0.879539966583252,boat,chair,15,15_chair_10_n02791124_3857.png,False,0.054467624318424966,1.927035570144653,0.0625,-5.403759471047365,30.431309938430786,10,0.700992063492063,0,39.65778174488095,6
subject-02,1,455,0.617372035980225,clock,airplane,40,40_airplane_10_n02690373_2656.png,False,-1.0502100901988511,1.8283369541168213,0.1428571428571428,-3.644069312871032,30.139215230941772,10,3.6181929181929178,4,31.275754591567868,5
subject-02,1,456,0.629181861877441,boat,boat,5,5_boat_10_n04273569_22274.png,True,-1.0004478959786218,2.276075839996338,0.3333333333333333,-1.9576956923534972,30.78830099105835,10,2.8111111111111113,8,29.792607976140488,2
subject-02,1,457,0.873119831085205,bicycle,bicycle,3,3_bicycle_10_n03792782_9280.png,True,0.02741557187035985,1.6506527662277222,1.0,-0.529652492594885,29.976471304893494,10,4.333333333333333,8,26.275045614586247,9
subject-02,1,458,0.868582010269165,bear,truck,15,15_truck_10_n03417042_10229.png,False,0.008294890265933167,2.271099805831909,0.0714285714285714,-4.780825646802166,30.936585426330566,10,2.4452380952380945,5,34.67520136312929,0
subject-02,1,459,0.90241813659668,oven,clock,5,5_clock_10_n02708093_8051.png,False,0.15086768554879576,1.7877347469329834,1.0,-1.0570023737426828,29.307769060134888,9,2.7633699633699633,9,33.34986137163372,9
subject-02,1,460,0.960129976272583,chair,keyboard,15,15_keyboard_10_n03085013_18797.png,False,0.3940438169967658,1.5926629304885864,0.25,-3.02234889065367,29.728896498680115,10,1.4711399711399709,6,35.11564953885193,6
subject-02,1,461,1.29218292236328,clock,clock,10,10_clock_10_n02708093_6730.png,True,1.7931908779758718,1.8207062482833865,1.0,-1.0740069003760069,30.111237168312073,10,2.798351648351648,9,34.10970751374133,9
subject-02,1,462,1.20595502853394,knife,clock,5,5_clock_10_n03196217_743.png,False,1.4298587478258016,0.7546044588088989,0.3333333333333333,-3.360587578346405,27.969514846801758,10,1.829437229437229,8,36.19428542544807,6
subject-02,1,463,0.669749021530151,clock,clock,3,3_clock_10_n04548280_4225.png,True,-0.8295130409544589,0.0714084655046463,1.0,-0.00874962381548671,26.86031825840473,9,5.629004329004329,4,28.173945229132112,9
subject-02,1,464,0.593419075012207,clock,chair,40,40_chair_10_n02791124_1935.png,False,-1.1511389189736325,1.221307396888733,0.1,-4.907878185558463,29.45283329486847,10,0.7584054834054832,7,37.561645878467914,6
subject-02,1,465,0.65320086479187,clock,clock,5,5_clock_10_n04548280_1097.png,True,-0.8992407911147101,0.8602136969566345,0.5,-0.7628900063545299,28.747691571712494,10,2.6149572649572645,9,33.43940305574973,9
subject-02,1,466,0.655055999755859,oven,elephant,40,40_elephant_10_n02504013_7635.png,False,-0.8914239454485497,1.7853682041168213,0.0625,-4.764670220812722,30.19926881790161,10,1.0170024420024417,1,38.74544327307838,0
subject-02,1,467,1.04874515533447,dog,dog,0,0_dog_10_n02108422_1164.png,True,0.7674350752351763,1.6877224445343018,1.0,-0.5062188384298723,28.730299472808838,9,3.2777777777777777,8,30.994019871181,9
