subject_id,session,trial,rt,object_response,category,condition,item_id,response_correct,rt_zscore,output_entropy,output_rank_correct,output_logprob_correct,auc_entropy,layer_biggest_change_entropy,auc_rank_correct,layer_biggest_change_rank_correct,auc_logprob_correct,layer_biggest_change_logprob_correct
subject-02,1,1,1.4882390499115,bear,bear,0,bear3.png,True,2.236266491909835,1.0137547254562378,0.25,-3.670694198298103,27.57740843296051,10,2.480988455988456,9,33.01876456457949,9
subject-02,1,2,0.756563901901245,airplane,airplane,0,airplane2.png,True,-0.9474271300923377,0.9961801171302797,1.0,-0.2685686218960489,27.473564207553864,10,2.8047619047619046,9,34.838213404934585,9
subject-02,1,3,0.708386182785034,cat,cat,0,cat6.png,True,-1.1570599124685181,1.865309476852417,0.3333333333333333,-2.478125791853951,28.640413284301758,10,0.7717032967032962,10,40.21154843142314,8
subject-02,1,4,1.10423302650452,chair,chair,0,chair9.png,True,0.5653644107664637,0.2202668488025665,1.0,-0.0358433490667303,26.345622807741165,10,3.6115440115440114,9,27.734890587484013,9
subject-02,1,5,0.856657028198242,bicycle,bicycle,0,bicycle4.png,True,-0.5118979903305197,1.0075751543045044,1.0,-0.3791899744496963,28.72160565853119,10,6.431818181818182,8,25.93787308192337,10
subject-02,1,6,0.971307039260864,knife,knife,0,knife4.png,True,-0.013028362224150575,0.2539835572242737,1.0,-0.03975429798160286,24.140582263469696,9,7.436111111111111,4,18.641578885997795,5
subject-02,1,7,0.731976985931396,cat,cat,0,cat3.png,True,-1.0544106838877365,0.7396632432937622,0.0833333333333333,-5.098902548956905,26.53859794139862,10,0.28120213120213083,8,45.66316827377532,2
subject-02,1,8,0.606236934661865,bicycle,bicycle,0,bicycle7.png,True,-1.6015357302223996,0.3911542296409607,1.0,-0.0676624190707521,27.088714003562927,9,6.549242424242424,8,22.572351765062233,9
subject-02,1,9,1.05053615570068,truck,truck,0,truck1.png,True,0.33171647894240275,0.050715185701847,0.1428571428571428,-8.360840545292888,24.409981556236744,9,3.3643217893217896,2,42.093280728210196,0
subject-02,1,10,,na,clock,0,clock8.png,False,,0.7496044635772705,1.0,-0.2342430178775599,25.34441602230072,9,3.78003663003663,8,29.426404824680482,6
subject-02,1,11,0.838557004928589,knife,boat,0,boat4.png,False,-0.5906555220006776,0.1769010722637176,0.3333333333333333,-5.3896997562114155,24.35782289505005,9,2.477777777777778,9,35.986296224942826,2
subject-02,1,12,,na,clock,0,clock9.png,False,,0.5341020226478577,1.0,-0.11355582864054921,25.773021161556244,10,5.012179487179487,6,28.857301695400526,6
subject-02,1,13,1.30305004119873,cat,cat,0,cat8.png,True,1.4304648085984772,0.8320249319076538,0.25,-3.751757338956622,25.9503892660141,9,0.518326118326118,10,43.633510431662444,10
subject-02,1,14,1.45526504516602,airplane,knife,0,knife2.png,False,2.0927887082437673,0.4567306041717529,1.0,-0.07806566492823909,25.52503228187561,9,7.503968253968254,4,19.493232225074106,9
subject-02,1,15,1.15370202064514,elephant,elephant,0,elephant1.png,True,0.7806158397109216,0.2242017686367035,1.0,-0.04819997224184907,26.55151805281639,10,2.480891330891331,10,31.77810423750726,10
subject-02,1,16,1.33007192611694,cat,clock,0,clock1.png,False,1.5480434948536188,1.0105984210968018,0.5,-1.50946460719858,27.396589159965515,10,2.9368797868797865,8,32.83779767953674,6
subject-02,1,17,1.01262593269348,elephant,elephant,0,elephant2.png,True,0.16676002863118958,1.462674856185913,1.0,-0.457483438929068,28.142909288406372,10,2.0468253968253967,10,34.45157897862644,10
subject-02,1,18,1.40305280685425,car,elephant,0,elephant10.png,False,1.865600767590479,1.2900938987731934,0.0909090909090909,-5.3610635540136515,27.67066216468811,10,1.014321789321789,1,40.43103953316568,1
subject-02,1,19,0.887548923492432,dog,dog,0,dog4.png,True,-0.3774799630309329,1.5292118787765503,0.5,-1.567096677265635,27.723833441734314,5,1.3920995670995668,10,35.908220382189484,10
subject-02,1,20,1.26184797286987,bear,oven,0,oven1.png,False,1.2511847517199415,0.1176650375127792,0.2,-7.515732498960675,25.223919734358788,9,1.142399267399267,6,43.466413957579334,6
subject-02,1,21,1.22245717048645,chair,oven,0,oven6.png,False,1.0797859463147257,0.1149904876947403,0.25,-5.906173357106009,24.425181344151497,9,1.8560897435897434,6,39.891531335991395,6
subject-02,1,22,1.3343710899353,airplane,truck,0,truck6.png,False,1.5667501852006627,0.1164510697126388,0.1666666666666666,-7.179554630904085,25.500965639948845,9,2.0754329004329,2,38.60139526988931,0
subject-02,1,23,0.81890082359314,bird,bird,0,bird9.png,True,-0.6761842697253578,1.6529052257537842,0.5,-1.0559407616153296,29.078139305114746,10,1.3322802197802193,8,39.74551682283378,10
subject-02,1,24,1.0552339553833,car,truck,0,truck10.png,False,0.35215772930832473,0.8483099341392517,0.1428571428571428,-5.056818396423247,26.72241371870041,9,2.422258297258297,2,35.58551659569979,0
subject-02,1,25,0.839663982391357,airplane,airplane,0,airplane8.png,True,-0.585838798216224,0.562287449836731,1.0,-0.13992402948040483,26.711125135421753,10,2.674242424242424,9,33.823808255088075,9
subject-02,1,26,0.946459054946899,chair,chair,0,chair10.png,True,-0.12114788684530371,0.1993972957134246,1.0,-0.03319693189206421,25.35698625445366,9,4.2595238095238095,8,26.433985036932402,9
subject-02,1,27,1.50021600723267,oven,oven,0,oven10.png,True,2.2883810986968722,0.151302695274353,0.3333333333333333,-6.034615570395124,25.132411122322083,9,1.5578754578754577,6,40.232423668399456,6
subject-02,1,28,0.856839179992676,knife,knife,0,knife8.png,True,-0.5111054042931875,0.3676647245883941,1.0,-0.06369862329948742,24.494971483945847,9,7.003968253968254,4,19.101808417830995,5
subject-02,1,29,0.749418973922729,cat,cat,0,cat2.png,True,-0.9785164211482468,1.6986392736434937,0.25,-2.6043964150650036,27.724356532096863,9,1.0365440115440112,8,38.899522974751044,8
subject-02,1,30,1.12313604354858,chair,dog,0,dog3.png,False,0.6476159604650314,1.6781264543533323,1.0,-0.8167631552443656,28.822258830070496,10,2.230988455988456,10,33.25195808514575,10
subject-02,1,31,1.03586506843567,chair,chair,0,chair7.png,True,0.26787906820012214,1.1977248191833496,0.5,-0.9635784050519798,27.262067079544067,10,2.0734848484848483,0,31.70874881873108,7
subject-02,1,32,1.31253814697266,bear,clock,0,clock3.png,False,1.4717498268466571,0.3845948576927185,1.0,-0.08149319507127516,24.455850899219513,9,4.414957264957264,7,28.752523660054187,6
subject-02,1,33,,na,dog,0,dog2.png,False,,1.059274435043335,0.1428571428571428,-4.845889256941585,27.17441427707672,10,0.9710678210678209,7,38.85220670138642,6
subject-02,1,34,1.05457901954651,bear,elephant,0,elephant4.png,False,0.3493079467892939,0.2706356048583984,0.5,-3.951192638705457,25.605454087257385,9,1.6817210567210565,1,38.45384735098602,1
subject-02,1,35,0.615163087844849,bottle,bottle,0,bottle2.png,True,-1.5626959021443765,0.4004149138927459,1.0,-0.11787295330549778,24.217580884695053,9,3.505494505494505,9,28.219253119715518,0
subject-02,1,36,0.943508148193359,knife,boat,0,boat1.png,False,-0.13398798813330937,0.2709161937236786,0.25,-5.366983831882187,24.893140643835068,9,2.2416666666666667,2,35.11564646750146,2
subject-02,1,37,1.04216384887695,elephant,bear,0,bear7.png,False,0.2952865688810309,0.0380529910326004,0.1111111111111111,-9.095833272638775,25.02587766945362,9,1.8301587301587299,6,41.88404097894363,4
subject-02,1,38,0.924787998199463,cat,bear,0,bear1.png,False,-0.2154438395457391,0.8371682167053223,0.3333333333333333,-3.2334037015502752,25.855608701705933,9,2.6655122655122656,8,33.60681965234186,7
subject-02,1,39,0.66292405128479,bicycle,bicycle,0,bicycle3.png,True,-1.3548765234242888,1.8240084648132324,1.0,-0.8854870100349441,29.66544795036316,10,7.477777777777777,8,24.531738627468325,10
subject-02,1,40,1.21290898323059,knife,keyboard,0,keyboard4.png,False,1.0382394991641961,1.1582952737808228,0.3333333333333333,-1.8600738400861454,26.21070158481598,9,2.5532467532467535,5,30.519410783439035,4
subject-02,1,41,0.924983024597168,bicycle,bicycle,0,bicycle1.png,True,-0.21459523302933098,0.7821623086929321,1.0,-0.20323642091508554,28.705861449241638,10,7.485353535353535,8,24.324281259882955,9
subject-02,1,42,1.03981995582581,dog,dog,0,dog7.png,True,0.2850877294399723,2.1757519245147705,0.5,-1.687223139577615,29.179062604904175,5,1.3266233766233764,10,34.38167386522102,10
subject-02,1,43,1.13005304336548,car,clock,0,clock2.png,False,0.6777134815580211,0.7825013399124146,1.0,-0.2189852334968046,25.55911958217621,5,4.448290598290598,7,28.966884192906235,6
subject-02,1,44,1.25868511199951,bear,bear,0,bear10.png,True,1.2374223873597074,1.3355778455734253,0.3333333333333333,-2.6965414447137577,27.645246505737305,10,2.3369047619047616,3,32.1104498801216,7
subject-02,1,45,0.712756156921387,bottle,bottle,0,bottle9.png,True,-1.1380451094865438,0.8854260444641113,1.0,-0.2205356604308822,25.988403916358948,9,3.4031135531135526,9,27.75361121784888,0
subject-02,1,46,,na,elephant,0,elephant8.png,False,,1.3585662841796875,1.0,-0.4578744601045355,27.980400562286377,10,2.5972222222222223,10,32.10827904396114,9
subject-02,1,47,1.10751104354858,bear,bear,0,bear2.png,True,0.579627847189539,1.3922713994979858,0.2,-3.3754631477940853,27.940189957618713,9,2.211904761904762,8,33.19051754431012,7
subject-02,1,48,1.12178087234497,airplane,keyboard,0,keyboard7.png,False,0.6417192863339134,0.924674153327942,0.3333333333333333,-3.0280816132544284,25.691233277320862,9,2.477489177489178,5,32.241106228052125,4
subject-02,1,49,0.620449066162109,bottle,bottle,0,bottle8.png,True,-1.5396953458176132,0.3745360672473907,1.0,-0.07905356621691606,25.300053149461746,9,3.453113553113553,9,27.64629148978886,9
subject-02,1,50,1.06475901603699,keyboard,boat,0,boat8.png,False,0.39360354707978185,0.3425770998001098,0.25,-5.502480987159791,24.204804301261902,9,1.9916666666666665,2,37.1626479677331,2
subject-02,1,51,0.84934401512146,chair,chair,0,chair4.png,True,-0.5437186598632822,0.8954275846481323,1.0,-0.46997635453224473,27.53571128845215,10,3.6226551226551225,9,27.990560984824736,9
subject-02,1,52,0.924118995666504,bicycle,bicycle,0,bicycle6.png,True,-0.21835482962525313,1.9658880233764648,0.2,-3.5883591385665468,28.74655294418335,9,5.460714285714286,0,31.357980679198068,0
subject-02,1,53,0.938203811645508,chair,chair,0,chair1.png,True,-0.15706842551357364,0.2907571196556091,0.5,-2.958733563205035,24.555747151374817,9,2.5444444444444443,0,33.798104656545775,6
subject-02,1,54,0.753059864044189,cat,cat,0,cat5.png,True,-0.9626740371481545,1.4968347549438477,0.2,-3.5978916812592767,28.347256422042847,10,0.7486263736263734,8,40.41817178316328,8
subject-02,1,55,0.926951885223389,bird,car,0,car8.png,False,-0.2060282493954639,0.6222917437553406,0.0666666666666666,-5.802389920013663,26.351183593273163,9,0.09954212454212408,4,50.146282985528416,0
subject-02,1,56,0.949758052825928,dog,dog,0,dog1.png,True,-0.10679315778962165,0.9780890941619872,0.1666666666666666,-4.707601270080966,26.93509078025818,10,1.0309884559884557,7,38.845988925735995,6
subject-02,1,57,1.0098180770874,bottle,bottle,0,bottle1.png,True,0.15454237711071642,0.1499397754669189,1.0,-0.024160411740836222,24.014189049601555,9,4.036446886446886,8,26.57736316732285,0
subject-02,1,58,0.930623054504395,bird,bird,0,bird7.png,True,-0.1900541135279092,1.3296146392822266,0.0833333333333333,-5.005253716865668,27.372692704200745,9,0.12330586080586038,10,49.7941810291276,6
subject-02,1,59,0.968966960906982,bear,elephant,0,elephant5.png,False,-0.023210603004775305,1.1037060022354126,1.0,-0.33435183373451327,27.828163027763367,10,2.396464646464646,10,32.319384820899636,10
subject-02,1,60,1.50008201599121,bird,boat,0,boat7.png,False,2.287798070747925,0.2351906299591064,0.1666666666666666,-5.766832345891582,24.26218819618225,9,1.9444444444444442,2,37.31716802836733,2
subject-02,1,61,0.933347940444946,boat,truck,0,truck4.png,False,-0.1781974828726147,0.6831589937210083,0.25,-3.996430788114304,26.28192889690399,9,3.0857142857142854,4,34.097104347272186,0
subject-02,1,62,0.848782062530518,truck,truck,0,truck8.png,True,-0.5461638500334208,1.5209696292877195,0.1111111111111111,-4.551738645169329,28.101032257080078,10,2.2734126984126983,2,34.69206934646871,0
subject-02,1,63,0.838720083236694,bottle,bottle,0,bottle4.png,True,-0.5899459292656876,0.9056259393692015,1.0,-0.4766271360375895,25.035207867622375,9,3.505494505494505,9,28.632821562837748,0
subject-02,1,64,0.88328218460083,oven,car,0,car5.png,False,-0.3960455647640008,1.0978254079818726,0.1,-5.256313008503281,26.741753935813904,9,0.141779054279054,9,49.406907601715,0
subject-02,1,65,0.805552959442139,knife,knife,0,knife3.png,True,-0.7342640201179428,1.280087947845459,1.0,-0.3717829136613654,26.570257663726807,9,6.561111111111111,4,20.383254192503,5
subject-02,1,66,1.18792200088501,knife,boat,0,boat2.png,False,0.9295151608522588,0.3305868506431579,0.0833333333333333,-5.943787547096399,25.267123639583588,9,2.227777777777778,2,35.7848246187016,2
subject-02,1,67,1.24049401283264,bear,bear,0,bear8.png,True,1.158268562670884,1.576876878738403,0.5,-1.5335139104302808,26.547012090682983,9,2.703968253968254,9,31.573474864577314,10
subject-02,1,68,0.855111122131348,airplane,airplane,0,airplane7.png,True,-0.5186245974850323,0.8228142261505127,1.0,-0.6590064680196629,25.858278632164,9,2.2714285714285714,10,36.181152470711886,3
subject-02,1,69,1.31351208686829,oven,oven,0,oven7.png,True,1.4759876723473038,0.2323933541774749,0.2,-6.50428191506854,25.39397844672203,9,0.951785714285714,6,43.441979684762785,6
subject-02,1,70,0.9275221824646,elephant,elephant,0,elephant3.png,True,-0.20354674965554984,1.3091505765914917,0.125,-4.074674904197661,26.835612893104553,5,1.143192918192918,1,39.61352953020183,1
subject-02,1,71,0.91215705871582,knife,knife,0,knife1.png,True,-0.2704040791866871,0.4626525640487671,1.0,-0.08561595510039202,24.19581699371338,9,7.111111111111111,4,18.32781045812547,5
subject-02,1,72,1.06201481819153,knife,knife,0,knife9.png,True,0.3816628857058626,0.1734974980354309,1.0,-0.024430954123163942,24.09703040122986,9,7.436111111111111,4,19.230580831116633,5
subject-02,1,73,1.32266592979431,airplane,keyboard,0,keyboard2.png,False,1.515818232971964,0.9772682189941406,0.3333333333333333,-3.3493273142063624,26.02284848690033,9,2.5608225108225113,5,32.56050224251735,4
subject-02,1,74,0.959028959274292,chair,chair,0,chair2.png,True,-0.0664532257718381,0.5549784898757935,0.5,-1.7332018272846916,25.929165840148926,9,2.5155122655122653,0,30.05308511300962,9
subject-02,1,75,0.895303010940552,bird,truck,0,truck7.png,False,-0.343740073381598,0.1029206290841102,0.25,-7.623899221143544,25.178512908518314,9,3.1975579975579977,4,38.981429788912465,0
subject-02,1,76,0.78745698928833,bird,cat,0,cat10.png,False,-0.8130039157113572,1.3860822916030884,0.3333333333333333,-3.161419547654075,28.080768942832947,10,0.6597985347985345,10,42.33575781853692,7
subject-02,1,77,0.824360847473145,bottle,bottle,0,bottle7.png,True,-0.6524263995147547,0.9076037406921388,1.0,-0.34082942121919263,26.77130162715912,10,3.336446886446886,9,29.04079368592336,0
subject-02,1,78,1.24449610710144,airplane,keyboard,0,keyboard3.png,False,1.1756826323340115,0.2315678298473358,0.2,-5.641990557712976,24.98717227578163,9,1.8754079254079252,6,38.362120418488885,4
subject-02,1,79,0.783146142959595,cat,cat,0,cat9.png,True,-0.8317614394560789,1.552127718925476,0.125,-4.335040885376538,28.061052441596985,10,0.327380952380952,10,44.61673405863523,7
subject-02,1,80,0.803832054138184,elephant,elephant,0,elephant9.png,True,-0.7417520908214107,0.1342518627643585,1.0,-0.022464990779179933,26.613557249307632,10,3.253968253968254,9,28.96451605805583,9
subject-02,1,81,1.11008286476135,bottle,bottle,0,bottle10.png,True,0.5908184565935791,0.2805601358413696,1.0,-0.06261420601411985,24.165100932121277,9,3.953113553113553,8,26.48579818704957,0
subject-02,1,82,0.63233494758606,bicycle,bicycle,0,bicycle2.png,True,-1.4879770320492516,1.0527037382125854,1.0,-0.27275013683468785,29.034146189689636,10,7.9520202020202015,8,23.722468320870703,10
subject-02,1,83,0.744737863540649,knife,knife,0,knife7.png,True,-0.9988850523746112,0.0236362945288419,1.0,-0.0025260138832189595,23.290407260414213,9,7.453968253968254,4,18.35275143428155,5
subject-02,1,84,0.859731912612915,elephant,elephant,0,elephant6.png,True,-0.498518432577314,0.3467084765434265,1.0,-0.06239613131337548,27.86437100172043,10,2.41031746031746,10,31.246022329532806,9
subject-02,1,85,0.879849910736084,chair,chair,0,chair6.png,True,-0.410980209519768,0.7242881059646606,0.5,-1.355882620324528,26.148768067359924,9,2.7416666666666663,0,30.161796847521117,6
subject-02,1,86,0.872354030609131,bird,oven,0,oven4.png,False,-0.4435965773386989,0.459288090467453,0.1666666666666666,-6.02259863357431,25.338867634534836,9,1.0072802197802193,6,42.26420485324866,6
subject-02,1,87,0.67870306968689,clock,clock,0,clock10.png,True,-1.2862182392324135,1.771845459938049,1.0,-0.8694968622700346,28.09455978870392,5,3.1531135531135526,9,31.95911770227626,6
subject-02,1,88,0.823600053787231,bird,bird,0,bird3.png,True,-0.6557367948617754,1.3284151554107666,0.1428571428571428,-4.197183590531037,27.793187737464905,10,0.45325091575091536,8,44.8165724944627,6
subject-02,1,89,0.74401593208313,bicycle,bicycle,0,bicycle8.png,True,-1.0020263488681114,0.2790760397911072,1.0,-0.046262176478435446,27.499891221523285,10,7.659523809523809,0,22.82092218196042,9
subject-02,1,90,1.04225206375122,knife,knife,0,knife5.png,True,0.29567041290435586,0.0422463119029998,1.0,-0.004828468472850521,24.023905154317617,9,7.436111111111111,4,19.277414065452295,5
subject-02,1,91,0.878286123275757,chair,chair,0,chair8.png,True,-0.4177846228952246,0.7669309377670288,1.0,-0.26871287362476615,27.49709928035736,10,3.916666666666666,9,27.527216876379697,9
subject-02,1,92,0.654742002487183,bicycle,bicycle,0,bicycle5.png,True,-1.3904785752948372,1.2128949165344238,1.0,-0.5519353779281496,29.3389732837677,10,7.659523809523809,0,24.218881614182838,10
subject-02,1,93,0.653080940246582,bird,bird,0,bird1.png,True,-1.3977062545122207,2.288992166519165,0.1111111111111111,-3.401391361439696,29.16842532157898,5,0.3362234987234984,8,44.293877386141254,6
subject-02,1,94,0.81125283241272,dog,dog,0,dog8.png,True,-0.7094625091304372,0.1974261105060577,0.5,-3.666799052638583,26.820307284593582,10,1.546139971139971,8,38.122158669074906,8
subject-02,1,95,1.01197814941406,truck,clock,0,clock7.png,False,0.16394136860052297,0.8511953353881836,1.0,-0.32022585637842815,25.971550226211548,9,3.28003663003663,9,30.3590547728653,6
subject-02,1,96,0.740099191665649,bird,bird,0,bird8.png,True,-1.019069023503273,1.94354784488678,0.1428571428571428,-3.1586122164072297,28.59706938266754,5,0.4631715506715503,8,43.95182751506435,6
subject-02,1,97,0.71500301361084,bicycle,bicycle,0,bicycle10.png,True,-1.1282684984710993,2.0921552181243896,1.0,-1.1502208283759905,29.75967240333557,10,5.7511655011655005,0,27.015452283323363,7
subject-02,1,98,0.745163917541504,car,car,0,car10.png,True,-0.9970311894836281,0.2572767734527588,0.0909090909090909,-6.522738239740992,25.336657285690308,9,0.10011238761238739,9,50.98515370504225,0
subject-02,1,99,1.05774998664856,boat,boat,0,boat9.png,True,0.36310558330302467,1.7922217845916748,0.2,-3.7175960242277903,29.468806982040405,10,1.862301587301587,2,33.08482100477063,2
subject-02,1,100,1.43184518814087,truck,oven,0,oven8.png,False,1.990883307135176,0.641850471496582,0.2,-4.790213810932784,26.664063811302185,9,1.3351190476190473,6,38.39396832254122,6
subject-02,1,101,1.49204206466675,cat,bear,0,bear6.png,False,2.2528143189798073,1.0105020999908447,0.125,-4.972848925275703,26.87538480758667,9,1.8373015873015868,3,36.5359310286717,7
subject-02,1,102,1.41278100013733,oven,clock,0,clock4.png,False,1.9079304640318182,1.2233519554138184,1.0,-0.5897980423881595,26.180797219276428,5,2.7482905982905983,10,33.603296068141994,6
subject-02,1,103,0.713412046432495,bottle,bottle,0,bottle5.png,True,-1.1351911773023893,0.8005474805831909,1.0,-0.26826981411192924,24.679706573486328,9,3.553113553113553,9,27.81857718491366,0
subject-02,1,104,0.957427024841309,dog,dog,0,dog9.png,True,-0.07342362575196974,1.6043179035186768,1.0,-0.5816210263461141,28.375306129455566,10,2.131818181818182,10,34.23670415183585,10
subject-02,1,105,0.870092868804932,bottle,bottle,0,bottle6.png,True,-0.4534354333308972,0.2374956905841827,1.0,-0.03686422557124346,25.054278761148453,9,4.003113553113553,8,27.54376772684189,0
subject-02,1,106,0.892356872558594,car,clock,0,clock6.png,False,-0.3565594263440196,0.7800217866897583,1.0,-0.20548784419563706,26.32568049430847,10,5.143589743589743,6,28.834956335990785,6
subject-02,1,107,0.836875915527344,knife,knife,0,knife6.png,True,-0.5979703441855144,0.5501472353935242,1.0,-0.09964242498769026,25.170568585395813,9,7.453968253968254,4,19.73890799717973,5
subject-02,1,108,1.47907400131226,airplane,car,0,car6.png,False,2.1963871727200424,0.2452020645141601,0.0625,-7.79564356798114,25.691543102264404,9,0.07959956709956678,4,54.28596948227269,0
subject-02,1,109,1.17731809616089,bear,bear,0,bear4.png,True,0.8833750344173148,0.6980478763580322,1.0,-0.16674854375038586,27.098673343658447,10,3.7452380952380953,9,28.485082696287293,9
subject-02,1,110,0.69937801361084,cat,cat,0,cat1.png,True,-1.1962566117465918,1.6755263805389404,0.3333333333333333,-1.980642217979754,27.858680605888367,5,1.1356893106893104,9,38.82525669484091,7
subject-02,1,111,0.981884002685547,bear,car,0,car1.png,False,0.032994536171246897,0.1193983480334281,0.0833333333333333,-7.9439975010404815,24.957842223346233,9,0.11369047619047579,9,53.83529967903196,0
subject-02,1,112,0.672441959381104,bottle,bottle,0,bottle3.png,True,-1.313461828141222,0.93168443441391,1.0,-0.7283590303551353,25.259301006793976,9,3.505494505494505,9,29.43331280022213,0
subject-02,1,113,0.754541158676147,car,car,0,car7.png,True,-0.9562285698053103,1.08372962474823,0.125,-4.362931789472945,26.857073068618774,10,0.17586996336996308,9,48.33998940114638,0
subject-02,1,114,1.08304500579834,bear,keyboard,0,keyboard9.png,False,0.4731702634477285,0.024218738079071,0.25,-8.454473017925553,24.110654041171074,9,2.0885281385281385,5,42.711466456827985,4
subject-02,1,115,0.691822052001953,bicycle,bicycle,0,bicycle9.png,True,-1.2291344084678895,1.726635456085205,1.0,-0.5938455920691754,29.86194944381714,10,6.416666666666666,8,26.14536613165542,10
subject-02,1,116,1.00392603874207,car,car,0,car3.png,True,0.12890470860218342,0.1393853276968002,0.0714285714285714,-7.377664405803928,24.87269578874111,9,0.16737429237429208,4,51.0775944377322,0
subject-02,1,117,0.826734066009521,oven,keyboard,0,keyboard5.png,False,-0.6420999578713221,0.8504175543785095,0.3333333333333333,-3.9973024432009145,25.48292988538742,9,2.403246753246753,5,34.283672187175824,4
subject-02,1,118,0.885323047637939,dog,dog,0,dog10.png,True,-0.3871652814138098,1.7302876710891724,0.25,-3.235550761194436,28.56040060520172,10,0.8135642135642135,6,38.80125810557495,7
subject-02,1,119,0.975613832473755,airplane,airplane,0,airplane9.png,True,0.0057115254438272,1.0002779960632324,1.0,-0.24841294927213245,27.526887893676758,10,3.4894230769230767,8,32.4417138371876,3
subject-02,1,120,0.897804975509644,boat,boat,0,boat3.png,True,-0.3328534269473774,2.107492446899414,0.1666666666666666,-3.139732585448095,29.229526042938232,9,1.894444444444444,2,32.39412351642407,2
subject-02,1,121,,na,boat,0,boat6.png,False,,1.0659945011138916,0.3333333333333333,-3.060969684767974,26.06471014022827,9,2.361111111111111,9,33.59197346315697,0
subject-02,1,122,0.724602937698364,keyboard,keyboard,0,keyboard8.png,True,-1.0864969319879814,1.1946980953216553,0.3333333333333333,-2.9298188542514207,27.462268590927124,10,2.51991341991342,5,32.97302347877719,4
subject-02,1,123,0.799139976501465,knife,knife,0,knife10.png,True,-0.762168443196621,0.0524550043046474,1.0,-0.007147522585391168,22.01175469532609,9,7.436111111111111,4,17.565958352328522,5
subject-02,1,124,0.721762895584106,truck,truck,0,truck3.png,True,-1.0988546347061474,0.0226065032184124,0.3333333333333333,-7.261557682518631,24.39289252087474,9,3.2337662337662336,4,39.92972566922128,0
subject-02,1,125,0.850260019302368,airplane,airplane,0,airplane1.png,True,-0.5397329065184883,0.6979068517684937,1.0,-0.1383120589581443,26.86064088344574,10,2.826760739260739,9,33.34940927157891,9
subject-02,1,126,0.740260124206543,cat,bird,0,bird2.png,False,-1.018368767514792,1.8647401332855225,0.1,-3.906369519584394,28.46418023109436,5,0.4175366300366298,8,44.097934198968076,6
subject-02,1,127,1.08464908599854,bear,oven,0,oven9.png,False,0.48015000017439546,1.6727228164672852,0.125,-3.863290332300759,28.260186672210693,5,0.9910714285714283,7,38.078853866406156,6
subject-02,1,128,0.699419021606445,chair,chair,0,chair3.png,True,-1.1960781761465664,0.9003721475601196,1.0,-0.25249804225585865,26.611395120620728,10,3.5039682539682535,9,29.325304507671905,9
subject-02,1,129,0.997677087783813,keyboard,oven,0,oven5.png,False,0.1017140279235928,0.9167710542678832,0.1666666666666666,-5.374407732004108,25.47123897075653,9,1.0239468864468861,6,42.09246993247056,6
subject-02,1,130,0.718194007873535,elephant,elephant,0,elephant7.png,True,-1.1143837189899113,0.1615795791149139,1.0,-0.02502469390687393,26.253598421812057,9,3.2444444444444445,9,29.086633636792428,9
subject-02,1,131,1.10067391395569,airplane,airplane,0,airplane4.png,True,0.549877860550139,1.098313570022583,1.0,-0.4742518177379673,27.45121717453003,10,1.946565934065934,10,36.12295036047186,10
subject-02,1,132,0.969198942184448,car,car,0,car4.png,True,-0.0222011969650854,1.7774224281311035,0.125,-3.801288207368239,27.98019504547119,5,0.17586996336996308,9,47.36763355403154,0
subject-02,1,133,1.50017023086548,oven,keyboard,0,keyboard10.png,False,2.2881819147712497,0.5386461019515991,0.3333333333333333,-4.5005481129098195,24.718389868736267,9,2.5608225108225113,5,35.340925743733756,4
subject-02,1,134,0.81245493888855,bird,bird,0,bird4.png,True,-0.704231856250569,1.342275857925415,0.25,-3.824839805493565,26.975212335586548,9,0.678647741147741,8,44.568422694976995,6
subject-02,1,135,0.902752876281738,truck,truck,0,truck5.png,True,-0.3113239269045601,0.0184795446693897,0.1666666666666666,-8.925702995783992,23.614036682993174,9,3.0218253968253963,4,42.992122343751284,0
subject-02,1,136,1.15507984161377,dog,dog,0,dog5.png,True,0.7866110683885895,1.72717022895813,0.2,-2.9682189729161625,28.465683937072754,10,0.9825757575757574,8,36.77129115929289,6
subject-02,1,137,1.02987098693848,bird,bird,0,bird6.png,True,0.24179738552405824,2.061314582824707,0.3333333333333333,-2.7700083122214547,28.763838052749634,5,0.5726953601953597,10,43.564774287949696,6
subject-02,1,138,0.998347997665405,bear,bear,0,bear5.png,True,0.10463331733334162,1.6186182498931885,0.5,-1.17192176742322,27.502834796905518,9,2.8468253968253965,9,29.592769191788424,10
subject-02,1,139,1.04291796684265,car,car,0,car9.png,True,0.2985679165722371,1.1016991138458252,0.1666666666666666,-4.181459695961067,26.78067648410797,9,0.3050366300366296,9,47.277160751696286,0
subject-02,1,140,1.04734396934509,cat,bear,0,bear9.png,False,0.3178265123798216,2.149468421936035,0.2,-2.3411308802287745,29.22723889350891,5,2.153968253968254,9,31.268392111605387,9
subject-02,1,141,0.699676036834717,boat,boat,0,boat5.png,True,-1.1949598413975562,2.092430353164673,0.1428571428571428,-3.3327904315389763,30.10653042793274,10,2.162301587301587,4,32.65290308928,2
subject-02,1,142,1.03633093833923,car,clock,0,clock5.png,False,0.2699061796097145,0.5294628143310547,1.0,-0.12120325551594355,25.000341415405273,8,4.428846153846154,7,28.789652831062988,6
subject-02,1,143,0.866711139678955,airplane,airplane,0,airplane6.png,True,-0.46815014583547043,0.7243479490280151,1.0,-0.20785998131762473,26.940503358840942,10,2.5734487734487734,9,35.23164677830963,9
subject-02,1,144,0.803382158279419,bird,bird,0,bird10.png,True,-0.7437096953403161,1.5975247621536257,0.1666666666666666,-3.618784851521062,28.115529417991638,5,0.4806929181929178,8,44.022981243707676,6
subject-02,1,145,1.21577620506287,cat,cat,0,cat4.png,True,1.0507154673382135,1.7606042623519895,0.0833333333333333,-4.311104246663034,28.43904745578766,5,0.3174714174714171,8,44.22831899978213,7
subject-02,1,146,1.42750811576843,airplane,keyboard,0,keyboard1.png,False,1.9720116675997221,0.0122929820790886,0.2,-9.011616392724962,23.470053949393332,9,2.5865800865800868,5,45.46467900543771,4
subject-02,1,147,0.949874877929688,dog,dog,0,dog6.png,True,-0.10628482381279843,1.7999632358551023,1.0,-1.1536739911954785,28.617308616638184,10,1.852020202020202,10,34.118518002374245,10
subject-02,1,148,0.756450176239014,airplane,airplane,0,airplane5.png,True,-0.9479219776575276,1.9145504236221311,0.5,-1.952032922000592,28.542208075523376,5,1.3456349206349203,9,39.72066431233494,8
subject-02,1,149,0.776888847351074,airplane,airplane,0,airplane10.png,True,-0.8589884297044222,0.471089631319046,1.0,-0.12154397731578782,25.757543116807938,9,2.563095238095238,9,35.07935447089651,9
subject-02,1,150,0.959455966949463,chair,chair,0,chair5.png,True,-0.06459521321574009,0.3443211317062378,1.0,-0.062473026245307976,26.956134915351868,10,3.3698523698523695,9,29.05954822248547,9
subject-02,1,151,0.760074138641357,car,car,0,car2.png,True,-0.9321532502132639,0.1100213602185249,0.0714285714285714,-8.340588683902602,25.889549262821674,9,0.12018814518814477,4,52.46737934448744,0
subject-02,1,152,0.625967025756836,cat,cat,0,cat7.png,True,-1.5156853834511563,2.112579345703125,0.1666666666666666,-3.078260667255299,29.46441102027893,10,0.4796758796758793,8,40.808886578550386,2
subject-02,1,153,1.24682712554932,truck,boat,0,boat10.png,False,1.185825451296042,0.7359488010406494,0.125,-4.684021750119695,25.85904335975647,9,1.9361111111111111,2,34.86747787107812,2
subject-02,1,154,1.09902000427246,truck,truck,0,truck2.png,True,0.542681303821123,1.290816307067871,0.0769230769230769,-4.733223188663556,27.753594636917114,9,2.6793761793761792,4,35.381165381438315,0
subject-02,1,155,1.50035810470581,truck,oven,0,oven2.png,False,2.2889993987992727,0.9822863340377808,0.0769230769230769,-6.350172207099087,26.984700560569763,9,0.6276556776556771,6,43.89361393077071,6
subject-02,1,156,0.918270111083984,bird,bird,0,bird5.png,True,-0.24380472578727871,1.1631155014038086,1.0,-0.4675721432775835,27.990800142288208,10,1.8670787545787542,10,38.35268178498933,10
subject-02,1,157,1.15475392341614,boat,truck,0,truck9.png,False,0.7851929203348924,0.1128023266792297,0.1428571428571428,-8.348169674293125,24.18083941936493,9,3.1028138528138522,4,41.56946719282817,0
subject-02,1,158,0.901144981384277,airplane,airplane,0,airplane3.png,True,-0.31832026229167437,1.0618655681610107,1.0,-0.2711470797388747,27.248656272888184,9,3.027518315018315,9,32.48235948517896,9
subject-02,1,159,1.49769711494446,airplane,oven,0,oven3.png,False,2.2774207957068184,0.0480378307402133,0.1666666666666666,-7.864957331849892,23.548929069191217,9,1.2947802197802194,6,44.92736819527871,6
subject-02,1,160,1.2035608291626,knife,keyboard,0,keyboard6.png,False,0.9975634442719562,0.0256807003170251,0.25,-7.945918242022703,23.858765931800008,9,2.6365800865800866,5,42.435239197036765,4
subject-06,1,1,,na,bicycle,0,bicycle8.png,False,,0.2790760397911072,1.0,-0.046262176478435446,27.499891221523285,10,7.659523809523809,0,22.82092218196042,9
subject-06,1,2,0.76767897605896,bear,bear,0,bear5.png,True,-0.44987528264596244,1.6186182498931885,0.5,-1.17192176742322,27.502834796905518,9,2.8468253968253965,9,29.592769191788424,10
subject-06,1,3,1.1881468296051,knife,knife,0,knife5.png,True,1.3013951472103849,0.0422463119029998,1.0,-0.004828468472850521,24.023905154317617,9,7.436111111111111,4,19.277414065452295,5
subject-06,1,4,0.980504989624023,bicycle,bicycle,0,bicycle9.png,True,0.436556108285094,1.726635456085205,1.0,-0.5938455920691754,29.86194944381714,10,6.416666666666666,8,26.14536613165542,10
subject-06,1,5,0.848408937454224,airplane,airplane,0,airplane8.png,True,-0.11363080401911789,0.562287449836731,1.0,-0.13992402948040483,26.711125135421753,10,2.674242424242424,9,33.823808255088075,9
subject-06,1,6,0.862901926040649,airplane,bird,0,bird7.png,False,-0.05326675445482356,1.3296146392822266,0.0833333333333333,-5.005253716865668,27.372692704200745,9,0.12330586080586038,10,49.7941810291276,6
subject-06,1,7,0.639587879180908,bottle,bottle,0,bottle8.png,True,-0.9833813483261561,0.3745360672473907,1.0,-0.07905356621691606,25.300053149461746,9,3.453113553113553,9,27.64629148978886,9
subject-06,1,8,0.976001024246216,dog,dog,0,dog9.png,True,0.41779685875691447,1.6043179035186768,1.0,-0.5816210263461141,28.375306129455566,10,2.131818181818182,10,34.23670415183585,10
subject-06,1,9,0.848314046859741,chair,chair,0,chair5.png,True,-0.11402602826940958,0.3443211317062378,1.0,-0.062473026245307976,26.956134915351868,10,3.3698523698523695,9,29.05954822248547,9
subject-06,1,10,0.740181922912598,knife,knife,0,knife8.png,True,-0.5644019359377291,0.3676647245883941,1.0,-0.06369862329948742,24.494971483945847,9,7.003968253968254,4,19.101808417830995,5
subject-06,1,11,1.09259009361267,chair,chair,0,chair2.png,True,0.9033963829629563,0.5549784898757935,0.5,-1.7332018272846916,25.929165840148926,9,2.5155122655122653,0,30.05308511300962,9
subject-06,1,12,0.852102041244507,clock,clock,0,clock2.png,True,-0.09824883508197713,0.7825013399124146,1.0,-0.2189852334968046,25.55911958217621,5,4.448290598290598,7,28.966884192906235,6
subject-06,1,13,0.711824893951416,knife,knife,0,knife4.png,True,-0.6825104331259655,0.2539835572242737,1.0,-0.03975429798160286,24.140582263469696,9,7.436111111111111,4,18.641578885997795,5
subject-06,1,14,0.856721878051758,oven,oven,0,oven7.png,True,-0.07900697503710935,0.2323933541774749,0.2,-6.50428191506854,25.39397844672203,9,0.951785714285714,6,43.441979684762785,6
subject-06,1,15,1.34722590446472,bottle,boat,0,boat6.png,False,1.9639677492796777,1.0659945011138916,0.3333333333333333,-3.060969684767974,26.06471014022827,9,2.361111111111111,9,33.59197346315697,0
subject-06,1,16,1.0633590221405,chair,chair,0,chair10.png,True,0.7816474533587311,0.1993972957134246,1.0,-0.03319693189206421,25.35698625445366,9,4.2595238095238095,8,26.433985036932402,9
subject-06,1,17,,na,truck,0,truck8.png,False,,1.5209696292877195,0.1111111111111111,-4.551738645169329,28.101032257080078,10,2.2734126984126983,2,34.69206934646871,0
subject-06,1,18,1.05937600135803,bottle,elephant,0,elephant2.png,False,0.765057965104125,1.462674856185913,1.0,-0.457483438929068,28.142909288406372,10,2.0468253968253967,10,34.45157897862644,10
subject-06,1,19,0.65752100944519,airplane,airplane,0,airplane5.png,True,-0.908688930150238,1.9145504236221311,0.5,-1.952032922000592,28.542208075523376,5,1.3456349206349203,9,39.72066431233494,8
subject-06,1,20,0.850291967391968,bottle,bottle,0,bottle10.png,True,-0.10578788661010963,0.2805601358413696,1.0,-0.06261420601411985,24.165100932121277,9,3.953113553113553,8,26.48579818704957,0
subject-06,1,21,1.39465999603271,bicycle,bicycle,0,bicycle2.png,True,2.16153320221389,1.0527037382125854,1.0,-0.27275013683468785,29.034146189689636,10,7.9520202020202015,8,23.722468320870703,10
subject-06,1,22,0.893168926239014,car,car,0,car2.png,True,0.07279687205268134,0.1100213602185249,0.0714285714285714,-8.340588683902602,25.889549262821674,9,0.12018814518814477,4,52.46737934448744,0
subject-06,1,23,1.43148112297058,keyboard,oven,0,oven5.png,False,2.3148951067125,0.9167710542678832,0.1666666666666666,-5.374407732004108,25.47123897075653,9,1.0239468864468861,6,42.09246993247056,6
subject-06,1,24,0.786182880401611,chair,chair,0,chair3.png,True,-0.37280556081378147,0.9003721475601196,1.0,-0.25249804225585865,26.611395120620728,10,3.5039682539682535,9,29.325304507671905,9
subject-06,1,25,1.50031709671021,truck,truck,0,truck7.png,True,2.6016005095248307,0.1029206290841102,0.25,-7.623899221143544,25.178512908518314,9,3.1975579975579977,4,38.981429788912465,0
subject-06,1,26,0.606912136077881,knife,boat,0,boat8.png,False,-1.1194775140313287,0.3425770998001098,0.25,-5.502480987159791,24.204804301261902,9,1.9916666666666665,2,37.1626479677331,2
subject-06,1,27,1.35943794250488,elephant,elephant,0,elephant6.png,True,2.014831521450708,0.3467084765434265,1.0,-0.06239613131337548,27.86437100172043,10,2.41031746031746,10,31.246022329532806,9
subject-06,1,28,0.881899833679199,airplane,airplane,0,airplane7.png,True,0.025860516740675202,0.8228142261505127,1.0,-0.6590064680196629,25.858278632164,9,2.2714285714285714,10,36.181152470711886,3
subject-06,1,29,0.980794906616211,boat,keyboard,0,keyboard4.png,False,0.4377636276025633,1.1582952737808228,0.3333333333333333,-1.8600738400861454,26.21070158481598,9,2.5532467532467535,5,30.519410783439035,4
subject-06,1,30,0.711199998855591,clock,clock,0,clock6.png,True,-0.6851131536284983,0.7800217866897583,1.0,-0.20548784419563706,26.32568049430847,10,5.143589743589743,6,28.834956335990785,6
subject-06,1,31,0.787739992141724,bird,bird,0,bird5.png,True,-0.3663201096111659,1.1631155014038086,1.0,-0.4675721432775835,27.990800142288208,10,1.8670787545787542,10,38.35268178498933,10
subject-06,1,32,0.955866098403931,bird,bird,0,bird9.png,True,0.3339338477382261,1.6529052257537842,0.5,-1.0559407616153296,29.078139305114746,10,1.3322802197802193,8,39.74551682283378,10
subject-06,1,33,1.26264595985413,knife,keyboard,0,keyboard5.png,False,1.6116878907692587,0.8504175543785095,0.3333333333333333,-3.9973024432009145,25.48292988538742,9,2.403246753246753,5,34.283672187175824,4
subject-06,1,34,1.03120589256287,truck,truck,0,truck5.png,True,0.6477280001074399,0.0184795446693897,0.1666666666666666,-8.925702995783992,23.614036682993174,9,3.0218253968253963,4,42.992122343751284,0
subject-06,1,35,0.885267019271851,truck,truck,0,truck10.png,True,0.039885019471423755,0.8483099341392517,0.1428571428571428,-5.056818396423247,26.72241371870041,9,2.422258297258297,2,35.58551659569979,0
subject-06,1,36,0.577838897705078,bottle,bottle,0,bottle1.png,True,-1.2405690605860702,0.1499397754669189,1.0,-0.024160411740836222,24.014189049601555,9,4.036446886446886,8,26.57736316732285,0
subject-06,1,37,0.776156902313232,clock,clock,0,clock7.png,True,-0.4145642798418441,0.8511953353881836,1.0,-0.32022585637842815,25.971550226211548,9,3.28003663003663,9,30.3590547728653,6
subject-06,1,38,0.63639497756958,knife,knife,0,knife3.png,True,-0.996679949230365,1.280087947845459,1.0,-0.3717829136613654,26.570257663726807,9,6.561111111111111,4,20.383254192503,5
subject-06,1,39,1.0184760093689,knife,keyboard,0,keyboard3.png,False,0.5947073759976388,0.2315678298473358,0.2,-5.641990557712976,24.98717227578163,9,1.8754079254079252,6,38.362120418488885,4
subject-06,1,40,0.886588096618652,bird,bird,0,bird4.png,True,0.04538737517708238,1.342275857925415,0.25,-3.824839805493565,26.975212335586548,9,0.678647741147741,8,44.568422694976995,6
subject-06,1,41,1.07106494903564,boat,boat,0,boat3.png,True,0.8137430387697869,2.107492446899414,0.1666666666666666,-3.139732585448095,29.229526042938232,9,1.894444444444444,2,32.39412351642407,2
subject-06,1,42,0.960961103439331,airplane,airplane,0,airplane10.png,True,0.3551548081118024,0.471089631319046,1.0,-0.12154397731578782,25.757543116807938,9,2.563095238095238,9,35.07935447089651,9
subject-06,1,43,,na,truck,0,truck4.png,False,,0.6831589937210083,0.25,-3.996430788114304,26.28192889690399,9,3.0857142857142854,4,34.097104347272186,0
subject-06,1,44,0.651650905609131,airplane,boat,0,boat4.png,False,-0.9331382172516796,0.1769010722637176,0.3333333333333333,-5.3896997562114155,24.35782289505005,9,2.477777777777778,9,35.986296224942826,2
subject-06,1,45,0.966028928756714,knife,knife,0,knife6.png,True,0.37626256354936793,0.5501472353935242,1.0,-0.09964242498769026,25.170568585395813,9,7.453968253968254,4,19.73890799717973,5
subject-06,1,46,0.574892044067383,cat,cat,0,cat1.png,True,-1.2528428589116383,1.6755263805389404,0.3333333333333333,-1.980642217979754,27.858680605888367,5,1.1356893106893104,9,38.82525669484091,7
subject-06,1,47,0.63506293296814,bottle,bottle,0,bottle6.png,True,-1.0022279841207318,0.2374956905841827,1.0,-0.03686422557124346,25.054278761148453,9,4.003113553113553,8,27.54376772684189,0
subject-06,1,48,1.28760099411011,knife,keyboard,0,keyboard10.png,False,1.7156269034665856,0.5386461019515991,0.3333333333333333,-4.5005481129098195,24.718389868736267,9,2.5608225108225113,5,35.340925743733756,4
subject-06,1,49,0.84004020690918,boat,cat,0,cat3.png,False,-0.14848700102767892,0.7396632432937622,0.0833333333333333,-5.098902548956905,26.53859794139862,10,0.28120213120213083,8,45.66316827377532,2
subject-06,1,50,0.802800893783569,dog,dog,0,dog10.png,True,-0.30359067269966183,1.7302876710891724,0.25,-3.235550761194436,28.56040060520172,10,0.8135642135642135,6,38.80125810557495,7
subject-06,1,51,0.776592016220093,elephant,elephant,0,elephant7.png,True,-0.41275200783988625,0.1615795791149139,1.0,-0.02502469390687393,26.253598421812057,9,3.2444444444444445,9,29.086633636792428,9
subject-06,1,52,0.823242902755737,boat,boat,0,boat10.png,True,-0.21844864450918228,0.7359488010406494,0.125,-4.684021750119695,25.85904335975647,9,1.9361111111111111,2,34.86747787107812,2
subject-06,1,53,1.19786906242371,bear,bear,0,bear2.png,True,1.341888751427246,1.3922713994979858,0.2,-3.3754631477940853,27.940189957618713,9,2.211904761904762,8,33.19051754431012,7
subject-06,1,54,1.19820213317871,elephant,bear,0,bear7.png,False,1.3432760084062565,0.0380529910326004,0.1111111111111111,-9.095833272638775,25.02587766945362,9,1.8301587301587299,6,41.88404097894363,4
subject-06,1,55,0.904741764068604,chair,chair,0,chair7.png,True,0.12099834217591342,1.1977248191833496,0.5,-0.9635784050519798,27.262067079544067,10,2.0734848484848483,0,31.70874881873108,7
subject-06,1,56,0.803298950195312,elephant,elephant,0,elephant8.png,True,-0.30151624189852083,1.3585662841796875,1.0,-0.4578744601045355,27.980400562286377,10,2.5972222222222223,10,32.10827904396114,9
subject-06,1,57,1.34160995483398,bird,bird,0,bird6.png,True,1.9405770276325154,2.061314582824707,0.3333333333333333,-2.7700083122214547,28.763838052749634,5,0.5726953601953597,10,43.564774287949696,6
subject-06,1,58,1.27010297775269,truck,truck,0,truck2.png,True,1.642746757292629,1.290816307067871,0.0769230769230769,-4.733223188663556,27.753594636917114,9,2.6793761793761792,4,35.381165381438315,0
subject-06,1,59,1.27889585494995,boat,boat,0,boat9.png,True,1.6793695471184151,1.7922217845916748,0.2,-3.7175960242277903,29.468806982040405,10,1.862301587301587,2,33.08482100477063,2
subject-06,1,60,1.04704093933105,bottle,bottle,0,bottle5.png,True,0.7136817916437599,0.8005474805831909,1.0,-0.26826981411192924,24.679706573486328,9,3.553113553113553,9,27.81857718491366,0
subject-06,1,61,0.685554981231689,boat,car,0,car6.png,False,-0.791925982859345,0.2452020645141601,0.0625,-7.79564356798114,25.691543102264404,9,0.07959956709956678,4,54.28596948227269,0
subject-06,1,62,0.73024582862854,dog,cat,0,cat7.png,False,-0.6057862842563477,2.112579345703125,0.1666666666666666,-3.078260667255299,29.46441102027893,10,0.4796758796758793,8,40.808886578550386,2
subject-06,1,63,0.63689398765564,boat,truck,0,truck1.png,False,-0.9946015463262031,0.050715185701847,0.1428571428571428,-8.360840545292888,24.409981556236744,9,3.3643217893217896,2,42.093280728210196,0
subject-06,1,64,0.512672901153564,bottle,bottle,0,bottle7.png,True,-1.5119888179594214,0.9076037406921388,1.0,-0.34082942121919263,26.77130162715912,10,3.336446886446886,9,29.04079368592336,0
subject-06,1,65,0.951296806335449,bottle,clock,0,clock8.png,False,0.3149025091533096,0.7496044635772705,1.0,-0.2342430178775599,25.34441602230072,9,3.78003663003663,8,29.426404824680482,6
subject-06,1,66,0.474007129669189,bottle,bottle,0,bottle4.png,True,-1.6730337627205507,0.9056259393692015,1.0,-0.4766271360375895,25.035207867622375,9,3.505494505494505,9,28.632821562837748,0
subject-06,1,67,0.756174087524414,bicycle,bicycle,0,bicycle4.png,True,-0.49779374042916313,1.0075751543045044,1.0,-0.3791899744496963,28.72160565853119,10,6.431818181818182,8,25.93787308192337,10
subject-06,1,68,0.662561893463135,cat,cat,0,cat2.png,True,-0.8876933866229281,1.6986392736434937,0.25,-2.6043964150650036,27.724356532096863,9,1.0365440115440112,8,38.899522974751044,8
subject-06,1,69,0.892838001251221,knife,keyboard,0,keyboard6.png,False,0.07141855230544102,0.0256807003170251,0.25,-7.945918242022703,23.858765931800008,9,2.6365800865800866,5,42.435239197036765,4
subject-06,1,70,0.769366025924683,knife,keyboard,0,keyboard2.png,False,-0.44284863240714795,0.9772682189941406,0.3333333333333333,-3.3493273142063624,26.02284848690033,9,2.5608225108225113,5,32.56050224251735,4
subject-06,1,71,0.721758842468262,knife,knife,0,knife9.png,True,-0.6411350220391374,0.1734974980354309,1.0,-0.024430954123163942,24.09703040122986,9,7.436111111111111,4,19.230580831116633,5
subject-06,1,72,0.581346035003662,bicycle,bicycle,0,bicycle7.png,True,-1.2259616517374352,0.3911542296409607,1.0,-0.0676624190707521,27.088714003562927,9,6.549242424242424,8,22.572351765062233,9
subject-06,1,73,0.603765964508057,boat,clock,0,clock1.png,False,-1.1325814818876558,1.0105984210968018,0.5,-1.50946460719858,27.396589159965515,10,2.9368797868797865,8,32.83779767953674,6
subject-06,1,74,0.650635957717896,bicycle,bicycle,0,bicycle5.png,True,-0.9373655278885672,1.2128949165344238,1.0,-0.5519353779281496,29.3389732837677,10,7.659523809523809,0,24.218881614182838,10
subject-06,1,75,0.67877984046936,boat,boat,0,boat7.png,True,-0.8201447957248549,0.2351906299591064,0.1666666666666666,-5.766832345891582,24.26218819618225,9,1.9444444444444442,2,37.31716802836733,2
subject-06,1,76,0.655722856521606,elephant,elephant,0,elephant1.png,True,-0.9161783303906461,0.2242017686367035,1.0,-0.04819997224184907,26.55151805281639,10,2.480891330891331,10,31.77810423750726,10
subject-06,1,77,0.877862930297852,chair,chair,0,chair6.png,True,0.009046604665553177,0.7242881059646606,0.5,-1.355882620324528,26.148768067359924,9,2.7416666666666663,0,30.161796847521117,6
subject-06,1,78,1.25446915626526,airplane,airplane,0,airplane2.png,True,1.5776310794930548,0.9961801171302797,1.0,-0.2685686218960489,27.473564207553864,10,2.8047619047619046,9,34.838213404934585,9
subject-06,1,79,0.614824056625366,airplane,airplane,0,airplane9.png,True,-1.0865239543683831,1.0002779960632324,1.0,-0.24841294927213245,27.526887893676758,10,3.4894230769230767,8,32.4417138371876,3
subject-06,1,80,0.991156101226807,elephant,elephant,0,elephant4.png,True,0.48091854084144764,0.2706356048583984,0.5,-3.951192638705457,25.605454087257385,9,1.6817210567210565,1,38.45384735098602,1
subject-06,1,81,0.67340612411499,bear,bear,0,bear1.png,True,-0.8425266032054378,0.8371682167053223,0.3333333333333333,-3.2334037015502752,25.855608701705933,9,2.6655122655122656,8,33.60681965234186,7
subject-06,1,82,0.849858999252319,clock,clock,0,clock5.png,True,-0.10759122138027652,0.5294628143310547,1.0,-0.12120325551594355,25.000341415405273,8,4.428846153846154,7,28.789652831062988,6
subject-06,1,83,0.648779153823853,car,car,0,car3.png,True,-0.9450992124645814,0.1393853276968002,0.0714285714285714,-7.377664405803928,24.87269578874111,9,0.16737429237429208,4,51.0775944377322,0
subject-06,1,84,0.779170036315918,truck,truck,0,truck3.png,True,-0.4020144203565229,0.0226065032184124,0.3333333333333333,-7.261557682518631,24.39289252087474,9,3.2337662337662336,4,39.92972566922128,0
subject-06,1,85,0.733500003814697,boat,oven,0,oven10.png,False,-0.5922324757332339,0.151302695274353,0.3333333333333333,-6.034615570395124,25.132411122322083,9,1.5578754578754577,6,40.232423668399456,6
subject-06,1,86,0.616171836853027,boat,oven,0,oven4.png,False,-1.0809103797782182,0.459288090467453,0.1666666666666666,-6.02259863357431,25.338867634534836,9,1.0072802197802193,6,42.26420485324866,6
subject-06,1,87,0.684149980545044,knife,knife,0,knife10.png,True,-0.7977778836305875,0.0524550043046474,1.0,-0.007147522585391168,22.01175469532609,9,7.436111111111111,4,17.565958352328522,5
subject-06,1,88,1.21260190010071,cat,dog,0,dog3.png,False,1.4032517849005581,1.6781264543533323,1.0,-0.8167631552443656,28.822258830070496,10,2.230988455988456,10,33.25195808514575,10
subject-06,1,89,1.17270994186401,bear,bear,0,bear4.png,True,1.2370997086840323,0.6980478763580322,1.0,-0.16674854375038586,27.098673343658447,10,3.7452380952380953,9,28.485082696287293,9
subject-06,1,90,0.635601043701172,boat,car,0,car1.png,False,-0.9999867249928354,0.1193983480334281,0.0833333333333333,-7.9439975010404815,24.957842223346233,9,0.11369047619047579,9,53.83529967903196,0
subject-06,1,91,1.08774614334106,car,car,0,car10.png,True,0.883221078708848,0.2572767734527588,0.0909090909090909,-6.522738239740992,25.336657285690308,9,0.10011238761238739,9,50.98515370504225,0
subject-06,1,92,0.856319904327393,bear,cat,0,cat10.png,False,-0.08068121645918853,1.3860822916030884,0.3333333333333333,-3.161419547654075,28.080768942832947,10,0.6597985347985345,10,42.33575781853692,7
subject-06,1,93,,na,boat,0,boat5.png,False,,2.092430353164673,0.1428571428571428,-3.3327904315389763,30.10653042793274,10,2.162301587301587,4,32.65290308928,2
subject-06,1,94,1.09888410568237,elephant,dog,0,dog1.png,False,0.9296112698558846,0.9780890941619872,0.1666666666666666,-4.707601270080966,26.93509078025818,10,1.0309884559884557,7,38.845988925735995,6
subject-06,1,95,0.631529092788696,boat,boat,0,boat2.png,True,-1.016946611853873,0.3305868506431579,0.0833333333333333,-5.943787547096399,25.267123639583588,9,2.227777777777778,2,35.7848246187016,2
subject-06,1,96,1.38998317718506,elephant,elephant,0,elephant5.png,True,2.1420540090137243,1.1037060022354126,1.0,-0.33435183373451327,27.828163027763367,10,2.396464646464646,10,32.319384820899636,10
subject-06,1,97,0.666745901107788,bottle,bottle,0,bottle3.png,True,-0.8702667776572807,0.93168443441391,1.0,-0.7283590303551353,25.259301006793976,9,3.505494505494505,9,29.43331280022213,0
subject-06,1,98,1.18089604377747,dog,dog,0,dog6.png,True,1.2711952479646829,1.7999632358551023,1.0,-1.1536739911954785,28.617308616638184,10,1.852020202020202,10,34.118518002374245,10
subject-06,1,99,0.619308233261108,boat,oven,0,oven1.png,False,-1.0678471259778248,0.1176650375127792,0.2,-7.515732498960675,25.223919734358788,9,1.142399267399267,6,43.466413957579334,6
subject-06,1,100,0.779656171798706,elephant,elephant,0,elephant9.png,True,-0.39998964084310573,0.1342518627643585,1.0,-0.022464990779179933,26.613557249307632,10,3.253968253968254,9,28.96451605805583,9
subject-06,1,101,1.09995198249817,elephant,bear,0,bear6.png,False,0.9340590322102894,1.0105020999908447,0.125,-4.972848925275703,26.87538480758667,9,1.8373015873015868,3,36.5359310286717,7
subject-06,1,102,0.691797018051147,boat,car,0,car4.png,False,-0.7659275755808875,1.7774224281311035,0.125,-3.801288207368239,27.98019504547119,5,0.17586996336996308,9,47.36763355403154,0
subject-06,1,103,0.636145830154419,bird,bird,0,bird8.png,True,-0.9977176611438127,1.94354784488678,0.1428571428571428,-3.1586122164072297,28.59706938266754,5,0.4631715506715503,8,43.95182751506435,6
subject-06,1,104,0.596890926361084,cat,cat,0,cat9.png,True,-1.1612163725443012,1.552127718925476,0.125,-4.335040885376538,28.061052441596985,10,0.327380952380952,10,44.61673405863523,7
subject-06,1,105,0.481247901916504,bottle,bottle,0,bottle9.png,True,-1.6428755705565075,0.8854260444641113,1.0,-0.2205356604308822,25.988403916358948,9,3.4031135531135526,9,27.75361121784888,0
subject-06,1,106,0.749807119369507,cat,elephant,0,elephant10.png,False,-0.5243124932029756,1.2900938987731934,0.0909090909090909,-5.3610635540136515,27.67066216468811,10,1.014321789321789,1,40.43103953316568,1
subject-06,1,107,0.942409992218018,car,car,0,car7.png,True,0.2778884671802317,1.08372962474823,0.125,-4.362931789472945,26.857073068618774,10,0.17586996336996308,9,48.33998940114638,0
subject-06,1,108,1.03267812728882,clock,clock,0,clock4.png,True,0.6538599341414429,1.2233519554138184,1.0,-0.5897980423881595,26.180797219276428,5,2.7482905982905983,10,33.603296068141994,6
subject-06,1,109,0.609455108642578,chair,chair,0,chair4.png,True,-1.108885901333876,0.8954275846481323,1.0,-0.46997635453224473,27.53571128845215,10,3.6226551226551225,9,27.990560984824736,9
subject-06,1,110,0.707401037216187,car,car,0,car8.png,True,-0.7009360260006353,0.6222917437553406,0.0666666666666666,-5.802389920013663,26.351183593273163,9,0.09954212454212408,4,50.146282985528416,0
subject-06,1,111,0.829998016357422,knife,keyboard,0,keyboard1.png,False,-0.19031324580704773,0.0122929820790886,0.2,-9.011616392724962,23.470053949393332,9,2.5865800865800868,5,45.46467900543771,4
subject-06,1,112,0.760658979415894,bird,dog,0,dog5.png,False,-0.47911393296133825,1.72717022895813,0.2,-2.9682189729161625,28.465683937072754,10,0.9825757575757574,8,36.77129115929289,6
subject-06,1,113,1.50012397766113,airplane,airplane,0,airplane6.png,True,2.6007961586636568,0.7243479490280151,1.0,-0.20785998131762473,26.940503358840942,10,2.5734487734487734,9,35.23164677830963,9
subject-06,1,114,1.3051929473877,elephant,bear,0,bear9.png,False,1.7888983017878295,2.149468421936035,0.2,-2.3411308802287745,29.22723889350891,5,2.153968253968254,9,31.268392111605387,9
subject-06,1,115,0.703529119491577,airplane,airplane,0,airplane3.png,True,-0.7170627642536512,1.0618655681610107,1.0,-0.2711470797388747,27.248656272888184,9,3.027518315018315,9,32.48235948517896,9
subject-06,1,116,0.562038898468018,bicycle,bicycle,0,bicycle6.png,True,-1.306376877336512,1.9658880233764648,0.2,-3.5883591385665468,28.74655294418335,9,5.460714285714286,0,31.357980679198068,0
subject-06,1,117,0.860707998275757,boat,oven,0,oven6.png,False,-0.06240457744769264,0.1149904876947403,0.25,-5.906173357106009,24.425181344151497,9,1.8560897435897434,6,39.891531335991395,6
subject-06,1,118,0.590905904769897,chair,chair,0,chair8.png,True,-1.1861442980594141,0.7669309377670288,1.0,-0.26871287362476615,27.49709928035736,10,3.916666666666666,9,27.527216876379697,9
subject-06,1,119,1.05154490470886,oven,oven,0,oven3.png,True,0.7324410411719523,0.0480378307402133,0.1666666666666666,-7.864957331849892,23.548929069191217,9,1.2947802197802194,6,44.92736819527871,6
subject-06,1,120,0.68190598487854,bear,bear,0,bear10.png,True,-0.8071242420319031,1.3355778455734253,0.3333333333333333,-2.6965414447137577,27.645246505737305,10,2.3369047619047616,3,32.1104498801216,7
subject-06,1,121,0.964730978012085,dog,cat,0,cat8.png,False,0.3708565313418917,0.8320249319076538,0.25,-3.751757338956622,25.9503892660141,9,0.518326118326118,10,43.633510431662444,10
subject-06,1,122,0.632863998413086,keyboard,keyboard,0,keyboard8.png,True,-1.0113866606544484,1.1946980953216553,0.3333333333333333,-2.9298188542514207,27.462268590927124,10,2.51991341991342,5,32.97302347877719,4
subject-06,1,123,0.51701807975769,bottle,bottle,0,bottle2.png,True,-1.4938909235837334,0.4004149138927459,1.0,-0.11787295330549778,24.217580884695053,9,3.505494505494505,9,28.219253119715518,0
subject-06,1,124,1.25779104232788,oven,oven,0,oven8.png,True,1.591466907330438,0.641850471496582,0.2,-4.790213810932784,26.664063811302185,9,1.3351190476190473,6,38.39396832254122,6
subject-06,1,125,0.695960998535156,chair,chair,0,chair9.png,True,-0.7485843807786154,0.2202668488025665,1.0,-0.0358433490667303,26.345622807741165,10,3.6115440115440114,9,27.734890587484013,9
subject-06,1,126,0.924702167510986,dog,dog,0,dog4.png,True,0.20413445834230803,1.5292118787765503,0.5,-1.567096677265635,27.723833441734314,5,1.3920995670995668,10,35.908220382189484,10
subject-06,1,127,1.33835601806641,elephant,elephant,0,elephant3.png,True,1.9270242121351893,1.3091505765914917,0.125,-4.074674904197661,26.835612893104553,5,1.143192918192918,1,39.61352953020183,1
subject-06,1,128,0.875076055526733,bicycle,bicycle,0,bicycle3.png,True,-0.0025608733787532505,1.8240084648132324,1.0,-0.8854870100349441,29.66544795036316,10,7.477777777777777,8,24.531738627468325,10
subject-06,1,129,1.02141189575195,bird,bird,0,bird10.png,True,0.6069354951384737,1.5975247621536257,0.1666666666666666,-3.618784851521062,28.115529417991638,5,0.4806929181929178,8,44.022981243707676,6
subject-06,1,130,0.806125164031982,bird,dog,0,dog2.png,False,-0.2897449146047258,1.059274435043335,0.1428571428571428,-4.845889256941585,27.17441427707672,10,0.9710678210678209,7,38.85220670138642,6
subject-06,1,131,0.634259939193726,clock,clock,0,clock10.png,True,-1.0055724948618736,1.771845459938049,1.0,-0.8694968622700346,28.09455978870392,5,3.1531135531135526,9,31.95911770227626,6
subject-06,1,132,0.542890071868896,bicycle,bicycle,0,bicycle1.png,True,-1.3861327338346094,0.7821623086929321,1.0,-0.20323642091508554,28.705861449241638,10,7.485353535353535,8,24.324281259882955,9
subject-06,1,133,0.801658868789673,dog,dog,0,dog7.png,True,-0.30834726606369545,2.1757519245147705,0.5,-1.687223139577615,29.179062604904175,5,1.3266233766233764,10,34.38167386522102,10
subject-06,1,134,1.22393894195557,truck,truck,0,truck9.png,True,1.4504711525525997,0.1128023266792297,0.1428571428571428,-8.348169674293125,24.18083941936493,9,3.1028138528138522,4,41.56946719282817,0
subject-06,1,135,1.13025593757629,oven,oven,0,oven9.png,True,1.0602765777097167,1.6727228164672852,0.125,-3.863290332300759,28.260186672210693,5,0.9910714285714283,7,38.078853866406156,6
subject-06,1,136,0.530699014663696,clock,clock,0,clock9.png,True,-1.4369091197392485,0.5341020226478577,1.0,-0.11355582864054921,25.773021161556244,10,5.012179487179487,6,28.857301695400526,6
subject-06,1,137,0.775355100631714,bird,bird,0,bird1.png,True,-0.4179038254542115,2.288992166519165,0.1111111111111111,-3.401391361439696,29.16842532157898,5,0.3362234987234984,8,44.293877386141254,6
subject-06,1,138,0.667901992797852,cat,cat,0,cat6.png,True,-0.8654515957737277,1.865309476852417,0.3333333333333333,-2.478125791853951,28.640413284301758,10,0.7717032967032962,10,40.21154843142314,8
subject-06,1,139,0.880335092544556,knife,keyboard,0,keyboard9.png,False,0.019343288713920836,0.024218738079071,0.25,-8.454473017925553,24.110654041171074,9,2.0885281385281385,5,42.711466456827985,4
subject-06,1,140,0.780993938446045,knife,knife,0,knife1.png,True,-0.3944177733346287,0.4626525640487671,1.0,-0.08561595510039202,24.19581699371338,9,7.111111111111111,4,18.32781045812547,5
subject-06,1,141,0.80973482131958,airplane,airplane,0,airplane1.png,True,-0.2747105046816563,0.6979068517684937,1.0,-0.1383120589581443,26.86064088344574,10,2.826760739260739,9,33.34940927157891,9
subject-06,1,142,0.685540914535522,cat,cat,0,cat4.png,True,-0.7919845713788602,1.7606042623519895,0.0833333333333333,-4.311104246663034,28.43904745578766,5,0.3174714174714171,8,44.22831899978213,7
subject-06,1,143,1.01614022254944,oven,oven,0,oven2.png,True,0.584978702680834,0.9822863340377808,0.0769230769230769,-6.350172207099087,26.984700560569763,9,0.6276556776556771,6,43.89361393077071,6
subject-06,1,144,0.714647054672241,airplane,airplane,0,airplane4.png,True,-0.6707559872699983,1.098313570022583,1.0,-0.4742518177379673,27.45121717453003,10,1.946565934065934,10,36.12295036047186,10
subject-06,1,145,1.05841612815857,bear,bear,0,bear8.png,True,0.7610600434165365,1.576876878738403,0.5,-1.5335139104302808,26.547012090682983,9,2.703968253968254,9,31.573474864577314,10
subject-06,1,146,0.828933954238892,cat,cat,0,cat5.png,True,-0.1947451197493616,1.4968347549438477,0.2,-3.5978916812592767,28.347256422042847,10,0.7486263736263734,8,40.41817178316328,8
subject-06,1,147,0.665268898010254,knife,knife,0,knife2.png,True,-0.876418572206382,0.4567306041717529,1.0,-0.07806566492823909,25.52503228187561,9,7.503968253968254,4,19.493232225074106,9
subject-06,1,148,1.10387301445007,knife,keyboard,0,keyboard7.png,False,0.9503903337687107,0.924674153327942,0.3333333333333333,-3.0280816132544284,25.691233277320862,9,2.477489177489178,5,32.241106228052125,4
subject-06,1,149,1.26250004768372,boat,boat,0,boat1.png,True,1.611080159007508,0.2709161937236786,0.25,-5.366983831882187,24.893140643835068,9,2.2416666666666667,2,35.11564646750146,2
subject-06,1,150,0.840295076370239,car,car,0,car9.png,True,-0.14742545649612512,1.1016991138458252,0.1666666666666666,-4.181459695961067,26.78067648410797,9,0.3050366300366296,9,47.277160751696286,0
subject-06,1,151,1.0309419631958,knife,bird,0,bird2.png,False,0.6466287205971936,1.8647401332855225,0.1,-3.906369519584394,28.46418023109436,5,0.4175366300366298,8,44.097934198968076,6
subject-06,1,152,0.783299922943115,bear,bear,0,bear3.png,True,-0.3848132282371456,1.0137547254562378,0.25,-3.670694198298103,27.57740843296051,10,2.480988455988456,9,33.01876456457949,9
subject-06,1,153,1.02964210510254,car,truck,0,truck6.png,False,0.6412147441836893,0.1164510697126388,0.1666666666666666,-7.179554630904085,25.500965639948845,9,2.0754329004329,2,38.60139526988931,0
subject-06,1,154,1.08221292495728,bear,car,0,car5.png,False,0.8601749369985447,1.0978254079818726,0.1,-5.256313008503281,26.741753935813904,9,0.141779054279054,9,49.406907601715,0
subject-06,1,155,0.742424964904785,knife,knife,0,knife7.png,True,-0.5550595496394335,0.0236362945288419,1.0,-0.0025260138832189595,23.290407260414213,9,7.453968253968254,4,18.35275143428155,5
subject-06,1,156,0.956718921661377,bicycle,bicycle,0,bicycle10.png,True,0.3374859008620566,2.0921552181243896,1.0,-1.1502208283759905,29.75967240333557,10,5.7511655011655005,0,27.015452283323363,7
subject-06,1,157,0.817109107971191,bird,bird,0,bird3.png,True,-0.24399621809509908,1.3284151554107666,0.1428571428571428,-4.197183590531037,27.793187737464905,10,0.45325091575091536,8,44.8165724944627,6
subject-06,1,158,1.03128504753113,chair,chair,0,chair1.png,True,0.6480576846579252,0.2907571196556091,0.5,-2.958733563205035,24.555747151374817,9,2.5444444444444443,0,33.798104656545775,6
subject-06,1,159,0.494019031524658,clock,clock,0,clock3.png,True,-1.5896831529911808,0.3845948576927185,1.0,-0.08149319507127516,24.455850899219513,9,4.414957264957264,7,28.752523660054187,6
subject-06,1,160,1.10043501853943,dog,dog,0,dog8.png,True,0.9360709023888991,0.1974261105060577,0.5,-3.666799052638583,26.820307284593582,10,1.546139971139971,8,38.122158669074906,8
subject-01,1,1,0.857651233673096,boat,boat,0,boat5.png,True,0.4033724721150204,2.092430353164673,0.1428571428571428,-3.3327904315389763,30.10653042793274,10,2.162301587301587,4,32.65290308928,2
subject-01,1,2,0.987100124359131,airplane,car,0,car6.png,False,1.2117090838188695,0.2452020645141601,0.0625,-7.79564356798114,25.691543102264404,9,0.07959956709956678,4,54.28596948227269,0
subject-01,1,3,1.30952906608582,bottle,boat,0,boat10.png,False,3.2250992093684494,0.7359488010406494,0.125,-4.684021750119695,25.85904335975647,9,1.9361111111111111,2,34.86747787107812,2
subject-01,1,4,1.09181594848633,elephant,elephant,0,elephant7.png,True,1.8656013962068954,0.1615795791149139,1.0,-0.02502469390687393,26.253598421812057,9,3.2444444444444445,9,29.086633636792428,9
subject-01,1,5,0.892575025558472,elephant,elephant,0,elephant4.png,True,0.6214522057524806,0.2706356048583984,0.5,-3.951192638705457,25.605454087257385,9,1.6817210567210565,1,38.45384735098602,1
subject-01,1,6,0.85198712348938,boat,truck,0,truck1.png,False,0.3680032417573266,0.050715185701847,0.1428571428571428,-8.360840545292888,24.409981556236744,9,3.3643217893217896,2,42.093280728210196,0
subject-01,1,7,0.998656988143921,airplane,airplane,0,airplane4.png,True,1.2838752960143667,1.098313570022583,1.0,-0.4742518177379673,27.45121717453003,10,1.946565934065934,10,36.12295036047186,10
subject-01,1,8,0.942207813262939,bear,bear,0,bear8.png,True,0.9313814699572414,1.576876878738403,0.5,-1.5335139104302808,26.547012090682983,9,2.703968253968254,9,31.573474864577314,10
subject-01,1,9,0.786468982696533,keyboard,keyboard,0,keyboard5.png,True,-0.041121252496366854,0.8504175543785095,0.3333333333333333,-3.9973024432009145,25.48292988538742,9,2.403246753246753,5,34.283672187175824,4
subject-01,1,10,0.732884883880615,dog,dog,0,dog9.png,True,-0.37572426568955847,1.6043179035186768,1.0,-0.5816210263461141,28.375306129455566,10,2.131818181818182,10,34.23670415183585,10
subject-01,1,11,0.708636999130249,keyboard,keyboard,0,keyboard7.png,True,-0.52713887338701,0.924674153327942,0.3333333333333333,-3.0280816132544284,25.691233277320862,9,2.477489177489178,5,32.241106228052125,4
subject-01,1,12,0.891142129898071,bear,bear,0,bear2.png,True,0.6125045661325862,1.3922713994979858,0.2,-3.3754631477940853,27.940189957618713,9,2.211904761904762,8,33.19051754431012,7
subject-01,1,13,0.791546106338501,bird,bird,0,bird1.png,True,-0.009417427919732905,2.288992166519165,0.1111111111111111,-3.401391361439696,29.16842532157898,5,0.3362234987234984,8,44.293877386141254,6
subject-01,1,14,0.859622001647949,airplane,airplane,0,airplane6.png,True,0.41567882637425363,0.7243479490280151,1.0,-0.20785998131762473,26.940503358840942,10,2.5734487734487734,9,35.23164677830963,9
subject-01,1,15,1.10391688346863,cat,dog,0,dog3.png,False,1.941165031632442,1.6781264543533323,1.0,-0.8167631552443656,28.822258830070496,10,2.230988455988456,10,33.25195808514575,10
subject-01,1,16,0.864359855651855,keyboard,truck,0,truck7.png,False,0.4452641000059424,0.1029206290841102,0.25,-7.623899221143544,25.178512908518314,9,3.1975579975579977,4,38.981429788912465,0
subject-01,1,17,1.12676501274109,keyboard,oven,0,oven6.png,False,2.083838941791058,0.1149904876947403,0.25,-5.906173357106009,24.425181344151497,9,1.8560897435897434,6,39.891531335991395,6
subject-01,1,18,0.895140886306763,bottle,boat,0,boat6.png,False,0.6374745847190793,1.0659945011138916,0.3333333333333333,-3.060969684767974,26.06471014022827,9,2.361111111111111,9,33.59197346315697,0
subject-01,1,19,0.717461824417114,airplane,airplane,0,airplane1.png,True,-0.47203272814730834,0.6979068517684937,1.0,-0.1383120589581443,26.86064088344574,10,2.826760739260739,9,33.34940927157891,9
subject-01,1,20,0.71771502494812,clock,car,0,car1.png,False,-0.4704516310963387,0.1193983480334281,0.0833333333333333,-7.9439975010404815,24.957842223346233,9,0.11369047619047579,9,53.83529967903196,0
subject-01,1,21,0.702006101608276,car,car,0,car10.png,True,-0.5685451551022178,0.2572767734527588,0.0909090909090909,-6.522738239740992,25.336657285690308,9,0.10011238761238739,9,50.98515370504225,0
subject-01,1,22,0.700416088104248,keyboard,keyboard,0,keyboard4.png,True,-0.5784739086171987,1.1582952737808228,0.3333333333333333,-1.8600738400861454,26.21070158481598,9,2.5532467532467535,5,30.519410783439035,4
subject-01,1,23,0.946758031845093,boat,boat,0,boat1.png,True,0.9597950643242346,0.2709161937236786,0.25,-5.366983831882187,24.893140643835068,9,2.2416666666666667,2,35.11564646750146,2
subject-01,1,24,0.669307947158813,boat,boat,0,boat7.png,True,-0.7727270158858226,0.2351906299591064,0.1666666666666666,-5.766832345891582,24.26218819618225,9,1.9444444444444442,2,37.31716802836733,2
subject-01,1,25,0.967361927032471,car,car,0,car3.png,True,1.088454975856896,0.1393853276968002,0.0714285714285714,-7.377664405803928,24.87269578874111,9,0.16737429237429208,4,51.0775944377322,0
subject-01,1,26,0.821988821029663,bottle,bottle,0,bottle7.png,True,0.18068046101625632,0.9076037406921388,1.0,-0.34082942121919263,26.77130162715912,10,3.336446886446886,9,29.04079368592336,0
subject-01,1,27,0.914450168609619,airplane,airplane,0,airplane7.png,True,0.7580503559628847,0.8228142261505127,1.0,-0.6590064680196629,25.858278632164,9,2.2714285714285714,10,36.181152470711886,3
subject-01,1,28,1.01251912117004,airplane,airplane,0,airplane9.png,True,1.3704366375750159,1.0002779960632324,1.0,-0.24841294927213245,27.526887893676758,10,3.4894230769230767,8,32.4417138371876,3
subject-01,1,29,0.772990942001343,keyboard,car,0,car8.png,False,-0.1252841502254843,0.6222917437553406,0.0666666666666666,-5.802389920013663,26.351183593273163,9,0.09954212454212408,4,50.146282985528416,0
subject-01,1,30,0.756917953491211,cat,cat,0,cat2.png,True,-0.22565105953911188,1.6986392736434937,0.25,-2.6043964150650036,27.724356532096863,9,1.0365440115440112,8,38.899522974751044,8
subject-01,1,31,0.616667032241821,clock,clock,0,clock10.png,True,-1.1014403681245566,1.771845459938049,1.0,-0.8694968622700346,28.09455978870392,5,3.1531135531135526,9,31.95911770227626,6
subject-01,1,32,0.831184864044189,elephant,elephant,0,elephant6.png,True,0.23810465532220845,0.3467084765434265,1.0,-0.06239613131337548,27.86437100172043,10,2.41031746031746,10,31.246022329532806,9
subject-01,1,33,0.999566078186035,knife,boat,0,boat2.png,False,1.2895520597199628,0.3305868506431579,0.0833333333333333,-5.943787547096399,25.267123639583588,9,2.227777777777778,2,35.7848246187016,2
subject-01,1,34,1.03769516944885,car,car,0,car4.png,True,1.5276471123340811,1.7774224281311035,0.125,-3.801288207368239,27.98019504547119,5,0.17586996336996308,9,47.36763355403154,0
subject-01,1,35,0.906499862670898,bird,bird,0,bird5.png,True,0.7084050995960176,1.1631155014038086,1.0,-0.4675721432775835,27.990800142288208,10,1.8670787545787542,10,38.35268178498933,10
subject-01,1,36,0.92086386680603,dog,cat,0,cat10.png,False,0.7981003482115805,1.3860822916030884,0.3333333333333333,-3.161419547654075,28.080768942832947,10,0.6597985347985345,10,42.33575781853692,7
subject-01,1,37,0.813080787658691,chair,chair,0,chair3.png,True,0.12505472738597848,0.9003721475601196,1.0,-0.25249804225585865,26.611395120620728,10,3.5039682539682535,9,29.325304507671905,9
subject-01,1,38,0.85170316696167,bird,bird,0,bird8.png,True,0.36623009054479927,1.94354784488678,0.1428571428571428,-3.1586122164072297,28.59706938266754,5,0.4631715506715503,8,43.95182751506435,6
subject-01,1,39,0.703930139541626,knife,knife,0,knife8.png,True,-0.5565306040651918,0.3676647245883941,1.0,-0.06369862329948742,24.494971483945847,9,7.003968253968254,4,19.101808417830995,5
subject-01,1,40,0.687936067581177,chair,chair,0,chair6.png,True,-0.6564047232433458,0.7242881059646606,0.5,-1.355882620324528,26.148768067359924,9,2.7416666666666663,0,30.161796847521117,6
subject-01,1,41,0.824014902114868,dog,dog,0,dog7.png,True,0.19333221500790806,2.1757519245147705,0.5,-1.687223139577615,29.179062604904175,5,1.3266233766233764,10,34.38167386522102,10
subject-01,1,42,1.22464299201965,car,truck,0,truck2.png,False,2.6950327010511836,1.290816307067871,0.0769230769230769,-4.733223188663556,27.753594636917114,9,2.6793761793761792,4,35.381165381438315,0
subject-01,1,43,0.584911823272705,clock,clock,0,clock8.png,True,-1.2997340567456526,0.7496044635772705,1.0,-0.2342430178775599,25.34441602230072,9,3.78003663003663,8,29.426404824680482,6
subject-01,1,44,1.10743808746338,elephant,elephant,0,elephant8.png,True,1.9631529999429453,1.3585662841796875,1.0,-0.4578744601045355,27.980400562286377,10,2.5972222222222223,10,32.10827904396114,9
subject-01,1,45,0.766649961471558,knife,knife,0,knife7.png,True,-0.16488006092941035,0.0236362945288419,1.0,-0.0025260138832189595,23.290407260414213,9,7.453968253968254,4,18.35275143428155,5
subject-01,1,46,0.66749906539917,bottle,bottle,0,bottle3.png,True,-0.7840224804109618,0.93168443441391,1.0,-0.7283590303551353,25.259301006793976,9,3.505494505494505,9,29.43331280022213,0
subject-01,1,47,0.635940790176392,cat,cat,0,cat3.png,True,-0.9810864268813033,0.7396632432937622,0.0833333333333333,-5.098902548956905,26.53859794139862,10,0.28120213120213083,8,45.66316827377532,2
subject-01,1,48,0.972532033920288,keyboard,keyboard,0,keyboard3.png,True,1.1207394292940511,0.2315678298473358,0.2,-5.641990557712976,24.98717227578163,9,1.8754079254079252,6,38.362120418488885,4
subject-01,1,49,0.58875584602356,knife,knife,0,knife6.png,True,-1.2757302641347523,0.5501472353935242,1.0,-0.09964242498769026,25.170568585395813,9,7.453968253968254,4,19.73890799717973,5
subject-01,1,50,0.695482969284058,chair,chair,0,chair4.png,True,-0.60927850285599,0.8954275846481323,1.0,-0.46997635453224473,27.53571128845215,10,3.6226551226551225,9,27.990560984824736,9
subject-01,1,51,0.655668973922729,cat,cat,0,cat1.png,True,-0.8578948481812366,1.6755263805389404,0.3333333333333333,-1.980642217979754,27.858680605888367,5,1.1356893106893104,9,38.82525669484091,7
subject-01,1,52,0.870454072952271,keyboard,oven,0,oven8.png,False,0.48331911104155745,0.641850471496582,0.2,-4.790213810932784,26.664063811302185,9,1.3351190476190473,6,38.39396832254122,6
subject-01,1,53,0.800169944763184,chair,chair,0,chair10.png,True,0.04443366570606824,0.1993972957134246,1.0,-0.03319693189206421,25.35698625445366,9,4.2595238095238095,8,26.433985036932402,9
subject-01,1,54,1.12243509292603,chair,chair,0,chair8.png,True,2.0568009911859515,0.7669309377670288,1.0,-0.26871287362476615,27.49709928035736,10,3.916666666666666,9,27.527216876379697,9
subject-01,1,55,0.560975074768066,bicycle,bicycle,0,bicycle10.png,True,-1.449205790948273,2.0921552181243896,1.0,-1.1502208283759905,29.75967240333557,10,5.7511655011655005,0,27.015452283323363,7
subject-01,1,56,0.867304086685181,bicycle,bicycle,0,bicycle6.png,True,0.463649191797299,1.9658880233764648,0.2,-3.5883591385665468,28.74655294418335,9,5.460714285714286,0,31.357980679198068,0
subject-01,1,57,1.05719804763794,keyboard,dog,0,dog2.png,False,1.64943178264136,1.059274435043335,0.1428571428571428,-4.845889256941585,27.17441427707672,10,0.9710678210678209,7,38.85220670138642,6
subject-01,1,58,0.5955970287323,cat,cat,0,cat7.png,True,-1.2330108679195908,2.112579345703125,0.1666666666666666,-3.078260667255299,29.46441102027893,10,0.4796758796758793,8,40.808886578550386,2
subject-01,1,59,0.918279886245728,dog,dog,0,dog6.png,True,0.781964821056781,1.7999632358551023,1.0,-1.1536739911954785,28.617308616638184,10,1.852020202020202,10,34.118518002374245,10
subject-01,1,60,1.04856705665588,keyboard,oven,0,oven5.png,False,1.5955360252570334,0.9167710542678832,0.1666666666666666,-5.374407732004108,25.47123897075653,9,1.0239468864468861,6,42.09246993247056,6
subject-01,1,61,0.808686971664429,knife,keyboard,0,keyboard10.png,False,0.09761778053823685,0.5386461019515991,0.3333333333333333,-4.5005481129098195,24.718389868736267,9,2.5608225108225113,5,35.340925743733756,4
subject-01,1,62,0.846899032592773,elephant,elephant,0,elephant2.png,True,0.3362309327509876,1.462674856185913,1.0,-0.457483438929068,28.142909288406372,10,2.0468253968253967,10,34.45157897862644,10
subject-01,1,63,0.761362075805664,oven,clock,0,clock7.png,False,-0.19789997758990308,0.8511953353881836,1.0,-0.32022585637842815,25.971550226211548,9,3.28003663003663,9,30.3590547728653,6
subject-01,1,64,0.707340955734253,knife,keyboard,0,keyboard6.png,False,-0.5352319464275623,0.0256807003170251,0.25,-7.945918242022703,23.858765931800008,9,2.6365800865800866,5,42.435239197036765,4
subject-01,1,65,0.74614405632019,bird,bird,0,bird3.png,True,-0.2929280789705992,1.3284151554107666,0.1428571428571428,-4.197183590531037,27.793187737464905,10,0.45325091575091536,8,44.8165724944627,6
subject-01,1,66,0.752073049545288,bird,bird,0,bird6.png,True,-0.2559048007563826,2.061314582824707,0.3333333333333333,-2.7700083122214547,28.763838052749634,5,0.5726953601953597,10,43.564774287949696,6
subject-01,1,67,0.742250204086304,knife,knife,0,knife9.png,True,-0.3172430290990547,0.1734974980354309,1.0,-0.024430954123163942,24.09703040122986,9,7.436111111111111,4,19.230580831116633,5
subject-01,1,68,0.635033845901489,dog,dog,0,dog4.png,True,-0.9867497914593545,1.5292118787765503,0.5,-1.567096677265635,27.723833441734314,5,1.3920995670995668,10,35.908220382189484,10
subject-01,1,69,0.779329061508179,knife,keyboard,0,keyboard1.png,False,-0.08570610502495768,0.0122929820790886,0.2,-9.011616392724962,23.470053949393332,9,2.5865800865800868,5,45.46467900543771,4
subject-01,1,70,1.03991103172302,truck,truck,0,truck10.png,True,1.5414839447179847,0.8483099341392517,0.1428571428571428,-5.056818396423247,26.72241371870041,9,2.422258297258297,2,35.58551659569979,0
subject-01,1,71,0.894155979156494,cat,cat,0,cat6.png,True,0.6313243851733583,1.865309476852417,0.3333333333333333,-2.478125791853951,28.640413284301758,10,0.7717032967032962,10,40.21154843142314,8
subject-01,1,72,0.938866138458252,airplane,airplane,0,airplane5.png,True,0.9105145619851341,1.9145504236221311,0.5,-1.952032922000592,28.542208075523376,5,1.3456349206349203,9,39.72066431233494,8
subject-01,1,73,0.990110874176025,knife,knife,0,knife2.png,True,1.2305095485642858,0.4567306041717529,1.0,-0.07806566492823909,25.52503228187561,9,7.503968253968254,4,19.493232225074106,9
subject-01,1,74,0.799003839492798,truck,truck,0,truck5.png,True,0.03715198427829862,0.0184795446693897,0.1666666666666666,-8.925702995783992,23.614036682993174,9,3.0218253968253963,4,42.992122343751284,0
subject-01,1,75,0.813444137573242,bird,bird,0,bird9.png,True,0.12732364631787882,1.6529052257537842,0.5,-1.0559407616153296,29.078139305114746,10,1.3322802197802193,8,39.74551682283378,10
subject-01,1,76,0.667715072631836,clock,clock,0,clock2.png,True,-0.7826736349042029,0.7825013399124146,1.0,-0.2189852334968046,25.55911958217621,5,4.448290598290598,7,28.966884192906235,6
subject-01,1,77,0.628190040588379,clock,clock,0,clock9.png,True,-1.0294855643859662,0.5341020226478577,1.0,-0.11355582864054921,25.773021161556244,10,5.012179487179487,6,28.857301695400526,6
subject-01,1,78,0.958590984344482,truck,truck,0,truck4.png,True,1.0336852975979027,0.6831589937210083,0.25,-3.996430788114304,26.28192889690399,9,3.0857142857142854,4,34.097104347272186,0
subject-01,1,79,0.786638021469116,bicycle,bicycle,0,bicycle3.png,True,-0.04006569900377082,1.8240084648132324,1.0,-0.8854870100349441,29.66544795036316,10,7.477777777777777,8,24.531738627468325,10
subject-01,1,80,0.746560096740723,knife,knife,0,knife3.png,True,-0.2903301370177311,1.280087947845459,1.0,-0.3717829136613654,26.570257663726807,9,6.561111111111111,4,20.383254192503,5
subject-01,1,81,0.892848014831543,airplane,airplane,0,airplane2.png,True,0.6231568725353028,0.9961801171302797,1.0,-0.2685686218960489,27.473564207553864,10,2.8047619047619046,9,34.838213404934585,9
subject-01,1,82,0.66154408454895,clock,clock,0,clock5.png,True,-0.8212080369477355,0.5294628143310547,1.0,-0.12120325551594355,25.000341415405273,8,4.428846153846154,7,28.789652831062988,6
subject-01,1,83,0.721719026565552,bicycle,bicycle,0,bicycle7.png,True,-0.44544885908694626,0.3911542296409607,1.0,-0.0676624190707521,27.088714003562927,9,6.549242424242424,8,22.572351765062233,9
subject-01,1,84,0.782213926315308,elephant,elephant,0,elephant9.png,True,-0.0676917224291721,0.1342518627643585,1.0,-0.022464990779179933,26.613557249307632,10,3.253968253968254,9,28.96451605805583,9
subject-01,1,85,0.920355081558228,bird,bird,0,bird7.png,True,0.7949232661901461,1.3296146392822266,0.0833333333333333,-5.005253716865668,27.372692704200745,9,0.12330586080586038,10,49.7941810291276,6
subject-01,1,86,0.680703163146973,bottle,bottle,0,bottle9.png,True,-0.7015702046324647,0.8854260444641113,1.0,-0.2205356604308822,25.988403916358948,9,3.4031135531135526,9,27.75361121784888,0
subject-01,1,87,0.627012014389038,airplane,airplane,0,airplane10.png,True,-1.0368416854112383,0.471089631319046,1.0,-0.12154397731578782,25.757543116807938,9,2.563095238095238,9,35.07935447089651,9
subject-01,1,88,0.579628944396973,bottle,bottle,0,bottle1.png,True,-1.3327227087751885,0.1499397754669189,1.0,-0.024160411740836222,24.014189049601555,9,4.036446886446886,8,26.57736316732285,0
subject-01,1,89,0.940336942672729,dog,dog,0,dog10.png,True,0.9196989195250819,1.7302876710891724,0.25,-3.235550761194436,28.56040060520172,10,0.8135642135642135,6,38.80125810557495,7
subject-01,1,90,1.11618399620056,keyboard,oven,0,oven9.png,False,2.01776635504716,1.6727228164672852,0.125,-3.863290332300759,28.260186672210693,5,0.9910714285714283,7,38.078853866406156,6
subject-01,1,91,0.676390886306763,bottle,bottle,0,bottle8.png,True,-0.728497984633289,0.3745360672473907,1.0,-0.07905356621691606,25.300053149461746,9,3.453113553113553,9,27.64629148978886,9
subject-01,1,92,0.784547090530396,oven,oven,0,oven7.png,True,-0.05312240440583605,0.2323933541774749,0.2,-6.50428191506854,25.39397844672203,9,0.951785714285714,6,43.441979684762785,6
subject-01,1,93,0.990937948226929,bottle,bottle,0,bottle2.png,True,1.235674167839066,0.4004149138927459,1.0,-0.11787295330549778,24.217580884695053,9,3.505494505494505,9,28.219253119715518,0
subject-01,1,94,0.691254138946533,keyboard,oven,0,oven4.png,False,-0.635685205674295,0.459288090467453,0.1666666666666666,-6.02259863357431,25.338867634534836,9,1.0072802197802193,6,42.26420485324866,6
subject-01,1,95,0.721737146377563,bicycle,bicycle,0,bicycle8.png,True,-0.4453357108987455,0.2790760397911072,1.0,-0.046262176478435446,27.499891221523285,10,7.659523809523809,0,22.82092218196042,9
subject-01,1,96,0.674325942993164,knife,knife,0,knife1.png,True,-0.7413924117128041,0.4626525640487671,1.0,-0.08561595510039202,24.19581699371338,9,7.111111111111111,4,18.32781045812547,5
subject-01,1,97,1.12074089050293,knife,knife,0,knife4.png,True,2.046221635588762,0.2539835572242737,1.0,-0.03975429798160286,24.140582263469696,9,7.436111111111111,4,18.641578885997795,5
subject-01,1,98,0.742784023284912,bicycle,bicycle,0,bicycle4.png,True,-0.3139096239228621,1.0075751543045044,1.0,-0.3791899744496963,28.72160565853119,10,6.431818181818182,8,25.93787308192337,10
subject-01,1,99,0.987185955047607,keyboard,truck,0,truck9.png,False,1.2122450489208894,0.1128023266792297,0.1428571428571428,-8.348169674293125,24.18083941936493,9,3.1028138528138522,4,41.56946719282817,0
subject-01,1,100,0.733565092086792,knife,boat,0,boat8.png,False,-0.37147674225602184,0.3425770998001098,0.25,-5.502480987159791,24.204804301261902,9,1.9916666666666665,2,37.1626479677331,2
subject-01,1,101,0.870315074920654,car,car,0,car7.png,True,0.48245114533466477,1.08372962474823,0.125,-4.362931789472945,26.857073068618774,10,0.17586996336996308,9,48.33998940114638,0
subject-01,1,102,0.616080045700073,knife,knife,0,knife10.png,True,-1.1051057739056158,0.0524550043046474,1.0,-0.007147522585391168,22.01175469532609,9,7.436111111111111,4,17.565958352328522,5
subject-01,1,103,0.654191970825195,bird,bird,0,bird4.png,True,-0.8671179143118882,1.342275857925415,0.25,-3.824839805493565,26.975212335586548,9,0.678647741147741,8,44.568422694976995,6
subject-01,1,104,0.906903982162476,airplane,airplane,0,airplane3.png,True,0.7109286019513832,1.0618655681610107,1.0,-0.2711470797388747,27.248656272888184,9,3.027518315018315,9,32.48235948517896,9
subject-01,1,105,0.621595144271851,dog,dog,0,dog5.png,True,-1.0706670385167099,1.72717022895813,0.2,-2.9682189729161625,28.465683937072754,10,0.9825757575757574,8,36.77129115929289,6
subject-01,1,106,0.705971002578735,bottle,bottle,0,bottle6.png,True,-0.5437865449726381,0.2374956905841827,1.0,-0.03686422557124346,25.054278761148453,9,4.003113553113553,8,27.54376772684189,0
subject-01,1,107,0.85050892829895,bottle,bottle,0,bottle10.png,True,0.35877273166692203,0.2805601358413696,1.0,-0.06261420601411985,24.165100932121277,9,3.953113553113553,8,26.48579818704957,0
subject-01,1,108,0.696708917617798,dog,dog,0,dog8.png,True,-0.6016231346487575,0.1974261105060577,0.5,-3.666799052638583,26.820307284593582,10,1.546139971139971,8,38.122158669074906,8
subject-01,1,109,0.789233922958374,keyboard,oven,0,oven10.png,False,-0.02385573225146254,0.151302695274353,0.3333333333333333,-6.034615570395124,25.132411122322083,9,1.5578754578754577,6,40.232423668399456,6
subject-01,1,110,0.625602960586548,knife,knife,0,knife5.png,True,-1.0456404458361206,0.0422463119029998,1.0,-0.004828468472850521,24.023905154317617,9,7.436111111111111,4,19.277414065452295,5
subject-01,1,111,0.656378030776978,chair,chair,0,chair2.png,True,-0.853467180921738,0.5549784898757935,0.5,-1.7332018272846916,25.929165840148926,9,2.5155122655122653,0,30.05308511300962,9
subject-01,1,112,1.08314108848572,keyboard,truck,0,truck6.png,False,1.811431701103786,0.1164510697126388,0.1666666666666666,-7.179554630904085,25.500965639948845,9,2.0754329004329,2,38.60139526988931,0
subject-01,1,113,0.853380918502808,keyboard,keyboard,0,keyboard9.png,True,0.3767067194974075,0.024218738079071,0.25,-8.454473017925553,24.110654041171074,9,2.0885281385281385,5,42.711466456827985,4
subject-01,1,114,0.605739116668701,bottle,bottle,0,bottle4.png,True,-1.1696791471557817,0.9056259393692015,1.0,-0.4766271360375895,25.035207867622375,9,3.505494505494505,9,28.632821562837748,0
subject-01,1,115,0.598433017730713,bicycle,bicycle,0,bicycle5.png,True,-1.2153016876735692,1.2128949165344238,1.0,-0.5519353779281496,29.3389732837677,10,7.659523809523809,0,24.218881614182838,10
subject-01,1,116,0.712740898132324,keyboard,keyboard,0,keyboard8.png,True,-0.5015122975505439,1.1946980953216553,0.3333333333333333,-2.9298188542514207,27.462268590927124,10,2.51991341991342,5,32.97302347877719,4
subject-01,1,117,0.843167066574097,bear,bear,0,bear4.png,True,0.3129268723566262,0.6980478763580322,1.0,-0.16674854375038586,27.098673343658447,10,3.7452380952380953,9,28.485082696287293,9
subject-01,1,118,0.627674102783203,elephant,elephant,0,elephant5.png,True,-1.0327073101659079,1.1037060022354126,1.0,-0.33435183373451327,27.828163027763367,10,2.396464646464646,10,32.319384820899636,10
subject-01,1,119,0.812122106552124,knife,boat,0,boat4.png,False,0.11906829495477018,0.1769010722637176,0.3333333333333333,-5.3896997562114155,24.35782289505005,9,2.477777777777778,9,35.986296224942826,2
subject-01,1,120,0.580572128295898,clock,clock,0,clock3.png,True,-1.3268330478207364,0.3845948576927185,1.0,-0.08149319507127516,24.455850899219513,9,4.414957264957264,7,28.752523660054187,6
subject-01,1,121,0.564893960952759,boat,boat,0,boat9.png,True,-1.4247345176650517,1.7922217845916748,0.2,-3.7175960242277903,29.468806982040405,10,1.862301587301587,2,33.08482100477063,2
subject-01,1,122,0.611304998397827,cat,cat,0,cat5.png,True,-1.1349232990815155,1.4968347549438477,0.2,-3.5978916812592767,28.347256422042847,10,0.7486263736263734,8,40.41817178316328,8
subject-01,1,123,0.803043127059937,elephant,bear,0,bear7.png,False,0.06237509749630065,0.0380529910326004,0.1111111111111111,-9.095833272638775,25.02587766945362,9,1.8301587301587299,6,41.88404097894363,4
subject-01,1,124,0.846168994903564,car,car,0,car2.png,True,0.3316722517998888,0.1100213602185249,0.0714285714285714,-8.340588683902602,25.889549262821674,9,0.12018814518814477,4,52.46737934448744,0
subject-01,1,125,0.592648983001709,clock,clock,0,clock6.png,True,-1.251419780382145,0.7800217866897583,1.0,-0.20548784419563706,26.32568049430847,10,5.143589743589743,6,28.834956335990785,6
subject-01,1,126,0.898689985275269,dog,cat,0,cat9.png,False,0.6596367416877464,1.552127718925476,0.125,-4.335040885376538,28.061052441596985,10,0.327380952380952,10,44.61673405863523,7
subject-01,1,127,0.628992080688477,cat,cat,0,cat8.png,True,-1.0244772682659455,0.8320249319076538,0.25,-3.751757338956622,25.9503892660141,9,0.518326118326118,10,43.633510431662444,10
subject-01,1,128,0.745994091033936,truck,truck,0,truck3.png,True,-0.2938645291071845,0.0226065032184124,0.3333333333333333,-7.261557682518631,24.39289252087474,9,3.2337662337662336,4,39.92972566922128,0
subject-01,1,129,0.638740062713623,clock,clock,0,clock4.png,True,-0.9636065205955938,1.2233519554138184,1.0,-0.5897980423881595,26.180797219276428,5,2.7482905982905983,10,33.603296068141994,6
subject-01,1,130,0.612829923629761,bicycle,bicycle,0,bicycle9.png,True,-1.125400985768898,1.726635456085205,1.0,-0.5938455920691754,29.86194944381714,10,6.416666666666666,8,26.14536613165542,10
subject-01,1,131,0.805322885513306,airplane,airplane,0,airplane8.png,True,0.07661092612282076,0.562287449836731,1.0,-0.13992402948040483,26.711125135421753,10,2.674242424242424,9,33.823808255088075,9
subject-01,1,132,1.24139881134033,bear,bird,0,bird2.png,False,2.799663510509805,1.8647401332855225,0.1,-3.906369519584394,28.46418023109436,5,0.4175366300366298,8,44.097934198968076,6
subject-01,1,133,0.54989218711853,bicycle,bicycle,0,bicycle1.png,True,-1.5184122847470396,0.7821623086929321,1.0,-0.20323642091508554,28.705861449241638,10,7.485353535353535,8,24.324281259882955,9
subject-01,1,134,0.748464107513428,bear,bear,0,bear3.png,True,-0.2784406445045133,1.0137547254562378,0.25,-3.670694198298103,27.57740843296051,10,2.480988455988456,9,33.01876456457949,9
subject-01,1,135,0.740744113922119,bear,bear,0,bear6.png,True,-0.3266477278476176,1.0105020999908447,0.125,-4.972848925275703,26.87538480758667,9,1.8373015873015868,3,36.5359310286717,7
subject-01,1,136,0.749517917633057,keyboard,car,0,car5.png,False,-0.2718601840852256,1.0978254079818726,0.1,-5.256313008503281,26.741753935813904,9,0.141779054279054,9,49.406907601715,0
subject-01,1,137,0.488175868988037,cat,cat,0,cat4.png,True,-1.903796502564995,1.7606042623519895,0.0833333333333333,-4.311104246663034,28.43904745578766,5,0.3174714174714171,8,44.22831899978213,7
subject-01,1,138,0.702675104141235,car,car,0,car9.png,True,-0.5643676048903357,1.1016991138458252,0.1666666666666666,-4.181459695961067,26.78067648410797,9,0.3050366300366296,9,47.277160751696286,0
subject-01,1,139,0.816756963729858,bear,bear,0,bear9.png,True,0.14801041046402955,2.149468421936035,0.2,-2.3411308802287745,29.22723889350891,5,2.153968253968254,9,31.268392111605387,9
subject-01,1,140,0.823441982269287,truck,truck,0,truck8.png,True,0.18975464795190203,1.5209696292877195,0.1111111111111111,-4.551738645169329,28.101032257080078,10,2.2734126984126983,2,34.69206934646871,0
subject-01,1,141,0.637724161148071,bear,bear,0,bear5.png,True,-0.9699502630948226,1.6186182498931885,0.5,-1.17192176742322,27.502834796905518,9,2.8468253968253965,9,29.592769191788424,10
subject-01,1,142,0.684573888778687,bird,bird,0,bird10.png,True,-0.6773996673231599,1.5975247621536257,0.1666666666666666,-3.618784851521062,28.115529417991638,5,0.4806929181929178,8,44.022981243707676,6
subject-01,1,143,0.722584009170532,bear,bear,0,bear1.png,True,-0.4400475218921135,0.8371682167053223,0.3333333333333333,-3.2334037015502752,25.855608701705933,9,2.6655122655122656,8,33.60681965234186,7
subject-01,1,144,0.653154134750366,chair,chair,0,chair9.png,True,-0.8735986256705202,0.2202668488025665,1.0,-0.0358433490667303,26.345622807741165,10,3.6115440115440114,9,27.734890587484013,9
subject-01,1,145,0.951045989990234,chair,chair,0,chair1.png,True,0.9865709875461488,0.2907571196556091,0.5,-2.958733563205035,24.555747151374817,9,2.5444444444444443,0,33.798104656545775,6
subject-01,1,146,0.687237977981567,elephant,elephant,0,elephant1.png,True,-0.6607639060731394,0.2242017686367035,1.0,-0.04819997224184907,26.55151805281639,10,2.480891330891331,10,31.77810423750726,10
subject-01,1,147,0.617253065109253,bear,bear,0,bear10.png,True,-1.0977809175112943,1.3355778455734253,0.3333333333333333,-2.6965414447137577,27.645246505737305,10,2.3369047619047616,3,32.1104498801216,7
subject-01,1,148,0.647727012634277,boat,boat,0,boat3.png,True,-0.9074879968298487,2.107492446899414,0.1666666666666666,-3.139732585448095,29.229526042938232,9,1.894444444444444,2,32.39412351642407,2
subject-01,1,149,0.678347110748291,keyboard,oven,0,oven1.png,False,-0.7162824466830083,0.1176650375127792,0.2,-7.515732498960675,25.223919734358788,9,1.142399267399267,6,43.466413957579334,6
subject-01,1,150,0.776838064193726,elephant,elephant,0,elephant3.png,True,-0.10126100331923531,1.3091505765914917,0.125,-4.074674904197661,26.835612893104553,5,1.143192918192918,1,39.61352953020183,1
subject-01,1,151,0.96931004524231,elephant,elephant,0,elephant10.png,True,1.1006198948808772,1.2900938987731934,0.0909090909090909,-5.3610635540136515,27.67066216468811,10,1.014321789321789,1,40.43103953316568,1
subject-01,1,152,0.685950994491577,bottle,bottle,0,bottle5.png,True,-0.6688004050195885,0.8005474805831909,1.0,-0.26826981411192924,24.679706573486328,9,3.553113553113553,9,27.81857718491366,0
subject-01,1,153,0.500497102737427,clock,clock,0,clock1.png,True,-1.8268572233775877,1.0105984210968018,0.5,-1.50946460719858,27.396589159965515,10,2.9368797868797865,8,32.83779767953674,6
subject-01,1,154,0.830939054489136,dog,dog,0,dog1.png,True,0.23656971082169567,0.9780890941619872,0.1666666666666666,-4.707601270080966,26.93509078025818,10,1.0309884559884557,7,38.845988925735995,6
subject-01,1,155,0.591320037841797,bicycle,bicycle,0,bicycle2.png,True,-1.2597183067118063,1.0527037382125854,1.0,-0.27275013683468785,29.034146189689636,10,7.9520202020202015,8,23.722468320870703,10
subject-01,1,156,0.683084964752197,chair,chair,0,chair7.png,True,-0.6866971730513196,1.1977248191833496,0.5,-0.9635784050519798,27.262067079544067,10,2.0734848484848483,0,31.70874881873108,7
subject-01,1,157,0.873553991317749,oven,oven,0,oven2.png,True,0.5026763839762989,0.9822863340377808,0.0769230769230769,-6.350172207099087,26.984700560569763,9,0.6276556776556771,6,43.89361393077071,6
subject-01,1,158,0.558156967163086,keyboard,keyboard,0,keyboard2.png,True,-1.466803311798037,0.9772682189941406,0.3333333333333333,-3.3493273142063624,26.02284848690033,9,2.5608225108225113,5,32.56050224251735,4
subject-01,1,159,0.718584060668945,keyboard,oven,0,oven3.png,False,-0.46502498443835344,0.0480378307402133,0.1666666666666666,-7.864957331849892,23.548929069191217,9,1.2947802197802194,6,44.92736819527871,6
subject-01,1,160,0.68677282333374,chair,chair,0,chair5.png,True,-0.6636685391677153,0.3443211317062378,1.0,-0.062473026245307976,26.956134915351868,10,3.3698523698523695,9,29.05954822248547,9
subject-05,1,1,1.17234897613525,boat,boat,0,boat9.png,True,0.5755137893151989,1.7922217845916748,0.2,-3.7175960242277903,29.468806982040405,10,1.862301587301587,2,33.08482100477063,2
subject-05,1,2,0.864751100540161,bottle,bottle,0,bottle9.png,True,-0.994400053412763,0.8854260444641113,1.0,-0.2205356604308822,25.988403916358948,9,3.4031135531135526,9,27.75361121784888,0
subject-05,1,3,0.989967823028564,bicycle,bicycle,0,bicycle8.png,True,-0.35532065276586167,0.2790760397911072,1.0,-0.046262176478435446,27.499891221523285,10,7.659523809523809,0,22.82092218196042,9
subject-05,1,4,0.989934206008911,dog,dog,0,dog1.png,True,-0.35549222685232884,0.9780890941619872,0.1666666666666666,-4.707601270080966,26.93509078025818,10,1.0309884559884557,7,38.845988925735995,6
subject-05,1,5,0.998079061508179,boat,boat,0,boat7.png,True,-0.3139226244271423,0.2351906299591064,0.1666666666666666,-5.766832345891582,24.26218819618225,9,1.9444444444444442,2,37.31716802836733,2
subject-05,1,6,0.997786998748779,clock,clock,0,clock5.png,True,-0.3154132503556877,0.5294628143310547,1.0,-0.12120325551594355,25.000341415405273,8,4.428846153846154,7,28.789652831062988,6
subject-05,1,7,1.24429321289062,oven,truck,0,truck2.png,False,0.9427018037585485,1.290816307067871,0.0769230769230769,-4.733223188663556,27.753594636917114,9,2.6793761793761792,4,35.381165381438315,0
subject-05,1,8,1.16882491111755,oven,car,0,car5.png,False,0.5575277143357887,1.0978254079818726,0.1,-5.256313008503281,26.741753935813904,9,0.141779054279054,9,49.406907601715,0
subject-05,1,9,1.06638288497925,elephant,elephant,0,elephant9.png,True,0.03468549834037879,0.1342518627643585,1.0,-0.022464990779179933,26.613557249307632,10,3.253968253968254,9,28.96451605805583,9
subject-05,1,10,0.744837999343872,bear,bear,0,bear9.png,True,-1.6064109040348367,2.149468421936035,0.2,-2.3411308802287745,29.22723889350891,5,2.153968253968254,9,31.268392111605387,9
subject-05,1,11,1.14502286911011,bicycle,bicycle,0,bicycle6.png,True,0.43604717692836825,1.9658880233764648,0.2,-3.5883591385665468,28.74655294418335,9,5.460714285714286,0,31.357980679198068,0
subject-05,1,12,0.823976993560791,bottle,bottle,0,bottle6.png,True,-1.2025023845746554,0.2374956905841827,1.0,-0.03686422557124346,25.054278761148453,9,4.003113553113553,8,27.54376772684189,0
subject-05,1,13,1.22417020797729,bear,elephant,0,elephant6.png,False,0.8399982857007544,0.3467084765434265,1.0,-0.06239613131337548,27.86437100172043,10,2.41031746031746,10,31.246022329532806,9
subject-05,1,14,0.723545074462891,keyboard,keyboard,0,keyboard8.png,True,-1.7150854436692462,1.1946980953216553,0.3333333333333333,-2.9298188542514207,27.462268590927124,10,2.51991341991342,5,32.97302347877719,4
subject-05,1,15,1.07017588615417,car,car,0,car4.png,True,0.05404416601150625,1.7774224281311035,0.125,-3.801288207368239,27.98019504547119,5,0.17586996336996308,9,47.36763355403154,0
subject-05,1,16,0.969964027404785,dog,dog,0,dog8.png,True,-0.45741575207731155,0.1974261105060577,0.5,-3.666799052638583,26.820307284593582,10,1.546139971139971,8,38.122158669074906,8
subject-05,1,17,1.3165271282196,knife,boat,0,boat2.png,False,1.3113682757555223,0.3305868506431579,0.0833333333333333,-5.943787547096399,25.267123639583588,9,2.227777777777778,2,35.7848246187016,2
subject-05,1,18,1.0789270401001,truck,truck,0,truck8.png,True,0.09870818618063178,1.5209696292877195,0.1111111111111111,-4.551738645169329,28.101032257080078,10,2.2734126984126983,2,34.69206934646871,0
subject-05,1,19,0.678881883621216,chair,chair,0,chair5.png,True,-1.9430368280118555,0.3443211317062378,1.0,-0.062473026245307976,26.956134915351868,10,3.3698523698523695,9,29.05954822248547,9
subject-05,1,20,0.817336082458496,airplane,airplane,0,airplane8.png,True,-1.2363961760959687,0.562287449836731,1.0,-0.13992402948040483,26.711125135421753,10,2.674242424242424,9,33.823808255088075,9
subject-05,1,21,0.757702112197876,bear,bear,0,bear10.png,True,-1.5407552202793988,1.3355778455734253,0.3333333333333333,-2.6965414447137577,27.645246505737305,10,2.3369047619047616,3,32.1104498801216,7
subject-05,1,22,0.979480981826782,elephant,elephant,0,elephant10.png,True,-0.40884324988171233,1.2900938987731934,0.0909090909090909,-5.3610635540136515,27.67066216468811,10,1.014321789321789,1,40.43103953316568,1
subject-05,1,23,1.00334310531616,bottle,bottle,0,bottle8.png,True,-0.28705606942611084,0.3745360672473907,1.0,-0.07905356621691606,25.300053149461746,9,3.453113553113553,9,27.64629148978886,9
subject-05,1,24,1.07941508293152,elephant,elephant,0,elephant2.png,True,0.10119905252815818,1.462674856185913,1.0,-0.457483438929068,28.142909288406372,10,2.0468253968253967,10,34.45157897862644,10
subject-05,1,25,0.987815141677856,knife,knife,0,knife6.png,True,-0.36630747848733547,0.5501472353935242,1.0,-0.09964242498769026,25.170568585395813,9,7.453968253968254,4,19.73890799717973,5
subject-05,1,26,0.64160680770874,bottle,bottle,0,bottle7.png,True,-2.1332808521310715,0.9076037406921388,1.0,-0.34082942121919263,26.77130162715912,10,3.336446886446886,9,29.04079368592336,0
subject-05,1,27,1.3881299495697,bear,bear,0,bear2.png,True,1.6768137789093607,1.3922713994979858,0.2,-3.3754631477940853,27.940189957618713,9,2.211904761904762,8,33.19051754431012,7
subject-05,1,28,1.20364308357239,knife,boat,0,boat6.png,False,0.7352322280928903,1.0659945011138916,0.3333333333333333,-3.060969684767974,26.06471014022827,9,2.361111111111111,9,33.59197346315697,0
subject-05,1,29,0.741044998168945,elephant,elephant,0,elephant7.png,True,-1.6257695717060003,0.1615795791149139,1.0,-0.02502469390687393,26.253598421812057,9,3.2444444444444445,9,29.086633636792428,9
subject-05,1,30,0.849432945251465,bicycle,bicycle,0,bicycle4.png,True,-1.0725806454804296,1.0075751543045044,1.0,-0.3791899744496963,28.72160565853119,10,6.431818181818182,8,25.93787308192337,10
subject-05,1,31,1.18007802963257,bird,bird,0,bird3.png,True,0.6149612271531648,1.3284151554107666,0.1428571428571428,-4.197183590531037,27.793187737464905,10,0.45325091575091536,8,44.8165724944627,6
subject-05,1,32,1.2960638999939,bear,bear,0,bear8.png,True,1.206928330595703,1.576876878738403,0.5,-1.5335139104302808,26.547012090682983,9,2.703968253968254,9,31.573474864577314,10
subject-05,1,33,1.07233595848083,bear,bear,0,bear5.png,True,0.06506871369525338,1.6186182498931885,0.5,-1.17192176742322,27.502834796905518,9,2.8468253968253965,9,29.592769191788424,10
subject-05,1,34,0.804588794708252,elephant,elephant,0,elephant3.png,True,-1.3014556094799883,1.3091505765914917,0.125,-4.074674904197661,26.835612893104553,5,1.143192918192918,1,39.61352953020183,1
subject-05,1,35,0.904875040054321,car,car,0,car9.png,True,-0.7896160380934295,1.1016991138458252,0.1666666666666666,-4.181459695961067,26.78067648410797,9,0.3050366300366296,9,47.277160751696286,0
