subject_id,Session,trial,rt,object_response,category,condition,item_id,response_correct,rt_zscore,output_entropy,output_rank_correct,output_logprob_correct,auc_entropy,layer_biggest_change_entropy,auc_rank_correct,layer_biggest_change_rank_correct,auc_logprob_correct,layer_biggest_change_logprob_correct
subject-04,1,1,0.906422853469849,cat,cat,c01,c01_cat_10_n02123159_386.png,True,0.937533727695546,2.067326545715332,0.1111111111111111,-3.9651532137063668,26.957602977752686,10,1.047222222222222,4,40.34839916873143,5
subject-04,1,2,0.712171077728271,boat,oven,c10,c10_oven_10_n04111531_6128.png,False,-0.07328213585191518,0.0326104089617729,1.0,-0.003806854173681142,26.788860075175762,10,1.1236111111111111,10,60.0194176372948,6
subject-04,1,3,0.693978071212769,airplane,airplane,c15,c15_airplane_10_n02690373_1933.png,True,-0.1679519504329492,0.0005803938838653,1.0,-4.3035479540797835e-05,25.038842403504532,10,8.416666666666666,0,18.27769699866997,9
subject-04,1,4,1.01393890380859,cat,clock,c01,c01_clock_10_n04548280_2374.png,False,1.497008300596992,1.756792068481445,1.0,-0.8951237720305959,25.78934407234192,10,8.116666666666667,10,17.97639494590513,10
subject-04,1,5,1.3655800819397,knife,bottle,c15,c15_bottle_10_n04591713_6842.png,False,3.326821592004473,1.6524083614349363,0.5,-1.4450361173775697,27.864360094070435,10,3.8499999999999996,3,24.134190278740256,10
subject-04,1,6,1.12531495094299,bear,dog,c10,c10_dog_10_n02110806_642.png,False,2.076568898346341,0.0938850417733192,1.0,-0.011889223752342531,26.161549665033817,10,2.0047008547008547,10,37.36692204873195,10
subject-04,1,7,0.711137056350708,bear,bear,c100,c100_bear_10_n02132136_14778.png,True,-0.07866280847484346,0.0695413202047348,1.0,-0.009852205560686103,25.795411452651024,10,2.3146825396825395,10,31.33591609509642,10
subject-04,1,8,0.649130821228027,bear,bear,c100,c100_bear_10_n02134084_1207.png,True,-0.4013207911964102,0.000849561241921,1.0,-7.027634551470962e-05,26.261675195244607,10,3.3928571428571423,9,27.58909834100204,9
subject-04,1,9,1.13689112663269,bottle,bottle,c50,c50_bottle_10_n04560804_5756.png,True,2.1368071225874825,0.3144843578338623,1.0,-0.05053021950635798,26.121382236480713,10,6.087301587301587,10,20.735588502355917,10
subject-04,1,10,1.10082697868347,oven,elephant,c01,c01_elephant_10_n02504013_3599.png,False,1.9491423626993103,2.4480364322662354,0.1666666666666666,-2.750522299000109,28.000880122184753,4,0.7602564102564101,8,42.199262896812634,5
subject-04,1,11,1.02257609367371,bottle,bottle,c100,c100_bottle_10_n02823428_6050.png,True,1.541953107401484,0.6076326370239258,1.0,-0.2545336401028414,25.321035146713257,10,6.366666666666667,10,22.22639821757958,10
subject-04,1,12,1.03438305854797,cat,bicycle,c01,c01_bicycle_10_n02835271_1436.png,False,1.603392274944163,2.0404765605926514,0.1,-4.224812583565545,27.44191861152649,10,1.2222222222222223,7,37.16419505967286,7
subject-04,1,13,0.816271066665649,boat,boat,c30,c30_boat_10_n04273569_10099.png,True,0.4684164911557664,0.0017140640411525,1.0,-0.00014216718306428068,26.347340179840103,10,5.333333333333334,1,21.54389353834409,10
subject-04,1,14,0.696114063262939,airplane,airplane,c30,c30_airplane_10_n02690373_6138.png,True,-0.15683702167371122,0.0002995565882883,1.0,-2.163672012571853e-05,24.477910383080598,9,8.083333333333332,0,18.279908915397588,9
subject-04,1,15,0.917696952819824,airplane,airplane,c100,c100_airplane_10_n02690373_5007.png,True,0.9962000561070069,0.0001504413958173,1.0,-1.0490472505172006e-05,25.43743491100031,10,6.616666666666667,0,21.23446130457662,9
subject-04,1,16,1.37366509437561,car,cat,c03,c03_cat_10_n02123045_840.png,False,3.368893067521219,0.1649249345064163,1.0,-0.025173703506717212,25.79463727772236,10,4.7896825396825395,7,30.523606664738853,9
subject-04,1,17,1.07747197151184,knife,knife,c50,c50_knife_10_n03041632_4714.png,True,1.827611366896448,0.0178739503026008,1.0,-0.0021216711121416097,26.995944924652576,10,3.719877344877345,7,32.53505262554292,10
subject-04,1,18,0.911098957061768,dog,dog,c01,c01_dog_10_n02111500_8079.png,True,0.9618664766357212,2.0110113620758057,0.0714285714285714,-4.760170724036668,27.320971727371216,10,0.3709817959817958,8,45.62200620159963,6
subject-04,1,19,0.819046020507812,truck,truck,c10,c10_truck_10_n04467665_56815.png,True,0.48285634558470036,0.0038491198793053,1.0,-0.00035101374655527356,25.921579928137362,10,3.1670385170385167,9,36.52768785904716,10
subject-04,1,20,0.752878904342651,boat,cat,c03,c03_cat_10_n02123597_11138.png,False,0.13854664540512757,0.1447059661149978,1.0,-0.021810446393733373,25.767154410481453,10,3.7884920634920634,8,34.18445199805424,10
subject-04,1,21,0.562525987625122,boat,boat,c100,c100_boat_10_n04273569_24747.png,True,-0.8519809683376744,0.0743702203035354,1.0,-0.012642813226095872,25.621446684002876,10,2.9206349206349205,10,28.64830759041567,10
subject-04,1,22,0.652868986129761,bird,bird,c30,c30_bird_10_n02013706_19220.png,True,-0.3818687353848028,0.0020859050564467,1.0,-0.00018353954361503467,26.445302467327565,10,3.9980158730158726,8,31.080358049694784,10
subject-04,1,23,0.880724191665649,chair,chair,c30,c30_chair_10_n04429376_6242.png,True,0.8038072022907823,0.3330601751804352,1.0,-0.06521674994341671,26.58908298611641,10,1.4504329004329,10,42.88594980204785,10
subject-04,1,24,0.623991012573242,airplane,airplane,c30,c30_airplane_10_n02690373_8876.png,True,-0.5321392472840953,0.0002722971548791,1.0,-1.9490908788081347e-05,24.355999016057467,9,8.583333333333332,0,17.86477092226202,9
subject-04,1,25,0.879863977432251,elephant,elephant,c100,c100_elephant_10_n02504458_12217.png,True,0.7993309590757665,0.0141351129859685,1.0,-0.0014290286547752485,26.669337740167975,10,5.182575757575757,6,29.533362672107224,10
subject-04,1,26,0.999691963195801,bird,cat,c05,c05_cat_10_n02125311_37322.png,False,1.4228723833141352,1.8697972297668457,1.0,-1.1956443158831633,27.838465929031372,10,3.181349206349206,9,35.347647877782265,10
subject-04,1,27,0.701657056808472,oven,chair,c03,c03_chair_10_n04429376_31331.png,False,-0.1279932914891295,1.5245484113693235,0.5,-1.1778111048790518,27.21174144744873,10,0.7109640359640356,10,44.95753380927067,10
subject-04,1,28,1.0756561756134,bear,bear,c50,c50_bear_10_n02133161_1247.png,True,1.8181626229037584,0.0301917102187871,1.0,-0.0035924991527875503,27.0626166369766,10,2.211111111111111,10,29.319877193436366,10
subject-04,1,29,0.983218193054199,bicycle,dog,c05,c05_dog_10_n02091831_510.png,False,1.3371488519435974,0.4583517909049988,1.0,-0.09219489512508944,26.500783264636993,10,1.8595959595959595,10,37.922572843107794,10
subject-04,1,30,0.809024095535278,bottle,knife,c10,c10_knife_10_n03041632_46185.png,False,0.43070587897070856,0.5681994557380676,1.0,-0.15738604261971897,25.26221114397049,10,3.477020202020202,9,34.23319039640105,10
subject-04,1,31,0.657072067260742,bird,bird,c30,c30_bird_10_n01796340_10024.png,True,-0.35999742395532774,0.0026812441647052,1.0,-0.0002516228599735995,26.81311773136258,10,2.1266233766233764,10,32.754838834989876,10
subject-04,1,32,0.832445859909058,car,car,c15,c15_car_10_n03100240_10096.png,True,0.5525842550674276,0.0156552102416753,1.0,-0.0021053646164427135,24.95599882863462,10,3.4880952380952377,8,40.30974725987053,6
subject-04,1,33,0.776412963867188,car,car,c100,c100_car_10_n03100240_1443.png,True,0.26100936478185705,0.0234609711915254,1.0,-0.0034631784922201847,24.65547655709088,10,3.5717032967032964,8,39.57044568190882,6
subject-04,1,34,,na,oven,c15,c15_oven_10_n04111531_8305.png,False,,0.011664948426187,1.0,-0.0013583583312082612,26.57450374122709,10,1.9047619047619047,9,58.59486385517362,6
subject-04,1,35,0.624162197113037,car,car,c10,c10_car_10_n03100240_13929.png,True,-0.5312484649591549,1.0032097101211548,1.0,-0.6180921730375151,27.27673375606537,10,3.01547619047619,8,42.478098275524694,6
subject-04,1,36,0.665917873382568,cat,bottle,c01,c01_bottle_10_n02823428_4245.png,False,-0.3139670537326004,2.0678601264953613,0.1428571428571428,-3.4032119081354772,26.89988660812378,10,2.53228021978022,4,28.52477229992229,4
subject-04,1,37,0.75170111656189,bottle,bottle,c100,c100_bottle_10_n04560804_14130.png,True,0.13241786450651977,0.0003208804700989,1.0,-2.3246081650464785e-05,25.333502380904974,10,7.916666666666666,1,18.000506974584052,10
subject-04,1,38,0.647808074951172,oven,oven,c10,c10_oven_10_n04111531_20429.png,True,-0.40820388359023285,0.032386727631092,1.0,-0.0038833822086631426,25.79182679206133,10,1.8983516483516483,9,60.09318856241659,6
subject-04,1,39,0.613427877426147,keyboard,keyboard,c50,c50_keyboard_10_n04505470_3117.png,True,-0.5871059755660748,2.529583616706077e-05,1.0,-1.5497219649786204e-06,22.979236626249985,10,2.8059523809523808,9,36.30004351714936,9
subject-04,1,40,1.13709402084351,car,bear,c05,c05_bear_10_n02132136_1726.png,False,2.1378629105520246,0.0220619775354862,1.0,-0.002754365326343816,26.06701699271798,10,3.8,8,31.082553989539228,10
subject-04,1,41,0.772946119308472,boat,airplane,c15,c15_airplane_10_n02690373_1952.png,False,0.24296916173596386,0.0003573715803213,1.0,-2.5868750425647624e-05,25.17976925970288,10,8.416666666666666,0,18.45248565613346,9
subject-04,1,42,0.834786176681519,oven,bottle,c03,c03_bottle_10_n04560804_722.png,False,0.5647624156546283,0.3614267408847809,1.0,-0.06795137157656142,25.048577338457108,10,3.702380952380952,10,23.205118809355042,10
subject-04,1,43,0.638680934906006,bicycle,bicycle,c100,c100_bicycle_10_n03792782_5966.png,True,-0.4556982136227505,0.0602442733943462,1.0,-0.008662321115324691,24.835391353815794,10,3.045238095238095,9,31.03250019725218,9
subject-04,1,44,0.796422004699707,car,knife,c05,c05_knife_10_n03041632_37618.png,False,0.3651291639994762,0.0023946701548993,1.0,-0.00020315326362135307,25.769438856747,10,3.7957070707070706,8,33.80645256152867,10
subject-04,1,45,0.766250848770142,bird,bird,c15,c15_bird_10_n01592084_4764.png,True,0.20812939955078186,0.002790443599224,1.0,-0.00023773157927710968,26.399213783442974,10,2.956349206349206,9,32.38966191303343,10
subject-04,1,46,1.03590202331543,boat,oven,c15,c15_oven_10_n04111531_22403.png,False,1.6112964172731405,0.0002616540296003,1.0,-2.0563813881392165e-05,26.568144430289976,10,1.9837662337662336,9,56.469417404116236,6
subject-04,1,47,0.64159893989563,airplane,airplane,c50,c50_airplane_10_n02690373_2675.png,True,-0.44051397284985505,0.0009022400481626,1.0,-7.462779984377424e-05,25.740029399166815,10,7.333333333333333,0,20.54378009512015,10
subject-04,1,48,0.621509075164795,chair,chair,c50,c50_chair_10_n03376595_12602.png,True,-0.5450543503518149,0.0197948031127452,1.0,-0.002130093252515368,26.553952913731337,10,2.027380952380952,9,43.65406533016305,10
subject-04,1,49,0.673440933227539,bear,bear,c01,c01_bear_10_n02132136_10428.png,True,-0.2748197759036964,2.274366617202759,0.2,-2.692830249903571,27.552212595939636,10,1.0924603174603171,9,39.17169325811039,6
subject-04,1,50,1.0054759979248,bicycle,bottle,c10,c10_bottle_10_n04557648_4165.png,False,1.4529704044882614,1.226745367050171,1.0,-0.32219470496963504,27.56458568572998,10,3.128968253968254,10,25.069967655697482,10
subject-04,1,51,0.579026937484741,car,car,c50,c50_car_10_n03100240_21982.png,True,-0.7661160035617871,0.2140939235687255,1.0,-0.05649410586291618,26.484555959701538,10,4.005927405927405,7,38.607524900228704,6
subject-04,1,52,0.796779870986938,bottle,dog,c05,c05_dog_10_n02094433_5139.png,False,0.36699137050328273,1.66962468624115,1.0,-0.8361286294700502,26.906348705291748,10,1.3335470085470085,10,41.38765299477991,10
subject-04,1,53,0.636640071868896,oven,car,c03,c03_car_10_n04285008_3193.png,False,-0.46631812546326196,1.6748203039169312,1.0,-0.5459706310638731,27.386101841926575,10,2.1254329004329,9,44.73362805043226,10
subject-04,1,54,0.804509878158569,cat,cat,c10,c10_cat_10_n02123597_488.png,True,0.40721552724311627,0.0033154925331473,1.0,-0.00029979669311351956,25.96871094312519,10,5.230555555555555,6,30.867282027805018,10
subject-04,1,55,0.750708103179932,chair,airplane,c01,c01_airplane_10_n02690373_4793.png,False,0.12725058263552463,0.6818777322769165,1.0,-0.1493172571607869,25.770927667617798,10,7.916666666666666,0,19.028421052006966,10
subject-04,1,56,0.904129981994629,keyboard,bottle,c05,c05_bottle_10_n04557648_4168.png,False,0.9256024552457585,0.5998507738113403,1.0,-0.12197551399562911,26.679234862327576,10,4.444444444444445,10,22.483736608009796,10
subject-04,1,57,0.861974954605103,elephant,elephant,c15,c15_elephant_10_n02504013_2479.png,True,0.706242965475647,0.0023924433626234,1.0,-0.00023308132241289814,26.542898091021925,10,3.755133755133755,8,33.93394361945406,10
subject-04,1,58,0.837816953659058,chair,chair,c50,c50_chair_10_n04099969_25664.png,True,0.5805334809953455,0.000114331007353,1.0,-7.808238949794578e-06,25.68197644686734,10,2.318131868131868,9,41.058204015539616,9
subject-04,1,59,0.54988694190979,boat,boat,c50,c50_boat_10_n03344393_4243.png,True,-0.9177499831144312,0.0096040964126586,1.0,-0.0009785908846724975,26.634649753570557,10,5.535714285714286,9,23.60695186597661,10
subject-04,1,60,0.65350079536438,bird,bird,c10,c10_bird_10_n02009229_263.png,True,-0.37858102903230945,0.0640498697757721,1.0,-0.007860478914828928,26.54875484108925,10,3.457936507936508,8,33.00904676438529,10
subject-04,1,61,0.767553091049194,keyboard,bicycle,c03,c03_bicycle_10_n02835271_7355.png,False,0.21490579656863507,0.6412563323974609,1.0,-0.13967033423229297,26.088501691818237,10,3.033333333333333,9,32.815595937262884,10
subject-04,1,62,0.686928987503052,keyboard,keyboard,c100,c100_keyboard_10_n04505470_9395.png,True,-0.2046328281755295,0.0005963717703707,1.0,-4.67907408184323e-05,24.07260247814702,10,3.2456099456099454,9,35.07911307198138,9
subject-04,1,63,0.612920045852661,oven,oven,c100,c100_oven_10_n04111531_4685.png,True,-0.5897485470871342,0.0044127362780272,1.0,-0.0004268007184174365,25.563304509501904,10,2.1589285714285715,9,52.913434369256855,6
subject-04,1,64,0.672630071640015,oven,oven,c30,c30_oven_10_n04111531_8963.png,True,-0.2790392058300457,0.0105953197926282,1.0,-0.001074533594060806,26.78308272175491,10,1.9102564102564101,9,56.93748691738133,6
subject-04,1,65,0.664709091186523,cat,car,c01,c01_car_10_n03100240_3289.png,False,-0.3202571183390705,2.0673389434814453,0.125,-3.7889968180930507,27.244256138801575,10,0.4515623265623262,9,48.005584767660395,6
subject-04,1,66,0.598235130310059,cat,cat,c30,c30_cat_10_n02123394_5466.png,True,-0.6661635272264359,0.0006538919406011,1.0,-5.3287972207971084e-05,25.632399349589832,10,5.363888888888889,6,27.412230268995796,9
subject-04,1,67,0.880112171173096,airplane,bicycle,c50,c50_bicycle_10_n03792782_11023.png,False,0.8006224693825403,0.0065857889130711,1.0,-0.0006088679549254531,26.760268402285874,10,4.383333333333333,7,28.452776763835455,10
subject-04,1,68,0.94579005241394,boat,elephant,c10,c10_elephant_10_n02504458_7359.png,False,1.142386368265764,0.0912241265177726,0.5,-5.460959731734929,26.607649259269238,10,3.2324786324786325,7,40.32182877813324,5
subject-04,1,69,0.841611862182617,chair,dog,c15,c15_dog_10_n02091032_3390.png,False,0.6002808100567183,0.1456454694271087,1.0,-0.023101664414297108,26.542138904333115,10,2.2845959595959595,10,36.739061165010554,10
subject-04,1,70,0.757473945617676,bottle,elephant,c05,c05_elephant_10_n02504013_7633.png,False,0.16245757541706066,0.0039843395352363,1.0,-0.00035542604850605334,26.10781253129244,10,3.428546453546453,8,35.83086742089516,10
subject-04,1,71,0.919337034225464,knife,knife,c100,c100_knife_10_n03041632_10263.png,True,1.0047344455405203,0.8017181754112244,1.0,-0.21174866933698816,26.246113002300262,10,3.9345959595959594,8,33.82076097429326,10
subject-04,1,72,0.563235998153687,keyboard,keyboard,c50,c50_keyboard_10_n03085013_14279.png,True,-0.8482863307838123,0.0009057576535269,1.0,-7.367405480891121e-05,24.162230973946862,10,3.401501276501276,8,34.88833589920753,9
subject-04,1,73,0.716804027557373,bicycle,bicycle,c50,c50_bicycle_10_n02835271_5751.png,True,-0.04917394345883303,0.0705972537398338,1.0,-0.010806025295921088,26.52496000379324,10,3.8055555555555554,8,29.494855586567567,10
subject-04,1,74,0.96851110458374,cat,truck,c03,c03_truck_10_n04467665_30581.png,False,1.260618491920979,2.2420599460601807,0.1111111111111111,-3.442474849136007,28.078205347061157,10,0.332306582306582,3,43.9670501441355,6
subject-04,1,75,0.816728115081787,knife,keyboard,c100,c100_keyboard_10_n03085013_2808.png,False,0.47079480552472314,0.0156545788049697,0.5,-6.90762520403035,25.629455104470253,10,2.143290043290043,9,44.6349651643917,6
subject-04,1,76,0.946367979049683,boat,clock,c03,c03_clock_10_n04548280_750.png,False,1.14539368909537,0.0035796873271465,1.0,-0.0003257328242295609,25.333931397646666,10,10.083333333333332,2,17.396534216817635,10
subject-04,1,77,0.630477905273438,car,car,c30,c30_car_10_n04285008_11323.png,True,-0.49838380787327846,0.0119060277938842,1.0,-0.0014108234063569304,26.337229132652283,10,3.1336080586080586,8,40.472790171958536,6
subject-04,1,78,0.604135990142822,keyboard,keyboard,c05,c05_keyboard_10_n04505470_6080.png,True,-0.6354575905380528,0.0123659968376159,1.0,-0.0012806506156703543,24.642079174518585,10,2.8146575646575647,9,38.24178398052448,10
subject-04,1,79,0.660006999969482,truck,truck,c100,c100_truck_10_n03417042_3338.png,True,-0.34472509746506474,0.003033747896552,1.0,-0.0002723707115135609,26.68075238727033,10,2.5403651903651903,9,38.90318086898045,10
subject-04,1,80,0.843464136123657,bicycle,bicycle,c15,c15_bicycle_10_n03792782_20193.png,True,0.6099193725671052,0.0043929973617196,1.0,-0.00041058146560336183,25.221817986108363,10,4.2595238095238095,8,29.394709776127982,9
subject-04,1,81,0.878767013549805,keyboard,keyboard,c03,c03_keyboard_10_n04505470_4887.png,True,0.7936227564614948,0.8798402547836304,1.0,-0.21217334519096331,25.734318256378174,10,1.7528860028860027,10,40.648264312958915,10
subject-04,1,82,0.66656494140625,oven,bottle,c01,c01_bottle_10_n04591713_1879.png,False,-0.3105999461700823,1.982508897781372,0.1428571428571428,-3.3451106161888915,27.304171085357666,10,2.7078754578754576,4,27.599176970451428,4
subject-04,1,83,0.568460941314697,clock,oven,c01,c01_oven_10_n04111531_5102.png,False,-0.8210976195706445,1.5617554187774658,0.0625,-6.979816211489859,26.78901219367981,10,0.0,0,70.32152794948524,6
subject-04,1,84,0.732028007507324,dog,dog,c30,c30_dog_10_n02101388_8775.png,True,0.030046132553296297,0.0790803730487823,1.0,-0.01165298790439914,26.77634671330452,10,2.6872766122766123,10,34.99627908008084,10
subject-04,1,85,0.628350019454956,bird,bird,c50,c50_bird_10_n02027492_6499.png,True,-0.5094565547396995,0.0008853539475239,1.0,-6.950143097649546e-05,26.466130123997573,10,3.932539682539682,8,29.45327230112132,9
subject-04,1,86,0.779700040817261,bird,bird,c05,c05_bird_10_n02056570_13462.png,True,0.2781141223221698,0.2595559656620025,1.0,-0.040733917635321006,26.45614066720009,10,1.945238095238095,10,34.8120880884152,10
subject-04,1,87,0.657502889633179,boat,bicycle,c03,c03_bicycle_10_n03792782_4844.png,False,-0.357755580416096,0.2024022340774536,1.0,-0.02990107789892026,26.410728573799133,10,3.061111111111111,9,31.15986083276856,10
subject-04,1,88,0.839717149734497,cat,cat,c50,c50_cat_10_n02123159_8273.png,True,0.590421412930957,0.0103288833051919,1.0,-0.0010527547460888046,25.169330591335893,9,5.506746031746031,6,26.12318180295149,9
subject-04,1,89,0.657180070877075,knife,knife,c15,c15_knife_10_n03041632_11700.png,True,-0.35943541226563724,0.281716525554657,1.0,-0.05083345304666196,25.635155856609344,10,4.446464646464646,7,32.982738929272735,10
subject-04,1,90,0.68100905418396,bicycle,bicycle,c30,c30_bicycle_10_n03792782_67167.png,True,-0.23543801637644524,0.0027678683400154,1.0,-0.0002434550020270153,26.34038693457842,10,4.366666666666667,8,28.880760839659462,10
subject-04,1,91,0.604782819747925,bottle,bottle,c100,c100_bottle_10_n03983396_17803.png,True,-0.6320917236194408,0.0961128398776054,1.0,-0.015476884256078462,24.511603705585003,10,9.083333333333332,1,16.46836103992327,10
subject-04,1,92,1.25854182243347,cat,cat,c05,c05_cat_10_n02125311_46330.png,True,2.7698332694918113,0.0018875383539125,1.0,-0.0001705434304065442,25.806494452874176,10,4.048412698412698,8,31.87168172306868,10
subject-04,1,93,0.84035587310791,bear,truck,c05,c05_truck_10_n03417042_708.png,False,0.5937450979567424,1.682795524597168,0.5,-1.1221969575239643,27.56552743911743,10,1.2119158619158616,9,40.79172771221686,10
subject-04,1,94,0.936147928237915,oven,truck,c03,c03_truck_10_n03796401_28635.png,False,1.0922122473949896,0.631291389465332,1.0,-0.1320243609556085,26.23183560371399,10,1.5250471750471748,10,40.4480898103089,10
subject-04,1,95,0.692516088485718,bear,bear,c100,c100_bear_10_n02133161_741.png,True,-0.17555957886823056,0.1695023775100708,1.0,-0.027093805239215275,26.258060693740845,10,2.3801587301587297,10,31.742147654288896,10
subject-04,1,96,0.683743953704834,clock,oven,c01,c01_oven_10_n04111531_14435.png,False,-0.22120659012381974,2.3021578788757324,0.0666666666666666,-4.689212825274918,27.390424251556396,10,0.008333333333333193,9,67.57491918774114,6
subject-04,1,97,0.62372088432312,car,car,c30,c30_car_10_n02814533_5155.png,True,-0.5335448968302743,0.2448136508464813,1.0,-0.06320528350360925,26.755037516355515,10,3.1070818070818067,8,40.68822575154232,6
subject-04,1,98,0.60331392288208,bear,bird,c100,c100_bird_10_n01558993_5185.png,False,-0.6397353307280141,1.5220274925231934,1.0,-0.5255407317607634,27.21450984477997,10,2.6317460317460317,10,32.987640274531024,10
subject-04,1,99,0.73320198059082,keyboard,dog,c03,c03_dog_10_n02088632_747.png,False,0.036155063149401374,2.30246639251709,1.0,-1.2146973116818556,28.103394150733948,10,1.7543761793761792,10,40.25464391198144,10
subject-04,1,100,0.719121932983398,boat,bicycle,c100,c100_bicycle_10_n03792782_1363.png,False,-0.03711240339885582,0.1204781979322433,1.0,-0.017524008936939672,26.550675436854362,10,3.1273809523809524,9,29.45941635994044,10
subject-04,1,101,0.777285099029541,car,car,c05,c05_car_10_n03100240_159.png,True,0.26554764019220234,0.3881831169128418,1.0,-0.08302085341474359,26.14019513130188,10,2.5626373626373624,9,41.89905488606588,10
subject-04,1,102,1.02470707893372,bear,oven,c10,c10_oven_10_n04111531_1580.png,False,1.5530419826386892,0.9255383014678956,0.5,-1.9778555235825415,27.613139867782593,10,0.475,10,61.70315892353594,6
subject-04,1,103,0.832589149475098,oven,oven,c30,c30_oven_10_n04111531_14269.png,True,0.5533298820552951,0.0024696895852684,1.0,-0.00023272361124224375,26.688681752420962,10,1.4928571428571429,10,56.48655806339732,6
subject-04,1,104,0.760525941848755,chair,chair,c100,c100_chair_10_n04429376_10597.png,True,0.17833905806546554,0.0238528791815042,1.0,-0.0035194626262670054,25.1872001234442,10,2.5670995670995667,9,43.62396156171647,10
subject-04,1,105,0.654093027114868,car,car,c10,c10_car_10_n03100240_12141.png,True,-0.3754992695683126,0.2682214081287384,1.0,-0.06756771439795572,26.034152060747147,10,3.197435897435897,8,41.95145100486943,6
subject-04,1,106,0.767858982086182,clock,clock,c15,c15_clock_10_n02708093_3743.png,True,0.21649754270080823,0.0281215403228998,1.0,-0.003916173182483916,24.103269645944238,10,10.0,2,16.013760260451352,10
subject-04,1,107,0.601885080337524,chair,chair,c100,c100_chair_10_n04429376_6308.png,True,-0.6471705096602786,0.002165496814996,1.0,-0.00018717610094832272,26.183559120167047,10,1.5487484737484734,10,44.31906556607773,10
subject-04,1,108,1.1256959438324,clock,clock,c30,c30_clock_10_n02708093_442.png,True,2.0785514473091187,0.0062599293887615,1.0,-0.0006229433175181355,25.831664811819792,10,9.033333333333333,10,18.536919582322884,10
subject-04,1,109,0.649781942367554,oven,chair,c100,c100_chair_10_n02791124_12707.png,False,-0.3979325926874781,0.0040864236652851,1.0,-0.00038720712281946064,25.9533859975636,10,2.2539682539682535,9,42.50123517739318,10
subject-04,1,110,0.599613904953003,cat,cat,c10,c10_cat_10_n02124075_9716.png,True,-0.6589888835145613,0.0046167373657226,1.0,-0.0004412313041994015,25.724292278289795,10,5.2746031746031745,6,28.11043342402306,9
subject-04,1,111,0.773362874984741,elephant,elephant,c30,c30_elephant_10_n02504458_2994.png,True,0.24513780728470036,0.0002982582373078,1.0,-2.1398296416277002e-05,26.95822357790894,10,5.139560439560439,6,30.285044466927346,10
subject-04,1,112,0.5590980052948,car,car,c15,c15_car_10_n02814533_3117.png,True,-0.8698189464267887,0.0156670324504375,1.0,-0.001978027795986925,25.408699344843626,10,3.222594072594072,8,40.49848029533923,6
subject-04,1,113,0.906790971755981,bird,bird,c50,c50_bird_10_n01614925_1908.png,True,0.9394492818873346,0.0051521016284823,1.0,-0.00048321237420144447,26.524825687520206,10,2.9158730158730153,9,29.885277806270327,10
subject-04,1,114,0.988713026046753,keyboard,bicycle,c05,c05_bicycle_10_n03792782_10129.png,False,1.3657419720590434,0.2687277793884277,1.0,-0.045006250304366995,26.289037942886353,10,2.3294011544011544,10,32.472396570543744,10
subject-04,1,115,0.680131912231445,elephant,elephant,c100,c100_elephant_10_n02504458_2031.png,True,-0.2400023453088338,0.000105935614556,1.0,-7.0333728177157245e-06,25.998976546805352,10,5.241341991341991,6,27.64791894353255,9
subject-04,1,116,0.892198085784912,keyboard,keyboard,c50,c50_keyboard_10_n03085013_24111.png,True,0.86351319029598,0.12310791015625,1.0,-0.019206205612100034,26.529157161712646,10,2.407947607947608,9,37.39403221137862,10
subject-04,1,117,0.576179981231689,boat,bear,c30,c30_bear_10_n02134084_14775.png,False,-0.7809305324505164,2.071960210800171,1.0,-1.0009332534216044,28.835984230041504,10,2.2452380952380953,10,32.2661489026095,10
subject-04,1,118,0.743565082550049,chair,chair,c30,c30_chair_10_n02791124_4109.png,True,0.0900808911937439,0.0009539513266645,1.0,-7.546232749546058e-05,26.67557124182349,10,2.5245421245421245,9,40.95629402108599,10
subject-04,1,119,0.641692876815796,bicycle,bicycle,c10,c10_bicycle_10_n02835271_13437.png,True,-0.44002515915065404,0.0005248181405477,1.0,-3.8862983549517304e-05,26.123424350458663,10,4.316666666666666,8,28.687367724759994,9
subject-04,1,120,0.75739598274231,airplane,airplane,c50,c50_airplane_10_n02690373_1436.png,True,0.16205188485960315,0.0007006235537119,1.0,-5.448012934011461e-05,25.369942099612672,10,8.916666666666666,0,17.00885346824012,9
subject-04,1,121,0.67526912689209,oven,knife,c05,c05_knife_10_n03041632_29886.png,False,-0.2653065184278751,0.9559882283210754,1.0,-0.2598582364098527,27.194255650043488,10,2.0345959595959595,10,36.16451039785018,10
subject-04,1,122,0.632952928543091,keyboard,keyboard,c10,c10_keyboard_10_n04505470_4374.png,True,-0.4855046834788503,0.0006535444408655,1.0,-5.0665231520359847e-05,24.93349818326533,10,2.913492063492063,9,36.43595656437801,10
subject-04,1,123,0.730736970901489,chair,knife,c03,c03_knife_10_n03041632_11932.png,False,0.02332804579904932,1.3391458988189695,1.0,-0.4190939237769795,26.211183547973633,10,3.404401154401154,8,34.91477045987907,10
subject-04,1,124,0.73465895652771,bottle,bottle,c15,c15_bottle_10_n04557648_5967.png,True,0.04373663806264471,0.630584716796875,1.0,-0.12372760652313713,26.864094495773315,10,4.21978021978022,10,22.51723800870238,10
subject-04,1,125,0.574569940567017,oven,oven,c100,c100_oven_10_n04111531_5991.png,True,-0.7893086007517915,0.0022229074966162,1.0,-0.00019206460869259317,25.583896052790806,10,2.011742424242424,9,54.92191913582861,6
subject-04,1,126,0.602303981781006,clock,clock,c50,c50_clock_10_n02708093_3759.png,True,-0.6449906983163769,0.0027557068970054,1.0,-0.00023993747791553976,25.500070517649874,10,9.333333333333332,3,17.449910213555736,10
subject-04,1,127,0.568061113357544,oven,oven,c100,c100_oven_10_n04111531_14095.png,True,-0.8231781794020141,1.0196706056594849,0.5,-0.8823121590624667,26.97090232372284,10,0.6483516483516483,10,57.37166131662015,6
subject-04,1,128,0.620033979415894,bird,bird,c30,c30_bird_10_n01514859_8317.png,True,-0.5527302142019566,0.0057405466213822,1.0,-0.0005391501180120828,27.153826617635787,10,2.041269841269841,10,32.065128895286726,10
subject-04,1,129,0.857691049575806,cat,cat,c30,c30_cat_10_n02123045_11032.png,True,0.6839510757618312,0.0311550758779048,1.0,-0.003946930657106077,26.005209412425756,10,4.498412698412698,7,31.75511004868796,9
subject-04,1,130,0.589359998703003,knife,knife,c100,c100_knife_10_n03041632_3101.png,True,-0.7123464966496774,2.4068842321867123e-05,1.0,-1.4305124977918903e-06,24.415154684076697,10,3.958838383838384,8,33.003000664209516,6
subject-04,1,131,0.951615810394287,truck,boat,c03,c03_boat_10_n03344393_2676.png,False,1.1727015021235727,2.3704912662506104,0.25,-2.533075880184556,28.146270990371704,10,2.3134920634920633,1,27.920952043566732,5
subject-04,1,132,0.922963857650757,bear,bicycle,c05,c05_bicycle_10_n03792782_8057.png,False,1.0236071206477417,0.3456320166587829,1.0,-0.06762134739071551,26.31507271528244,10,2.3952380952380947,10,32.6343555175477,10
subject-04,1,133,1.02881097793579,keyboard,keyboard,c05,c05_keyboard_10_n04505470_5155.png,True,1.5743971862029926,0.1511969566345214,1.0,-0.021976525184915406,25.520316123962402,10,2.296042846042846,9,39.32683565665367,10
subject-04,1,134,0.806619882583618,knife,knife,c15,c15_knife_10_n03041632_16206.png,True,0.41819522581654045,0.1693305671215057,1.0,-0.030193266032933912,26.91820999979973,10,2.268290043290043,10,33.749652643458276,10
subject-04,1,135,0.488540887832642,clock,clock,c05,c05_clock_10_n03196217_10641.png,True,-1.2369726228586146,0.7606105804443359,1.0,-0.17284747775720719,25.517460227012634,10,10.0,2,17.29621583778219,10
subject-04,1,136,0.618342876434326,bottle,bottle,c30,c30_bottle_10_n03983396_9090.png,True,-0.5615301014314843,0.0016109147109091,1.0,-0.00013101959190831383,26.693535248283297,10,4.866666666666667,10,21.88072999946105,10
subject-04,1,137,0.790289163589478,chair,oven,c15,c15_oven_10_n04111531_7034.png,False,0.33321608078996884,0.0407772213220596,1.0,-0.005293946487628979,26.833449140191078,10,1.0158730158730158,10,59.820465368344614,6
subject-04,1,138,0.732297897338867,bicycle,bicycle,c30,c30_bicycle_10_n03792782_8847.png,True,0.031450541455569164,0.0008423113031312,1.0,-6.520960748462821e-05,25.106256225029938,9,4.866666666666667,7,27.096861860050044,9
subject-04,1,139,0.963762998580933,oven,dog,c01,c01_dog_10_n02110185_14953.png,False,1.2359110685210135,2.0655102729797363,0.1,-4.0046546820960165,27.477405071258545,10,0.43298368298368295,9,43.79642570770683,6
subject-04,1,140,0.959831953048706,knife,dog,c10,c10_dog_10_n02093428_592.png,False,1.2154553317889667,0.1118513941764831,1.0,-0.01511495455920993,26.637146651744843,10,2.1512626262626258,10,37.68370428522812,10
subject-04,1,141,0.805443048477173,car,oven,c01,c01_oven_10_n04111531_21248.png,False,0.41207140749355675,1.6794497966766355,0.0625,-6.4348104060191895,27.075212121009827,10,0.004166666666666596,7,68.47618813840687,6
subject-04,1,142,0.88114595413208,airplane,boat,c10,c10_boat_10_n03344393_4485.png,False,0.806001901361562,0.0007322448072955,1.0,-6.044093631883867e-05,25.71366447384935,10,4.5,9,23.923847532830422,10
subject-04,1,143,1.00095582008362,dog,oven,c15,c15_oven_10_n04111531_1977.png,False,1.4294490366630377,0.0810049623250961,1.0,-0.010787347280089782,26.735540971159935,10,1.8833333333333333,9,59.397175296816606,6
subject-04,1,144,0.603071212768555,cat,cat,c03,c03_cat_10_n02123597_1965.png,True,-0.6409983062249321,0.2251218557357788,1.0,-0.03716117754789179,25.636505365371704,10,3.736111111111111,8,34.01279161961204,10
subject-04,1,145,0.814939975738525,knife,chair,c50,c50_chair_10_n02791124_5824.png,False,0.4614899762252103,0.0039538163691759,1.0,-0.0003884593059037732,26.361982943490148,10,3.1609890109890104,8,41.773038344806935,10
subject-04,1,146,0.67070198059082,oven,bear,c05,c05_bear_10_n02134418_3579.png,False,-0.2890722931027353,0.0238584596663713,1.0,-0.0029762526330108846,26.33168259449303,10,2.7249999999999996,10,31.79450943627514,10
subject-04,1,147,0.610402822494507,clock,clock,c05,c05_clock_10_n02708093_3750.png,True,-0.6028472654530315,0.1233737766742706,1.0,-0.01711040444863822,24.97153750061989,10,9.25,2,17.588753702354374,10
subject-04,1,148,0.846040010452271,keyboard,car,c10,c10_car_10_n03100240_24420.png,False,0.6233232893340309,0.5391818881034851,1.0,-0.1656052896197943,26.49834853410721,10,2.556227106227106,9,42.44868331032866,10
subject-04,1,149,1.241947889328,car,clock,c05,c05_clock_10_n03196217_3605.png,False,2.683484453592343,0.0158383697271347,1.0,-0.0016065024227169475,24.48222027719021,10,9.583333333333332,2,16.495087840672397,10
subject-04,1,150,0.669711112976074,bicycle,airplane,c01,c01_airplane_10_n02690373_5106.png,False,-0.2942284091785704,2.275669574737549,0.3333333333333333,-1.8306324521284305,27.349037170410156,10,6.583333333333332,0,21.735898131431856,10
subject-04,1,151,0.619525909423828,boat,airplane,c01,c01_airplane_10_n02690373_5266.png,False,-0.5553740263669272,2.0526700019836426,1.0,-1.0263879805593779,27.468753576278687,10,8.916666666666666,0,19.102849377456863,10
subject-04,1,152,1.23925399780273,knife,knife,c50,c50_knife_10_n03041632_13612.png,True,2.669466418091645,1.144849181175232,1.0,-0.6631131864419313,26.617472648620605,10,4.552453102453102,7,33.98124585237194,10
subject-04,1,153,0.86912202835083,boat,boat,c15,c15_boat_10_n03344393_6467.png,True,0.7434337478638365,0.0367789417505264,1.0,-0.004150169188383898,26.17556358873844,10,4.45,9,23.116188667225543,10
subject-04,1,154,0.967346906661987,truck,truck,c03,c03_truck_10_n03796401_23550.png,True,1.2545604277250435,2.1921238899230957,0.125,-3.2032645757817297,27.74409556388855,10,0.3173493173493171,3,44.92550674459361,7
subject-04,1,155,0.594734907150269,keyboard,keyboard,c100,c100_keyboard_10_n04505470_5068.png,True,-0.6843774204192521,0.0064201252534985,1.0,-0.0006717314891279715,25.16860376764089,10,3.0214285714285714,9,34.37188212923235,10
subject-04,1,156,1.14254307746887,chair,chair,c05,c05_chair_10_n04099969_3686.png,True,2.166217827037369,0.0009051507222466,1.0,-7.242226583097483e-05,25.580092305492144,10,1.4804695304695301,10,43.80463987333134,10
subject-04,1,157,0.706577062606812,cat,truck,c01,c01_truck_10_n03417042_23038.png,False,-0.10239136383250093,2.0308470726013184,0.0833333333333333,-4.287787817889508,27.32725441455841,10,0.3066100566100563,3,46.42433226706431,6
subject-04,1,158,0.664169073104858,cat,cat,c100,c100_cat_10_n02123597_16831.png,True,-0.32306717678752284,0.0356662757694721,1.0,-0.005110844598525691,26.210921097546816,10,5.344047619047619,6,28.76468508123454,10
subject-04,1,159,1.08395791053772,keyboard,keyboard,c15,c15_keyboard_10_n03085013_20891.png,True,1.8613618437316402,0.0143764475360512,1.0,-0.0017758273093959028,24.116019771434367,10,2.813528138528138,9,36.929701719008754,9
subject-04,1,160,0.813726902008057,oven,bird,c15,c15_bird_10_n01819313_1282.png,False,0.45517758002842607,0.0565722435712814,1.0,-0.007120148278481696,26.279498621821404,10,1.7769591519591517,10,35.40085684987649,10
subject-04,1,161,0.937802076339722,bear,cat,c30,c30_cat_10_n02125311_5717.png,False,1.1008198348189924,0.6667762398719788,1.0,-0.3326164998534392,27.39437633752823,10,3.1595238095238094,7,32.63452709422689,10
subject-04,1,162,0.809701919555664,keyboard,knife,c100,c100_knife_10_n03041632_50034.png,False,0.4342330295971777,0.0143131017684936,1.0,-0.0015365956079947665,24.86942744255066,10,3.956818181818182,8,33.61546102848921,10
subject-04,1,163,0.585278987884521,clock,car,c01,c01_car_10_n02814533_3590.png,False,-0.7335825983989778,2.313866138458252,0.2,-3.0552878048901904,27.123895168304443,10,0.6666666666666661,9,48.387929247628946,6
subject-04,1,164,0.62922191619873,bottle,bottle,c30,c30_bottle_10_n03983396_5545.png,True,-0.5049195199732602,0.0958188623189926,1.0,-0.01634041578404997,25.97905443608761,10,6.533333333333333,9,20.454124491402258,10
subject-04,1,165,1.13294291496277,keyboard,bear,c03,c03_bear_10_n02133161_968.png,False,2.1162620594941726,0.7480708360671997,1.0,-0.20960571915914633,26.32059609889984,10,3.1301587301587297,9,33.92910022301407,10
subject-04,1,166,0.564767122268677,bear,bear,c50,c50_bear_10_n02133161_4954.png,True,-0.8403189156156189,0.0002201826719101,1.0,-1.543772215784569e-05,26.985192898049718,10,4.209523809523809,6,26.782666802540774,10
subject-04,1,167,0.606575012207031,clock,oven,c03,c03_oven_10_n04111531_584.png,False,-0.6227658033735198,1.191664218902588,0.0714285714285714,-5.506288431161094,27.060553550720215,10,0.008928571428571397,10,67.61164917120122,6
subject-04,1,168,0.928337097167969,bottle,bottle,c100,c100_bottle_10_n03937543_2123.png,True,1.05156751237082,2.0923571586608887,0.2,-2.635326475738764,27.567062377929688,10,4.267099567099567,1,24.355987932780266,10
subject-04,1,169,0.948375940322876,knife,airplane,c05,c05_airplane_10_n02690373_1773.png,False,1.155842392076766,0.0032577337697148,1.0,-0.00028131388373561853,25.457900744862854,10,7.916666666666666,0,18.59669546526079,10
subject-04,1,170,0.474459886550903,boat,bicycle,c10,c10_bicycle_10_n03792782_14557.png,False,-1.3102450519825015,0.0039122481830418,1.0,-0.00036884195105528494,26.582357205916196,10,3.7,9,28.84056281892741,10
subject-04,1,171,1.04990696907043,elephant,elephant,c30,c30_elephant_10_n02504013_476.png,True,1.6841730809907922,0.0010218888055533,1.0,-7.963497620058123e-05,26.618917015148327,10,5.1114468864468865,6,32.06930325494064,10
subject-04,1,172,0.56781005859375,bottle,bottle,c50,c50_bottle_10_n02823428_5288.png,True,-0.8244845774356654,0.0643092021346092,1.0,-0.009355360869252106,26.19989188760519,10,6.833333333333333,9,20.570595387138354,10
subject-04,1,173,0.57951021194458,bicycle,bicycle,c15,c15_bicycle_10_n02835271_26158.png,True,-0.7636012183631052,0.0013534894678741,1.0,-0.00011104961899725447,26.034413563320413,10,4.833333333333333,7,28.56001991698897,10
subject-04,1,174,0.685363054275513,airplane,airplane,c05,c05_airplane_10_n02690373_4402.png,True,-0.2127813773540874,0.1068995893001556,1.0,-0.014474938121970243,25.418123453855515,10,7.916666666666666,0,19.30244161722757,10
subject-04,1,175,0.745113134384155,oven,boat,c03,c03_boat_10_n02951358_34234.png,False,0.09813639207930497,0.0987186729907989,1.0,-0.013166297420767543,26.10597661137581,10,4.241666666666667,9,24.718819163400795,10
subject-04,1,176,0.568936824798584,cat,bicycle,c03,c03_bicycle_10_n03792782_818.png,False,-0.8186212943330669,0.3023756146430969,1.0,-0.05455302770306629,26.37001758813858,10,2.952380952380952,9,31.7495891117672,10
subject-04,1,177,0.618896961212158,car,dog,c01,c01_dog_10_n02091134_3701.png,False,-0.5586468449925425,1.8894671201705933,0.0769230769230769,-5.1279974654141895,26.66018044948578,10,0.3613858363858362,8,46.84770709360745,6
subject-04,1,178,0.59879207611084,keyboard,keyboard,c50,c50_keyboard_10_n04505470_1047.png,True,-0.6632653830606166,0.0001357544679194,1.0,-9.11955223362483e-06,23.785266255261377,9,3.6766955266955264,8,34.988306619313875,9
subject-04,1,179,0.550536870956421,boat,boat,c10,c10_boat_10_n03344393_14897.png,True,-0.914367987825035,0.2037857472896576,1.0,-0.041290519779676654,26.213963121175766,10,3.833333333333333,10,23.903007215058338,10
subject-04,1,180,0.578289031982422,cat,keyboard,c03,c03_keyboard_10_n03085013_21447.png,False,-0.7699557964527168,0.2698101997375488,1.0,-0.049578603281885035,25.14614450931549,10,1.8555666555666552,10,40.02640393191676,10
subject-04,1,181,0.474512100219727,cat,cat,c30,c30_cat_10_n02123045_1484.png,True,-1.3099733509669518,0.0775637030601501,1.0,-0.011977653156902197,24.97011798620224,9,4.713492063492064,7,29.717045389415887,9
subject-04,1,182,0.635895967483521,bicycle,bicycle,c100,c100_bicycle_10_n02835271_2885.png,True,-0.47019017509576055,0.1379875838756561,1.0,-0.025157138996522332,25.61077782511711,10,3.052380952380952,9,31.195052091635738,10
subject-04,1,183,0.62196683883667,dog,dog,c100,c100_dog_10_n02101556_2504.png,True,-0.5426723140511401,0.0093372073024511,1.0,-0.00094249541998019,26.228637477383018,10,2.987276612276612,9,34.12659583949787,10
subject-04,1,184,0.65745997428894,keyboard,keyboard,c30,c30_keyboard_10_n03085013_2272.png,True,-0.3579788963192883,0.00025283760624,1.0,-1.8179581903980842e-05,24.353465074964333,10,3.431782106782107,8,34.117739231458955,9
subject-04,1,185,1.16131186485291,knife,knife,c30,c30_knife_10_n03041632_77022.png,True,2.263883796652885,8.067129965638742e-05,1.0,-5.185617540861406e-06,25.480022039402684,10,4.377020202020201,7,32.725014709594376,10
subject-04,1,186,0.710976123809814,bird,oven,c05,c05_oven_10_n04111531_22886.png,False,-0.07950024311180176,2.319450855255127,0.0909090909090909,-3.5387772549249976,28.315752625465393,10,0.037337662337662295,10,65.73444619057443,6
subject-04,1,187,0.706959009170532,elephant,elephant,c05,c05_elephant_10_n02504013_8347.png,True,-0.10040385229412883,0.0090320520102977,1.0,-0.0009760850417328847,25.937859814614058,10,3.4547008547008544,8,36.41919720472493,10
subject-04,1,188,0.704715967178345,car,knife,c01,c01_knife_10_n03041632_81630.png,False,-0.11207583016743318,2.0997116565704346,1.0,-1.0071845935244148,27.0520898103714,10,3.844119769119769,7,37.005086091862495,10
subject-04,1,189,0.676451921463013,bear,bear,c50,c50_bear_10_n02132136_19512.png,True,-0.2591516840072241,0.0127056036144495,1.0,-0.0015171944975880202,27.19781164266169,10,2.8761904761904757,10,27.450032615312296,10
subject-04,1,190,0.758238077163696,elephant,dog,c05,c05_dog_10_n02108551_3425.png,False,0.1664338391377155,0.1278579831123352,1.0,-0.019444901294469987,26.242439806461334,10,2.611111111111111,9,36.838434335143596,10
subject-04,1,191,0.732033014297485,dog,dog,c50,c50_dog_10_n02093991_6192.png,True,0.03007218607533435,0.0101237976923584,1.0,-0.0009812757233615735,26.236888715066016,10,3.5357864357864357,9,32.463575356444665,10
subject-04,1,192,0.641788959503174,airplane,airplane,c100,c100_airplane_10_n02690373_6046.png,True,-0.43952517965629306,0.0004266691976226,1.0,-3.2187026175591366e-05,22.955448527412955,9,6.416666666666666,0,19.16972765244619,9
subject-04,1,193,0.8958899974823,clock,clock,c50,c50_clock_10_n03196217_3006.png,True,0.8827245611897054,0.0042790616862475,1.0,-0.00045291903870323173,25.049135609995574,10,9.833333333333332,2,16.560269899296422,10
subject-04,1,194,0.695558071136475,truck,truck,c100,c100_truck_10_n04467665_4239.png,True,-0.15973020326390122,0.0091875800862908,1.0,-0.0009496547474114125,25.36352050397545,10,2.8085470085470083,9,41.44259870315488,10
subject-04,1,195,0.947480916976929,bear,elephant,c50,c50_elephant_10_n02504458_209.png,False,1.1511850148513858,0.0002983583544846,1.0,-2.092144916815352e-05,26.535828925523674,10,4.212709512709512,7,33.9300613748256,10
subject-04,1,196,1.1852068901062,bottle,knife,c15,c15_knife_10_n03041632_28009.png,False,2.3882248509041744,0.0485112518072128,1.0,-0.006222734122132005,26.107163414359093,10,3.1445526695526693,8,35.64922669494876,10
subject-04,1,197,0.906998157501221,chair,truck,c05,c05_truck_10_n03417042_19958.png,False,0.9405274014421753,0.0841879025101661,1.0,-0.010990112791449727,26.121225275099277,10,2.4306027306027307,9,38.57009244040451,10
subject-04,1,198,0.665132999420166,truck,truck,c10,c10_truck_10_n03417042_14261.png,True,-0.31805125347313074,0.0215934179723262,1.0,-0.002526491926511277,26.03585561737418,10,3.441147741147741,8,37.03323104931368,10
subject-04,1,199,0.692573070526123,cat,chair,c03,c03_chair_10_n02791124_1333.png,False,-0.175263064974554,1.9215060472488403,1.0,-0.8728199609781907,26.634521484375,10,1.0776556776556774,10,46.6491814888768,10
subject-04,1,200,0.702526092529297,dog,dog,c10,c10_dog_10_n02087394_9693.png,True,-0.12347114444956829,0.0351200774312019,1.0,-0.004076313896005166,25.514539428055286,10,2.5456099456099457,9,38.312430720317806,10
subject-04,1,201,0.55811595916748,oven,bird,c03,c03_bird_10_n02011460_2886.png,False,-0.8749291586780836,1.970367193222046,0.25,-2.5094503006048092,27.66755247116089,10,1.201190476190476,8,37.993333920221666,6
subject-04,1,202,0.640075922012329,truck,truck,c100,c100_truck_10_n04467665_52409.png,True,-0.4484392061252264,0.0024269567802548,1.0,-0.0002111419406852576,25.350503061898053,10,2.7886446886446885,9,39.75337669876422,10
subject-04,1,203,0.628051996231079,elephant,elephant,c15,c15_elephant_10_n02504458_2607.png,True,-0.5110073596229519,0.0004394506686367,1.0,-3.2008206501561e-05,26.47230915777618,10,4.521800421800421,7,33.31616014073583,10
subject-04,1,204,0.905747175216675,elephant,bird,c10,c10_bird_10_n02007558_16029.png,False,0.9340177428642368,0.1539173126220703,1.0,-0.022708611882508313,26.367786407470703,10,2.3289682539682537,10,33.68101534409926,10
subject-04,1,205,0.629523992538452,chair,chair,c30,c30_chair_10_n02791124_3370.png,True,-0.5033476241435944,0.0010307694319635,1.0,-8.249623108975247e-05,26.423536267364398,10,2.6507326007326,9,41.37133090127787,10
subject-04,1,206,1.49999809265137,dog,dog,c30,c30_dog_10_n02102480_8264.png,True,4.026284220107319,0.1462821364402771,1.0,-0.024636505332053842,27.06389158964157,10,2.726262626262626,9,35.32362036654752,10
subject-04,1,207,0.641235113143921,cat,clock,c03,c03_clock_10_n02708093_7257.png,False,-0.4424071954513289,0.2101818621158599,1.0,-0.033829317565824975,24.668114095926285,10,9.083333333333332,2,16.907475131057232,10
subject-04,1,208,0.741082906723022,bird,bird,c50,c50_bird_10_n01860187_810.png,True,0.0771645474821125,0.004761722870171,1.0,-0.00044087351856321493,26.854717996902764,10,2.684126984126984,9,31.91613722548158,10
subject-04,1,209,0.752894878387451,dog,dog,c05,c05_dog_10_n02086079_37199.png,True,0.13862976854687045,0.4883989095687866,1.0,-0.12517617261423958,26.301015734672546,10,2.239224664224664,10,37.292122124307916,10
subject-04,1,210,0.528551816940308,bottle,bottle,c50,c50_bottle_10_n03983396_11506.png,True,-1.0287702437405688,0.0005435429047793,1.0,-4.4168017171074426e-05,25.105286308331415,10,8.583333333333332,1,17.15894906470119,9
subject-04,1,211,0.510393142700195,bicycle,bicycle,c100,c100_bicycle_10_n03792782_19937.png,True,-1.1232614055990604,0.0013003456406295,1.0,-0.00011271873578838871,25.867010484915227,10,3.0754329004329,9,29.481675573542947,9
subject-04,1,212,0.574198007583618,car,car,c30,c30_car_10_n02814533_5147.png,True,-0.7912440052460927,0.0192630980163812,1.0,-0.002778691623152665,26.18268663622439,10,3.3950549450549445,8,40.273642314565045,6
subject-04,1,213,0.804041147232056,oven,oven,c10,c10_oven_10_n04111531_9026.png,True,0.4047764213227412,0.0442109145224094,1.0,-0.005419728629948589,25.900259379297495,10,1.5075757575757576,10,58.3198630022665,6
subject-04,1,214,0.605831146240234,airplane,airplane,c10,c10_airplane_10_n02690373_4375.png,True,-0.626636612362117,0.0017159834969788,1.0,-0.00014025956506931418,24.628110374556854,10,8.75,0,17.30173552431029,9
subject-04,1,215,1.03976511955261,chair,knife,c100,c100_knife_10_n03041632_1143.png,False,1.6313985704917915,0.5816009044647217,0.5,-2.1153506884246616,26.04837155342102,10,1.8008658008658007,10,36.80279532268823,6
subject-04,1,216,0.77949595451355,boat,oven,c30,c30_oven_10_n04111531_467.png,False,0.27705213113811894,0.0188765972852706,1.0,-0.001991047420861966,26.635851189494133,10,2.2125,9,54.348898375165504,6
subject-04,1,217,0.885299921035767,bottle,chair,c15,c15_chair_10_n02791124_15853.png,False,0.8276176401462824,0.0056785577908158,1.0,-0.0005397464860827115,26.47435011807829,10,2.163492063492063,9,42.73751913318574,10
subject-04,1,218,1.50014591217041,oven,chair,c05,c05_chair_10_n02791124_5939.png,False,4.027053419329396,0.1118364185094833,1.0,-0.016032562021483447,25.96535836160183,10,2.0728937728937726,9,43.063939224735776,10
subject-04,1,219,0.776911973953247,bear,bear,c50,c50_bear_10_n02133161_5904.png,True,0.26360603247837044,0.0931488424539566,1.0,-0.01694482867092305,27.04052485525608,10,2.5845238095238092,10,29.960214274449484,10
subject-04,1,220,0.796795129776001,bird,dog,c01,c01_dog_10_n02097658_6391.png,False,0.36707077171330754,2.1581919193267822,0.0714285714285714,-4.257250219190349,26.779112100601196,10,0.3099317349317347,8,46.638735770108966,6
subject-04,1,221,0.678742170333862,oven,oven,c30,c30_oven_10_n04111531_695.png,True,-0.24723405864041378,0.0062907496467232,1.0,-0.000631173917948459,26.821877078153193,10,1.4659090909090908,10,56.96196314823216,6
subject-04,1,222,0.824253082275391,chair,chair,c15,c15_chair_10_n02791124_5706.png,True,0.5099520085048811,0.1181474030017852,1.0,-0.01839598901645042,26.26878872513771,10,1.5907509157509154,10,42.64113577303445,10
subject-04,1,223,1.10809397697449,bottle,clock,c03,c03_clock_10_n04548280_3161.png,False,1.9869571889725464,0.002210063394159,1.0,-0.00018347992803133403,24.96253470843658,10,10.083333333333332,2,16.60784169666139,10
subject-04,1,224,0.729895114898682,bird,bird,c50,c50_bird_10_n02002724_7019.png,True,0.018947332164842404,0.0097476299852132,1.0,-0.0009585443169723596,26.81408060155809,10,3.731349206349206,8,29.887892861088247,10
subject-04,1,225,0.663748025894165,boat,dog,c03,c03_dog_10_n02113712_4486.png,False,-0.3252581539265787,1.6686997413635254,0.5,-2.043397330550543,27.51989197731018,10,1.1133699633699632,9,41.039527448098575,6
subject-04,1,226,0.791769981384277,dog,dog,c05,c05_dog_10_n02105641_416.png,True,0.3409217200938665,0.3056983649730682,1.0,-0.05570517307198777,26.082993239164352,10,2.0622766122766123,10,37.32464512047394,10
subject-04,1,227,0.64732813835144,bear,bear,c10,c10_bear_10_n02132136_10514.png,True,-0.4107012997742245,0.0015611250419169,1.0,-0.00012917160752127767,25.93705674004741,10,4.1499999999999995,9,27.76682553745859,10
subject-04,1,228,0.61915397644043,clock,clock,c15,c15_clock_10_n02708093_2025.png,True,-0.5573094308612232,0.0022760380525141,1.0,-0.00019796661939736732,24.663811301114038,10,9.833333333333332,2,15.727775373673394,10
subject-04,1,229,0.761049032211304,oven,bottle,c01,c01_bottle_10_n04591713_1126.png,False,0.18106103079655034,2.187171936035156,0.3333333333333333,-2.072568007557698,26.721124529838562,10,2.8166666666666664,10,25.88748768867539,10
subject-04,1,230,0.706998825073242,bird,elephant,c01,c01_elephant_10_n02504458_5331.png,False,-0.10019666476172638,1.3931541442871094,0.125,-4.74157737212405,26.526318788528442,10,0.71505439005439,8,45.12959333054016,5
subject-04,1,231,0.648720026016235,car,boat,c01,c01_boat_10_n02951358_20960.png,False,-0.40345842064748455,2.007014513015747,0.1666666666666666,-3.513032840298527,27.090579509735107,10,2.337301587301587,1,29.918031324183193,5
subject-04,1,232,0.770443201065063,boat,knife,c03,c03_knife_10_n03041632_89912.png,False,0.22994488200445753,0.6903350353240967,1.0,-0.14507551319112508,25.821492910385132,10,3.968686868686868,8,33.885239131817805,10
subject-04,1,233,0.528305053710938,boat,boat,c50,c50_boat_10_n03662601_28046.png,True,-1.0300543101839004,0.0033820013049989,1.0,-0.00029818688645744785,26.349916968727484,10,4.958333333333333,9,22.412489465893746,10
subject-04,1,234,1.42411017417908,truck,truck,c30,c30_truck_10_n03796401_3012.png,True,3.6313909865677894,0.0129041410982608,1.0,-0.001404496414022614,25.858418557792902,10,2.373626373626373,10,37.90859323283545,10
subject-04,1,235,0.584052085876465,oven,oven,c100,c100_oven_10_n04111531_9411.png,True,-0.7399669519423461,0.0427265837788581,1.0,-0.005680152142383071,24.82110518962145,10,1.726190476190476,10,55.07888710077071,6
subject-04,1,236,0.729875802993774,knife,knife,c100,c100_knife_10_n03041632_7279.png,True,0.018846840008403642,0.0005195393459871,1.0,-4.10684435472275e-05,25.687381292809732,10,3.3453102453102455,9,32.88645665749243,10
subject-04,1,237,0.677643060684204,keyboard,keyboard,c30,c30_keyboard_10_n03085013_24103.png,True,-0.2529534270498454,0.0010690970811992,1.0,-9.012628415192872e-05,24.558198718586937,10,3.7408730158730155,8,33.57452098429042,6
subject-04,1,238,0.541336059570312,boat,boat,c15,c15_boat_10_n03662601_6289.png,True,-0.962245676824696,0.0843650698661804,1.0,-0.011651239110817847,25.970874845981598,10,5.25,9,21.978770973505807,10
subject-04,1,239,0.769333124160767,bird,clock,c01,c01_clock_10_n02708093_7929.png,False,0.2241684439753257,2.0054454803466797,0.5,-1.3521011150704754,27.231080770492554,10,6.999999999999999,2,20.284967260843548,10
subject-04,1,240,0.535041093826294,clock,clock,c100,c100_clock_10_n04548280_7539.png,True,-0.9950023978906918,0.0007673926884308,1.0,-5.8414257959540366e-05,25.481240791850723,10,8.5,4,17.971657774379782,10
subject-04,1,241,0.684371948242188,bottle,bottle,c50,c50_bottle_10_n03937543_8197.png,True,-0.21793873407382858,0.0040848455391824,1.0,-0.00040169676584052565,25.68972303485498,10,5.166666666666666,10,19.918636872996615,10
subject-04,1,242,0.530332088470459,oven,bear,c03,c03_bear_10_n02134084_6840.png,False,-1.0195063556899775,2.1136159896850586,0.25,-1.8431793656206312,27.81289505958557,10,1.442460317460317,9,36.653349187936975,10
subject-04,1,243,0.558021068572998,cat,keyboard,c01,c01_keyboard_10_n04505470_2787.png,False,-0.8754229349529087,0.1276125013828277,1.0,-0.01995019067335372,24.85990098118782,10,2.3529220779220776,9,40.442163990136095,10
subject-04,1,244,0.616062879562378,airplane,airplane,c10,c10_airplane_10_n02690373_9642.png,True,-0.5733943791103124,0.0058205658569931,1.0,-0.0005387922973402421,26.02462797705084,10,6.166666666666666,0,21.501180281557716,10
subject-04,1,245,0.701740980148315,boat,boat,c03,c03_boat_10_n03662601_6462.png,True,-0.12755658483400983,0.99288010597229,1.0,-0.29535016963452815,26.49026310443878,10,3.9004329004329,9,25.850737278117386,10
subject-04,1,246,0.511425971984863,clock,clock,c15,c15_clock_10_n02708093_5429.png,True,-1.1178869361956627,0.006434166803956,1.0,-0.0006094643645750354,24.166850054636598,10,9.833333333333332,2,15.664706422221105,10
subject-04,1,247,1.20343589782715,chair,car,c10,c10_car_10_n03100240_2108.png,False,2.4830820027151237,1.5883660316467283,1.0,-0.743861737041838,27.510143399238586,10,1.6206349206349202,10,44.55989564732225,6
subject-04,1,248,0.595037937164307,boat,boat,c30,c30_boat_10_n04273569_3085.png,True,-0.6828005620139622,0.0006124109495431,1.0,-4.7565637757773454e-05,26.357150945113972,10,5.833333333333334,8,21.530545987741952,10
subject-04,1,249,0.528842926025391,oven,oven,c100,c100_oven_10_n04111531_9113.png,True,-1.0272554175306086,0.0010274376254528,1.0,-8.261545022113261e-05,25.58551678317599,10,1.5075757575757576,10,55.345122558875374,6
subject-04,1,250,0.524622917175293,clock,clock,c30,c30_clock_10_n03196217_4537.png,True,-1.0492148146774563,0.0003927974612452,1.0,-2.8789457838867064e-05,24.23630333231995,10,9.833333333333332,2,15.388193781463631,10
subject-04,1,251,0.59642505645752,oven,oven,c50,c50_oven_10_n04111531_7064.png,True,-0.6755824957653542,0.0493274852633476,1.0,-0.007154846540180084,26.82564627379179,10,1.2511655011655012,10,56.33112643538528,6
subject-04,1,252,0.726629018783569,bear,truck,c01,c01_truck_10_n03796401_2226.png,False,0.0019517512883053534,2.275442123413086,0.0769230769230769,-3.8358178887809142,27.23064923286438,10,0.296353646353646,3,46.144164162211204,6
subject-04,1,253,0.518224954605103,boat,boat,c50,c50_boat_10_n02951358_22332.png,True,-1.0825074939111046,0.0002583187306299,1.0,-1.8298793367943075e-05,26.637126557179727,10,4.726190476190476,9,22.616756377194296,9
subject-04,1,254,0.565927028656006,cat,chair,c01,c01_chair_10_n03376595_6173.png,False,-0.8342831830100033,2.187648057937622,0.125,-3.485844991416149,27.020708918571472,10,0.17957875457875416,10,49.01651132772577,7
subject-04,1,255,0.545918941497803,oven,car,c03,c03_car_10_n04285008_1453.png,False,-0.9383980196519983,1.4587674140930176,1.0,-0.4633658191114612,26.767167687416077,10,2.329304029304029,9,43.64116776649074,10
subject-04,1,256,0.783667087554932,bird,elephant,c01,c01_elephant_10_n02504458_4137.png,False,0.2987571962841123,1.2112857103347778,0.125,-4.990933255135252,26.517229199409485,10,0.7658119658119658,8,44.723524163191634,5
subject-04,1,257,0.607352018356323,clock,dog,c05,c05_dog_10_n02105162_8899.png,False,-0.6187225448819056,0.7854897379875183,1.0,-0.1864531239896049,26.52913588285446,10,1.8392968142968142,10,38.917515010801495,10
subject-04,1,258,0.557249069213867,cat,car,c01,c01_car_10_n02814533_83665.png,False,-0.8794401399224855,2.238365173339844,0.1111111111111111,-3.712133517493436,27.479058980941772,10,0.38485958485958444,9,48.41228368116072,6
subject-04,1,259,0.611156940460205,truck,truck,c100,c100_truck_10_n03417042_7365.png,True,-0.5989231087764522,0.0953551307320594,1.0,-0.013842341531356377,25.227671839296818,10,1.9536630036630034,10,40.36889507105469,10
subject-04,1,260,0.708810806274414,bottle,elephant,c03,c03_elephant_10_n02504458_1328.png,False,-0.0907677710715546,0.0342553704977035,1.0,-0.0042337866660655055,25.670130237936974,10,2.151923076923077,10,38.520814614495904,10
subject-04,1,261,0.744952917098999,keyboard,keyboard,c03,c03_keyboard_10_n04505470_4797.png,True,0.09730267937406993,0.092487022280693,1.0,-0.013579119359326864,24.806616589426994,10,2.6618797868797865,9,38.94523934357829,10
subject-04,1,262,0.71644401550293,boat,dog,c03,c03_dog_10_n02102480_7875.png,False,-0.05104731575779953,0.5775381326675415,0.3333333333333333,-3.635351914984753,26.406294226646423,10,0.8758408258408257,9,42.41295341781362,6
subject-04,1,263,1.1062490940094,bear,bottle,c01,c01_bottle_10_n02823428_8696.png,False,1.977357086423254,2.044139623641968,0.1428571428571428,-3.29739217284748,27.245378136634827,10,2.53228021978022,4,27.784072689312307,4
subject-04,1,264,0.544106006622314,bicycle,bicycle,c30,c30_bicycle_10_n03792782_2628.png,True,-0.9478318759177994,0.0663331747055053,1.0,-0.009112083671553542,26.671835064888,10,3.375,9,29.036194331153375,10
subject-04,1,265,0.836035966873169,bird,bicycle,c05,c05_bicycle_10_n03792782_5284.png,False,0.5712658710130308,1.237110614776611,1.0,-0.41492991489089265,26.853413224220276,10,3.1373015873015873,9,33.00555181899513,10
subject-04,1,266,0.637666940689087,chair,chair,c03,c03_chair_10_n04099969_3536.png,True,-0.4609746721575265,0.1875364780426025,1.0,-0.028343977024115063,25.84400486946106,10,1.471245421245421,10,43.93790397428697,10
subject-04,1,267,0.539533138275146,cat,knife,c03,c03_knife_10_n03041632_36390.png,False,-0.9716274260464157,2.3228063583374023,0.25,-2.3561677192775465,28.176228165626526,10,2.0496753246753245,8,38.470516295697955,6
subject-04,1,268,0.611276865005493,boat,keyboard,c05,c05_keyboard_10_n03085013_2227.png,False,-0.5982990648914316,0.0580403767526149,1.0,-0.00782311295544197,25.738799568265676,10,2.3798701298701297,9,39.54424649906891,10
subject-04,1,269,0.87316107749939,bottle,truck,c03,c03_truck_10_n04467665_276.png,False,0.7644514962855744,1.3414160013198853,1.0,-0.46338789295890287,26.747467279434204,10,1.3268731268731266,10,41.58501349750313,10
subject-04,1,270,0.546917915344238,cat,bird,c03,c03_bird_10_n02017213_689.png,False,-0.9331997216833411,1.1807811260223389,1.0,-0.5273104682631844,26.993760108947754,10,2.5257936507936503,10,34.81190548545028,10
subject-04,1,271,0.488617897033691,clock,clock,c100,c100_clock_10_n03196217_4947.png,True,-1.2365718948767865,0.0026866812258958,1.0,-0.0002303388733735994,23.024695875123143,10,10.75,2,13.771841560490207,10
subject-04,1,272,0.582541942596436,oven,airplane,c01,c01_airplane_10_n02690373_13591.png,False,-0.7478251904467581,1.6235952377319336,1.0,-0.8215693266493321,27.042178511619568,10,8.916666666666666,0,19.327395226206583,10
subject-04,1,273,0.600320816040039,cat,truck,c01,c01_truck_10_n03417042_17645.png,False,-0.6553103743314891,2.0097975730895996,0.0666666666666666,-4.887788051589407,27.278621435165405,10,0.2677822177822174,3,47.35114126003381,7
subject-04,1,274,0.644207954406738,chair,chair,c50,c50_chair_10_n04429376_15534.png,True,-0.4269376065799174,0.0136397285386919,1.0,-0.001853872091196788,26.332937757484615,10,2.6015984015984013,9,41.553089098280296,10
subject-04,1,275,0.459847927093506,cat,cat,c50,c50_cat_10_n02123597_13272.png,True,-1.3862803950863833,0.0031679384410381,1.0,-0.0002846526885350984,26.418470215052366,10,4.6650793650793645,7,30.200657458107727,9
subject-04,1,276,0.525893926620483,boat,boat,c30,c30_boat_10_n04612504_14669.png,True,-1.0426009420113662,0.0021685140673071,1.0,-0.00018109530759304548,26.45544705563225,10,4.294444444444444,9,22.4647436458193,10
subject-04,1,277,0.657710075378418,boat,boat,c50,c50_boat_10_n04273569_4380.png,True,-0.356677460861261,0.0022838958539068,1.0,-0.00020070897965861342,26.673469150904566,10,5.45,9,23.20892562844518,10
subject-04,1,278,0.755647897720337,clock,bottle,c01,c01_bottle_10_n04591713_5364.png,False,0.1529554837363994,2.1712212562561035,0.2,-2.6590424993848822,27.252492785453796,10,2.8435897435897437,4,26.561847564144873,4
subject-04,1,279,1.26543283462524,bird,airplane,c10,c10_airplane_10_n02690373_8804.png,False,2.8056916003243013,0.0016332438681274,1.0,-0.00013560976145208422,23.512689547846094,9,8.416666666666666,0,15.873444145771012,9
subject-04,1,280,0.831243991851807,knife,bottle,c01,c01_bottle_10_n04560804_24166.png,False,0.5463301691342496,2.098599910736084,0.1666666666666666,-3.4068828688500434,27.368048548698425,10,2.5714285714285716,4,28.06615494816214,4
subject-04,1,281,0.791056871414185,bicycle,boat,c01,c01_boat_10_n04273569_1288.png,False,0.3372109541692256,2.175687789916992,0.2,-2.9563776532041515,27.20279622077942,10,2.5761904761904764,6,28.794457380455214,5
subject-04,1,282,0.636662006378174,bear,dog,c50,c50_dog_10_n02105056_951.png,False,-0.4662039862238512,0.1087033152580261,1.0,-0.022794222578287747,26.9807111620903,10,2.138131313131313,10,34.92067508093914,10
subject-04,1,283,0.622524976730347,bear,bear,c30,c30_bear_10_n02134418_4717.png,True,-0.539767966665785,0.0005826891283504,1.0,-4.44660536027498e-05,27.025763267360162,10,4.15952380952381,6,26.70801504813835,10
subject-04,1,284,0.688353061676025,car,chair,c03,c03_chair_10_n04099969_27865.png,False,-0.19722246212140238,0.5773405432701111,1.0,-0.11639400558814736,26.38711327314377,10,1.4852314352314349,10,43.86079066465282,10
subject-04,1,285,1.49999284744263,car,oven,c05,c05_oven_10_n04111531_13822.png,False,4.026256925941374,1.261143445968628,1.0,-0.4241889006847789,27.054959297180176,10,1.0791666666666666,10,61.563799274070256,6
subject-04,1,286,0.774014949798584,keyboard,keyboard,c10,c10_keyboard_10_n03085013_16359.png,True,0.24853096836925653,0.0778499841690063,1.0,-0.011430734715619126,25.10889971256256,10,2.465451215451215,9,38.08218112271734,9
subject-04,1,287,0.695723056793213,chair,chair,c05,c05_chair_10_n02791124_3531.png,True,-0.15887167768053473,1.353428840637207,1.0,-0.40581481009302894,27.15802550315857,10,1.157392607392607,10,44.17193764052848,10
subject-04,1,288,0.813537120819092,car,car,c03,c03_car_10_n02814533_33602.png,True,0.45419002747877074,1.2709587812423706,1.0,-0.40038164508375806,26.729763865470886,10,2.4678571428571425,9,43.48063400740827,6
subject-04,1,289,0.68958592414856,bear,bear,c50,c50_bear_10_n02134084_7250.png,True,-0.19080709248036154,0.000493346073199,1.0,-3.7730451927371576e-05,26.455281315662432,10,4.226190476190476,6,26.326399136631064,9
subject-04,1,290,0.787398099899292,bottle,dog,c01,c01_dog_10_n02104365_1123.png,False,0.318172032778517,2.0608162879943848,0.0769230769230769,-4.374248072365128,27.360623121261597,10,0.3717754467754466,8,44.920852266606865,6
subject-04,1,291,0.516909122467041,boat,oven,c10,c10_oven_10_n04111531_14279.png,False,-1.0893546076316405,0.0229385644197464,1.0,-0.0028020621609686786,26.48813469707966,10,1.888095238095238,9,59.5717960373068,6
subject-04,1,292,0.656775951385498,bird,boat,c03,c03_boat_10_n04612504_15061.png,False,-0.3615383036873256,0.7968049645423889,1.0,-0.17829437082709715,26.342947781085968,10,4.366666666666667,9,23.855939512655393,10
subject-04,1,293,0.950814962387085,truck,truck,c10,c10_truck_10_n03417042_5604.png,True,1.1685341792412989,0.0951448753476142,1.0,-0.012825186474854647,26.557358868420124,10,2.6205128205128205,9,37.115590235172974,10
subject-04,1,294,0.578481912612915,boat,boat,c05,c05_boat_10_n04273569_7312.png,True,-0.7689521155322768,0.3529913425445556,1.0,-0.06756063582306425,26.221440315246582,10,4.916666666666666,9,23.0528004221812,10
subject-04,1,295,0.564206123352051,bird,bird,c100,c100_bird_10_n01616318_5417.png,True,-0.8432381507278521,0.1489435136318206,1.0,-0.020806397477904373,27.011562198400497,10,1.9007936507936507,10,32.469733635884545,10
subject-04,1,296,0.624009132385254,bottle,chair,c03,c03_chair_10_n04099969_3804.png,False,-0.5320449583471919,0.0122237596660852,1.0,-0.0012190616930631488,25.91291598416865,10,2.0728937728937726,9,43.081186748915236,10
subject-04,1,297,0.698366165161133,elephant,elephant,c50,c50_elephant_10_n02504458_4580.png,True,-0.1451178993319502,7.410986290778965e-05,1.0,-4.7683829507511625e-06,25.242631158660515,9,5.1254329004329,6,28.392612049140197,9
subject-04,1,298,0.605844974517822,clock,knife,c30,c30_knife_10_n03041632_7380.png,False,-0.6265646550155335,0.1237317472696304,1.0,-0.02407993492727405,25.735507622361183,10,2.3179292929292927,10,36.20560853358969,10
subject-04,1,299,0.703579902648926,cat,clock,c05,c05_clock_10_n02708093_4391.png,False,-0.1179874983823892,1.892625093460083,1.0,-0.8939765627993077,27.74690353870392,10,8.076923076923077,10,20.357755450675658,10
subject-04,1,300,0.691274166107178,bottle,bear,c01,c01_bear_10_n02133161_9134.png,False,-0.18202209297771765,2.06480073928833,0.1428571428571428,-3.5492982674976217,27.35614252090454,10,0.9023809523809521,9,40.66853608823064,5
subject-04,1,301,0.755189895629883,chair,chair,c05,c05_chair_10_n02791124_5995.png,True,0.15057220679181854,0.0283976569771766,1.0,-0.0033670661525508593,25.36238608509302,10,2.072100122100122,9,43.46549327277265,10
subject-04,1,302,0.828999042510986,boat,clock,c50,c50_clock_10_n02708093_7081.png,False,0.5346482661096866,0.095818430185318,1.0,-0.014841657355029719,26.90195980668068,10,8.833333333333332,2,21.089038442548098,10
subject-04,1,303,0.734782934188843,airplane,airplane,c50,c50_airplane_10_n02690373_1350.png,True,0.04438177289407863,0.0003963945200666,1.0,-2.99815857652723e-05,24.427890562801622,9,6.833333333333333,0,19.426849247323318,9
subject-04,1,304,0.762540102005005,bicycle,boat,c03,c03_boat_10_n03662601_18803.png,False,0.1888200177884348,0.5885732173919678,1.0,-0.13543790082552426,26.347195386886597,10,4.666666666666666,9,23.74159770107066,10
subject-04,1,305,0.828717947006226,elephant,elephant,c30,c30_elephant_10_n02504458_3409.png,True,0.5331855469438075,0.0006189806153997,1.0,-4.619466665800123e-05,26.973568485467695,10,5.15995670995671,6,30.626837690151916,10
subject-04,1,306,0.816304206848145,knife,knife,c10,c10_knife_10_n03041632_11741.png,True,0.4685889406587886,0.014824004843831,1.0,-0.0016505623451739467,25.167097659781575,10,3.763564213564213,8,34.56980806797213,10
subject-04,1,307,0.726216077804565,car,bear,c03,c03_bear_10_n02134084_3345.png,False,-0.00019704395792897634,0.0113427955657243,1.0,-0.0011759755739897237,25.802287371829152,10,2.9067460317460316,9,33.83059226383658,10
subject-04,1,308,0.759855031967163,bird,bicycle,c01,c01_bicycle_10_n02835271_1505.png,False,0.17484788611228785,2.229335069656372,0.1,-3.57905084575426,27.356356143951416,10,1.2623015873015873,9,37.114068040247886,6
subject-04,1,309,0.791574954986572,dog,dog,c10,c10_dog_10_n02109961_14816.png,True,0.3399068733782671,0.0106593631207942,1.0,-0.0011331896723376013,25.989301349967718,10,2.4944444444444445,10,34.87458959439262,10
subject-04,1,310,1.36331701278687,chair,truck,c30,c30_truck_10_n03796401_7699.png,False,3.315045400043022,0.6635547280311584,1.0,-0.2490749006677965,26.947751700878143,10,1.8376123876123875,10,38.147778287272565,10
subject-04,1,311,0.623247146606445,keyboard,keyboard,c50,c50_keyboard_10_n03085013_20682.png,True,-0.5360100562726926,0.0005814232281409,1.0,-4.434683901930954e-05,26.65222756046569,10,2.4062992562992562,9,36.8692114546367,10
subject-04,1,312,0.745133876800537,airplane,airplane,c05,c05_airplane_10_n02690373_6114.png,True,0.09824432809917986,0.0026289788074791,1.0,-0.00023701615373652145,24.857113775331527,10,7.916666666666666,0,18.4083550926357,9
subject-04,1,313,0.827240943908691,bear,bear,c15,c15_bear_10_n02134084_24140.png,True,0.5254997579424068,0.0977367460727691,1.0,-0.01563113758611922,26.14533033967018,10,3.1409090909090907,9,31.66745784787722,10
subject-04,1,314,0.83077597618103,keyboard,bottle,c15,c15_bottle_10_n04557648_2709.png,False,0.543894785145588,0.8459997177124023,0.5,-1.0127135668567324,26.079719305038452,10,3.9166666666666665,10,23.643499560038578,10
subject-04,1,315,0.762881994247437,bicycle,bicycle,c50,c50_bicycle_10_n03792782_4826.png,True,0.19059910115050305,0.0035256745759397,1.0,-0.00032471921566999055,25.744888961547986,10,4.866666666666667,7,26.032356456323615,9
subject-04,1,316,0.578465938568115,car,car,c100,c100_car_10_n03100240_15647.png,True,-0.7690352386740203,0.7924840450286865,1.0,-0.518521971193169,25.92021358013153,10,2.752355977355977,9,40.90465025736724,6
subject-04,1,317,0.692583084106445,chair,oven,c30,c30_oven_10_n04111531_10710.png,False,-0.17521095793047844,0.9470444917678832,0.5,-1.84171651756013,27.24257743358612,10,1.4970238095238093,9,59.45237859232177,6
subject-04,1,318,0.648299932479858,cat,cat,c50,c50_cat_10_n02123045_455.png,True,-0.4056444352109169,0.0017754134023562,1.0,-0.00015259953334155612,25.147190123447217,9,5.256746031746031,6,27.869932860116844,9
subject-04,1,319,0.706110954284668,boat,dog,c01,c01_dog_10_n02107908_12294.png,False,-0.10481682266990912,1.873751878738403,0.0909090909090909,-4.221082880264364,27.382930517196655,10,0.4182400932400931,8,44.43428161172317,6
subject-04,1,320,0.779545068740845,bicycle,chair,c03,c03_chair_10_n02791124_3245.png,False,0.2773077037828789,2.1870837211608887,0.1666666666666666,-2.6492974152895807,27.972848176956177,10,0.18956043956043897,10,48.30277341860413,7
subject-04,1,321,0.676772117614746,cat,knife,c03,c03_knife_10_n03041632_48151.png,False,-0.2574854992406606,2.234900951385498,1.0,-1.0651990629483366,27.922632098197937,10,3.6865440115440116,7,35.32171454133995,10
subject-04,1,322,0.63055682182312,chair,chair,c15,c15_chair_10_n04429376_16378.png,True,-0.4979731547401968,0.0001373859704472,1.0,-9.954025218745906e-06,26.173815068847034,10,2.37021312021312,9,42.22859507106206,10
subject-04,1,323,0.754589080810547,clock,clock,c30,c30_clock_10_n03196217_3877.png,True,0.14744578414718226,0.0008923398563638,1.0,-7.08724340296733e-05,24.631971179158427,10,9.833333333333332,2,15.739302143308745,10
subject-04,1,324,0.656200885772705,cat,cat,c100,c100_cat_10_n02123045_9845.png,True,-0.36453073679004894,0.0064637586474418,1.0,-0.0007310797232596726,24.338988296687603,9,5.517857142857142,6,25.040450657618845,9
subject-04,1,325,0.895961999893188,dog,dog,c10,c10_dog_10_n02092339_2268.png,True,0.8830992356494957,0.1977828592061996,1.0,-0.029298176155173977,26.80576477944851,10,2.5027777777777778,9,36.163179278300674,10
subject-04,1,326,0.563822031021118,bicycle,bicycle,c50,c50_bicycle_10_n03792782_66048.png,True,-0.8452368280613889,0.0886761099100112,1.0,-0.015360786180313005,26.153822675347328,10,3.5928571428571425,9,28.393346444838386,9
subject-04,1,327,0.81964111328125,bicycle,bicycle,c50,c50_bicycle_10_n02835271_3383.png,True,0.4859529927755805,0.000984935555607,1.0,-7.748904040615302e-05,26.244585065636784,10,4.866666666666667,7,27.701428855802707,9
subject-04,1,328,0.901407957077026,dog,dog,c10,c10_dog_10_n02105251_7686.png,True,0.9114380237640871,0.1248692125082016,1.0,-0.017049469859354533,26.677217826247215,10,2.498820623820624,9,37.206045476530164,10
subject-04,1,329,0.531280994415283,chair,chair,c30,c30_chair_10_n03376595_1024.png,True,-1.0145685929417048,0.0023349595721811,1.0,-0.00021060538574901405,26.701550371712074,10,1.9014652014652011,10,41.94184442781171,10
subject-04,1,330,0.551405191421509,cat,cat,c50,c50_cat_10_n02124075_10976.png,True,-0.9098495627171919,1.4881641864776611,1.0,-0.46218590925253183,27.86260986328125,10,5.197222222222222,6,31.584652780615187,10
subject-04,1,331,0.8590087890625,bird,cat,c05,c05_cat_10_n02123159_5487.png,False,0.6908081146336158,0.1745548099279403,1.0,-0.026525644277649568,25.640134319663048,10,4.162301587301587,8,32.022635473300596,10
subject-04,1,332,0.5748450756073,bicycle,bicycle,c100,c100_bicycle_10_n02835271_4887.png,True,-0.7878768976835746,0.0362733639776706,1.0,-0.00482253906958344,24.988921765238047,10,3.101623376623376,9,31.956462119887274,10
subject-04,1,333,0.796609163284302,truck,truck,c100,c100_truck_10_n04467665_27096.png,True,0.3661030694661595,0.0223377309739589,1.0,-0.003094090503721748,25.722855743020773,10,2.5747918747918748,9,40.146388862689,10
subject-04,1,334,0.582498073577881,cat,cat,c10,c10_cat_10_n02123159_4856.png,True,-0.7480534689255744,0.0232014916837215,1.0,-0.0026221051786286574,25.40530553087592,10,4.863492063492063,7,29.86955484915564,9
subject-04,1,335,0.77426290512085,bottle,knife,c10,c10_knife_10_n03041632_24646.png,False,0.2498212380321244,0.5649410486221313,1.0,-0.1409853664920823,26.57347571849823,10,2.83023088023088,10,35.941361578075615,10
subject-04,1,336,0.754073143005371,clock,boat,c01,c01_boat_10_n04273569_661.png,False,0.14476103073329552,2.1231393814086914,0.1428571428571428,-3.589215373066665,26.9053293466568,10,2.1845238095238093,1,30.790720946123272,5
subject-04,1,337,0.641691923141479,boat,cat,c01,c01_cat_10_n02123045_6066.png,False,-0.44003012172628336,1.9806814193725584,0.1428571428571428,-3.871506799681892,26.93248736858368,10,1.2789682539682539,8,40.079432279897425,6
subject-04,1,338,0.584131002426147,bird,bird,c50,c50_bird_10_n01560419_6583.png,True,-0.7395562988092639,0.0020491413306444,1.0,-0.000168158840816767,26.5836724571418,10,3.7019841269841267,8,31.04365875371989,10
subject-04,1,339,0.721503973007202,oven,cat,c03,c03_cat_10_n02124075_2751.png,False,-0.024717130127998765,0.3442465662956238,1.0,-0.0645445610931488,25.627684891223907,10,3.912301587301587,8,33.46966508586743,10
subject-04,1,340,0.81519889831543,bird,bottle,c10,c10_bottle_10_n03937543_2494.png,False,0.46283731550778356,0.0426070503890514,1.0,-0.005700473423029789,25.929107051342726,10,4.616666666666667,10,21.007737573549743,10
subject-04,1,341,0.983108997344971,boat,boat,c05,c05_boat_10_n03344393_5636.png,True,1.336580637034377,0.067297339439392,1.0,-0.00856438521504471,25.84391677379608,10,4.75,9,23.86886655218367,10
subject-04,1,342,1.50002717971802,bear,car,c05,c05_car_10_n02814533_4491.png,False,4.026435578663921,0.1597746312618255,1.0,-0.026948979254424833,25.826642125844955,10,3.052380952380952,8,42.17637687329388,6
subject-04,1,343,0.636723041534424,bear,bear,c15,c15_bear_10_n02132136_6352.png,True,-0.4658863813837612,0.0027731009759008,1.0,-0.00024351462118638338,26.415814692620188,10,4.042857142857143,9,27.43706926015388,10
subject-04,1,344,0.654640197753906,elephant,elephant,c100,c100_elephant_10_n02504458_8615.png,True,-0.3726519918026628,0.0782085061073303,1.0,-0.014680872249118434,26.52540546655655,10,5.144877344877345,6,31.055130690018064,10
subject-04,1,345,0.556364059448242,boat,boat,c50,c50_boat_10_n03662601_12226.png,True,-0.8840454101037901,0.0176291652023792,1.0,-0.0018884478167419368,26.47981931641698,10,5.783333333333333,9,22.05871008928411,10
subject-04,1,346,0.630035877227783,bottle,bottle,c15,c15_bottle_10_n03937543_3726.png,True,-0.5006839616761216,0.0851997882127761,1.0,-0.01211157887646899,26.31649287045002,10,5.658333333333333,10,21.565378940608525,10
subject-04,1,347,1.50011897087097,bottle,bicycle,c50,c50_bicycle_10_n03792782_15138.png,False,4.026913226567941,0.041397925466299,1.0,-0.005223302094189421,26.65450393781066,10,4.109523809523809,7,29.393310737282373,10
subject-04,1,348,0.97973108291626,car,clock,c01,c01_clock_10_n02708093_2318.png,False,1.3190031941656466,1.7904819250106812,0.5,-1.101514772654627,26.118871331214905,10,7.541666666666666,2,18.714729719486385,10
subject-04,1,349,0.561458110809326,chair,chair,c100,c100_chair_10_n04099969_28072.png,True,-0.857537812395343,0.004907738417387,1.0,-0.000473492168532661,25.70975936576724,10,2.4071428571428566,9,43.83226595650873,10
subject-04,1,350,0.635694026947021,cat,cat,c15,c15_cat_10_n02125311_17613.png,True,-0.4712410004846566,0.0005797812482342,1.0,-4.91750410120967e-05,26.389932818128727,10,5.3277777777777775,6,28.214833698410295,10
subject-04,1,351,0.625436782836914,clock,clock,c05,c05_clock_10_n04548280_2559.png,True,-0.5246159826344634,0.0386424660682678,1.0,-0.004396851880599995,25.45339685678482,10,9.083333333333332,2,18.560421377999376,10
subject-04,1,352,0.747035980224609,truck,truck,c10,c10_truck_10_n04467665_53339.png,True,0.10814218518604526,0.0051746140234172,1.0,-0.000518635272926771,26.15731308562681,10,2.968228993228993,9,36.08045098445047,10
subject-04,1,353,0.89703106880188,car,boat,c03,c03_boat_10_n02951358_15072.png,False,0.8886622829266996,2.0640981197357178,0.5,-1.4978814094317165,28.150778651237488,10,2.5861111111111112,10,27.148743526362605,10
subject-04,1,354,0.690753936767578,dog,dog,c15,c15_dog_10_n02090379_4952.png,True,-0.1847291779819238,0.0306313689798116,1.0,-0.0035194028114782275,26.12298304401338,10,2.6638888888888888,10,35.00741925490613,10
subject-04,1,355,0.54658317565918,boat,chair,c10,c10_chair_10_n02791124_880.png,False,-0.9349415857282061,1.227215051651001,1.0,-0.4674713995097584,27.68100666999817,10,1.8157509157509155,10,42.98691777441076,10
subject-04,1,356,0.67622709274292,chair,chair,c10,c10_chair_10_n04429376_4391.png,True,-0.26032161121115044,0.0479029193520545,1.0,-0.007299055329781715,26.090141631662846,10,2.276465201465201,9,42.66038098186836,10
subject-04,1,357,1.22011399269104,bird,bottle,c03,c03_bottle_10_n03983396_7378.png,False,2.5698687659136086,2.079046726226806,0.25,-3.0048915010946957,27.99628448486328,10,3.2666666666666666,4,27.12877144481056,4
subject-04,1,358,0.989974021911621,airplane,car,c01,c01_car_10_n03100240_17587.png,False,1.3723037376810574,1.8538085222244265,0.1,-4.376147175701601,27.34772038459778,10,0.26352813852813817,9,48.71286959743338,6
subject-04,1,359,0.832159996032715,bottle,truck,c30,c30_truck_10_n03796401_15097.png,False,0.5510967230234113,0.2439724951982498,1.0,-0.042142137348242785,26.92043586075306,10,2.1225330225330223,10,37.70040906154297,10
subject-04,1,360,0.803661108016968,knife,knife,c30,c30_knife_10_n03041632_44269.png,True,0.4027988349356179,0.0004869488766416,1.0,-3.6776742082504924e-05,25.855468609719537,10,3.538131313131313,8,35.42767367823736,10
subject-04,1,361,0.519454956054688,cat,cat,c10,c10_cat_10_n02125311_32129.png,True,-1.076107011996947,0.000377125601517,1.0,-2.9266308839066534e-05,25.929207987646805,10,5.395634920634921,6,28.802757204630193,10
subject-04,1,362,0.649528980255127,bird,car,c03,c03_car_10_n04285008_7950.png,False,-0.399248915872384,0.5537996888160706,1.0,-0.10715001678498727,25.66379088163376,10,2.2309523809523806,9,44.183622497373015,10
subject-04,1,363,0.747073173522949,bird,bird,c10,c10_bird_10_n01622779_684.png,True,0.10833572563547568,0.0012206067331135,1.0,-0.00010079653411515352,26.392802380491048,10,2.132936507936508,10,34.00712781609579,10
subject-04,1,364,0.736708164215088,truck,truck,c15,c15_truck_10_n03796401_14189.png,True,0.05439997243988495,0.0017668184591457,1.0,-0.00014580358994744627,26.007929700310342,10,4.262179487179488,7,35.491337175899346,10
subject-04,1,365,0.850543022155762,truck,truck,c15,c15_truck_10_n04467665_39477.png,True,0.6467553307980124,0.0080228671431541,1.0,-0.0008194823170802533,25.752253495156765,10,3.779279054279054,8,36.14995528505438,10
subject-04,1,366,0.838537931442261,bird,bird,c50,c50_bird_10_n02033041_6046.png,True,0.5842851881689078,0.0023953285999596,1.0,-0.00020422636578503118,26.745972093660384,10,3.942460317460317,8,29.971361041594463,10
subject-04,1,367,1.26623892784119,car,boat,c100,c100_boat_10_n02951358_3087.png,False,2.8098862173725614,0.6735360622406006,1.0,-0.1396388752974577,26.951557993888855,10,2.526165501165501,10,27.971310725992197,10
subject-04,1,368,0.742067098617554,truck,truck,c05,c05_truck_10_n04467665_70237.png,True,0.08228592552856742,1.8696069717407229,1.0,-1.054619029784946,27.854031562805176,10,1.7646936396936395,10,40.59240840084404,10
subject-04,1,369,0.635907888412476,bird,bird,c100,c100_bird_10_n02025239_10194.png,True,-0.4701281429004305,0.0022405530326068,1.0,-0.00018592416988180143,25.926628604065627,10,3.8134920634920633,8,30.48721781717539,10
subject-04,1,370,0.729942798614502,bottle,cat,c01,c01_cat_10_n02123045_7334.png,False,0.019195460946160967,2.1238551139831543,0.1111111111111111,-3.485720449289219,26.813575744628906,10,1.1805555555555556,8,40.198228739395404,6
subject-04,1,371,0.739317893981934,keyboard,keyboard,c05,c05_keyboard_10_n04505470_3207.png,True,0.06798006064154641,0.0204718261957168,1.0,-0.002217245664008652,25.52878274023533,10,2.262012987012987,9,39.33501992528991,10
subject-04,1,372,0.693377017974854,chair,chair,c100,c100_chair_10_n04099969_1490.png,True,-0.1710796137214915,0.0764896348118782,1.0,-0.011115046456386623,26.11070580035448,10,1.5849206349206346,10,44.63683330580976,10
subject-04,1,373,0.657037019729614,cat,clock,c01,c01_clock_10_n04548280_1325.png,False,-0.36017979860959815,2.1313092708587646,0.5,-1.5574530410303251,26.94392466545105,10,6.833333333333332,2,20.682659574400176,10
subject-04,1,374,0.814791917800903,dog,keyboard,c01,c01_keyboard_10_n04505470_763.png,False,0.4607195363592114,2.002413749694824,0.2,-2.971927009453194,26.399219036102295,10,0.8468004218004215,8,43.61943724262617,7
subject-04,1,375,0.850697040557861,dog,dog,c15,c15_dog_10_n02094114_8231.png,True,0.6475567867616735,0.0056148637086153,1.0,-0.0005178600108709398,25.856798516586423,10,2.994119769119769,10,33.087042863291536,10
subject-04,1,376,0.718700170516968,cat,cat,c15,c15_cat_10_n02123159_7607.png,True,-0.03930710246963036,0.0063927536830306,1.0,-0.000628847871829234,26.264469183050096,10,5.280555555555555,6,28.824791419526964,10
subject-04,1,377,0.74641489982605,car,bicycle,c01,c01_bicycle_10_n02835271_5437.png,False,0.10491030780935132,2.354175329208374,0.3333333333333333,-2.163466291961092,27.461516857147217,10,1.6134920634920633,9,36.466613122291605,6
subject-04,1,378,0.656291961669922,airplane,airplane,c03,c03_airplane_10_n02690373_13604.png,True,-0.364056810817726,0.0064336778596043,1.0,-0.0006080926229125183,25.018154454417527,10,8.416666666666666,0,18.597047594568767,10
subject-04,1,379,0.744064807891846,bird,bird,c50,c50_bird_10_n01616318_603.png,True,0.09268128082198117,0.0331528186798095,1.0,-0.004152623145049359,26.325517892837524,10,3.567460317460317,8,32.600943310596485,10
subject-04,1,380,0.858170032501221,chair,chair,c05,c05_chair_10_n02791124_4296.png,True,0.6864435293701936,0.1237142458558082,1.0,-0.017587580921830707,25.822756446897984,10,1.4776556776556773,10,44.20243121382787,10
subject-04,1,381,0.807760000228882,dog,bear,c100,c100_bear_10_n02134084_19791.png,False,0.4241279849779099,0.0003823956940323,1.0,-2.9623947238161268e-05,26.008636685321108,10,3.933333333333333,9,26.859451325561505,9
subject-04,1,382,0.649432897567749,bear,bicycle,c01,c01_bicycle_10_n03792782_19053.png,False,-0.3997488953667444,2.340167999267578,0.0833333333333333,-3.7300005944483767,27.476341128349304,4,1.075,9,38.17367474919497,7
subject-04,1,383,0.845157146453857,keyboard,keyboard,c03,c03_keyboard_10_n04505470_432.png,True,0.6187291849478811,0.1269411146640777,1.0,-0.01816543415949042,25.263119727373123,10,2.3556277056277053,9,40.20622094994191,10
subject-04,1,384,0.738924980163574,keyboard,keyboard,c50,c50_keyboard_10_n03085013_19161.png,True,0.06593547948346372,0.0004799849702976,1.0,-3.6657528415739155e-05,24.466653872223105,9,3.820609945609945,8,33.718552964455306,9
subject-04,1,385,0.686792135238647,bird,bird,c15,c15_bird_10_n02027492_4900.png,True,-0.20534495777792222,0.0097907297313213,1.0,-0.0009778152659486521,26.436442207545042,10,3.0615079365079363,9,32.941658372324255,10
subject-04,1,386,0.636599779129028,bird,bird,c10,c10_bird_10_n01843065_4020.png,True,-0.466527794283477,0.009644016623497,1.0,-0.0009315178841349947,26.50781439244747,10,3.0174603174603174,9,32.5670300870347,10
subject-04,1,387,1.12651205062866,car,clock,c50,c50_clock_10_n02708093_404.png,False,2.0827981714013926,1.282073974609375,1.0,-0.6068627178670714,26.99187707901001,10,8.333333333333332,10,19.579199078035465,10
subject-04,1,388,0.952260971069336,knife,keyboard,c03,c03_keyboard_10_n03085013_24306.png,False,1.1760586845348375,1.649051070213318,1.0,-0.6692082779078719,26.492407083511353,10,1.7765984015984013,10,40.266190564199746,10
subject-04,1,389,0.674166202545166,bicycle,bicycle,c50,c50_bicycle_10_n02835271_7958.png,True,-0.2710457371398141,0.0005544930463656,1.0,-4.184333605261104e-05,25.960138490772806,10,5.1,7,26.182024155648865,9
subject-04,1,390,0.700252056121826,bear,car,c01,c01_car_10_n04285008_4868.png,False,-0.13530440603073488,1.2542028427124023,1.0,-0.3421990743741905,26.350115299224854,10,2.2459706959706955,9,43.96314956889151,10
subject-04,1,391,0.747698068618774,chair,bottle,c01,c01_bottle_10_n03937543_986.png,False,0.11158745331467698,2.261427879333496,0.2,-2.8984762086655658,27.080618858337402,10,2.506089743589744,4,28.233962633896873,4
subject-04,1,392,0.757629156112671,bird,dog,c05,c05_dog_10_n02108422_4529.png,False,0.16326523460025766,0.2100928872823715,1.0,-0.030726389963690093,26.41379152238369,10,3.17979797979798,8,37.02631791174951,10
subject-04,1,393,0.687461137771606,chair,chair,c15,c15_chair_10_n03376595_9482.png,True,-0.20186371097599848,0.0617987141013145,1.0,-0.008002566412308685,26.408620737493038,10,2.1785103785103783,9,42.632616042098995,10
subject-04,1,394,0.887123107910156,elephant,cat,c05,c05_cat_10_n02123159_6590.png,False,0.8371048441000604,0.0354472249746322,1.0,-0.004562578283811581,25.89159618318081,10,4.423412698412698,7,31.21163252924054,9
subject-04,1,395,1.41886687278748,bird,knife,c01,c01_knife_10_n03041632_50332.png,False,3.604106745773818,2.0998964309692383,1.0,-1.2119602097710818,26.785157561302185,10,2.8619769119769116,10,37.075185242006086,10
subject-04,1,396,0.615139961242676,dog,dog,c100,c100_dog_10_n02104029_4704.png,True,-0.5781969116727662,0.0051419483497738,1.0,-0.0005180985529778043,26.102938865311444,10,2.676923076923077,10,33.612243750534894,10
subject-04,1,397,0.656617164611816,bear,airplane,c03,c03_airplane_10_n02690373_12929.png,False,-0.3623645725291245,0.0020439117215573,1.0,-0.00017262995096223682,24.28712243726477,10,8.416666666666666,0,15.905932030524584,9
subject-04,1,398,1.32642793655396,bear,bear,c15,c15_bear_10_n02134084_1689.png,True,3.1230880122380165,0.0002993959933519,1.0,-2.2769233521229397e-05,25.52003294415772,10,5.042857142857143,6,26.878125037233396,9
subject-04,1,399,0.59620213508606,cat,oven,c30,c30_oven_10_n04111531_4331.png,False,-0.6767424978180266,0.2594711184501648,1.0,-0.045853488903471365,27.453162372112274,10,1.4880952380952381,10,57.399174278480686,6
subject-04,1,400,0.763932943344116,bicycle,bicycle,c05,c05_bicycle_10_n03792782_19774.png,True,0.19606785949079886,1.3338028192520142,1.0,-0.4120712268347431,27.312214255332947,10,2.966666666666667,9,32.772532250168844,10
subject-04,1,401,0.813377141952515,airplane,airplane,c30,c30_airplane_10_n02690373_5247.png,True,0.4533575554174417,0.0004179765237495,1.0,-3.129292812575923e-05,25.511737852240913,10,7.416666666666666,0,19.15780721233411,9
subject-04,1,402,0.629424095153809,bottle,bottle,c50,c50_bottle_10_n04557648_10265.png,True,-0.5038674539404575,0.0015099537558853,1.0,-0.00012571409751722384,25.87444167258218,10,9.083333333333332,1,18.239547642958133,10
subject-04,1,403,0.743067026138306,chair,cat,c01,c01_cat_10_n02124075_13792.png,False,0.08748918607285401,2.166558265686035,0.1111111111111111,-3.8288968275611164,27.006970643997192,10,1.1305555555555555,8,40.469159464095945,6
subject-04,1,404,0.598814010620117,bird,bicycle,c03,c03_bicycle_10_n02835271_3832.png,False,-0.6631512438212109,0.2461882978677749,1.0,-0.04014957974193479,25.69433332979679,10,2.937301587301587,9,32.85047458262487,10
subject-04,1,405,0.61891508102417,bottle,bottle,c30,c30_bottle_10_n02823428_4468.png,True,-0.558552556055639,0.0097812991589307,1.0,-0.0010032320080416764,25.025695024058223,10,7.333333333333333,6,18.537868348266418,10
subject-04,1,406,0.700549125671387,dog,dog,c10,c10_dog_10_n02108422_9533.png,True,-0.13375856372310654,0.0724512413144111,1.0,-0.009220299825215036,26.667368300259113,10,2.940079365079365,9,35.344140304560156,10
subject-04,1,407,0.454463005065918,clock,clock,c15,c15_clock_10_n02708093_118.png,True,-1.4143015783608848,0.0035656685940921,1.0,-0.00033372248060570026,25.69013166381046,10,9.833333333333332,2,17.65763528135448,10
subject-04,1,408,0.80604100227356,bottle,dog,c100,c100_dog_10_n02107312_7422.png,False,0.415182942411315,1.261859655380249,1.0,-0.5383173746797459,27.658629298210144,10,2.035064935064935,10,37.142064222527246,10
subject-04,1,409,1.31019401550293,chair,knife,c10,c10_knife_10_n03041632_31037.png,False,3.038612568637498,0.0001664035662543,1.0,-1.1801789306479821e-05,25.92304276159848,10,3.8135642135642134,8,33.22351086827661,10
subject-04,1,410,0.681824922561646,airplane,airplane,c50,c50_airplane_10_n02690373_4964.png,True,-0.2311925329280527,0.0002679985773283,1.0,-1.9431302983322368e-05,23.825623051525326,9,8.25,0,18.367004153997083,9
subject-04,1,411,0.727481126785278,bird,bottle,c05,c05_bottle_10_n03937543_6014.png,False,0.00638581261049902,0.1066733598709106,1.0,-0.01476597988053301,25.351890802383423,10,5.666666666666666,9,21.057771401793886,10
subject-04,1,412,0.591254949569702,bottle,elephant,c50,c50_elephant_10_n02504013_4278.png,False,-0.7024858588800101,1.5285041332244873,0.5,-1.3011310837642756,28.730527639389038,10,4.061147186147186,6,33.64947241292999,6
subject-04,1,413,0.60361385345459,bicycle,chair,c03,c03_chair_10_n02791124_5868.png,False,-0.6381746006935084,2.109029769897461,1.0,-1.0781888158117323,27.91720736026764,10,1.0617216117216113,10,45.17936857184209,10
subject-04,1,414,0.633310079574585,boat,chair,c03,c03_chair_10_n04099969_2610.png,False,-0.4836461989067624,0.1228919550776481,1.0,-0.017001573634337772,25.339814595878124,10,1.3359640359640355,10,43.894159144682824,10
subject-04,1,415,0.586845874786377,keyboard,keyboard,c100,c100_keyboard_10_n04505470_375.png,True,-0.7254290866447906,0.0005280834157019,1.0,-4.1128050641699645e-05,22.17278449353762,9,3.303246753246753,9,34.60037473298716,9
subject-04,1,416,0.638542175292969,bird,bird,c15,c15_bird_10_n02009229_6149.png,True,-0.45642026837639194,0.0408346280455589,1.0,-0.004737674594715103,26.102401934564114,10,2.216269841269841,10,34.58520798555427,10
subject-04,1,417,0.726433038711548,bird,bird,c15,c15_bird_10_n02009229_4224.png,True,0.0009319419970812531,0.208755075931549,1.0,-0.03360584126560448,27.046415865421295,10,2.0107142857142857,10,33.94384956607962,10
subject-04,1,418,0.574172973632812,boat,boat,c100,c100_boat_10_n03344393_646.png,True,-0.7913742728562881,0.1553825736045837,1.0,-0.02585565373953034,25.636261761188507,10,3.474242424242424,9,27.204129925399354,10
subject-04,1,419,0.648283004760742,airplane,airplane,c05,c05_airplane_10_n02690373_4945.png,True,-0.40573252092828443,0.0011830884031951,1.0,-9.704107002678116e-05,23.578592236619443,9,8.416666666666666,0,16.128410703769774,9
subject-04,1,420,0.598027944564819,clock,clock,c50,c50_clock_10_n02708093_616.png,True,-0.6672416467812766,0.4758193492889404,1.0,-0.1858694557760195,26.725135326385498,10,9.333333333333332,3,19.029885337202725,10
subject-04,1,421,0.723866939544678,chair,keyboard,c10,c10_keyboard_10_n03085013_30073.png,False,-0.012421108369669828,0.0212876237928867,1.0,-0.0026927453404824594,23.380771581083536,10,2.6856893106893107,9,40.017082336022625,10
subject-04,1,422,0.557394981384277,bird,bird,c100,c100_bird_10_n01530575_34173.png,True,-0.878680865851646,0.0421704389154911,1.0,-0.005205267302319267,26.1711644269526,10,2.432539682539682,10,31.401131158489317,10
subject-04,1,423,0.499342918395996,boat,boat,c100,c100_boat_10_n03662601_11901.png,True,-1.1807627693822242,0.0533362850546836,1.0,-0.006505444291776435,26.51566042751074,10,3.4166666666666665,10,25.51691226892995,10
subject-04,1,424,0.909195184707642,truck,truck,c30,c30_truck_10_n03417042_3659.png,True,0.9519599350415084,0.0006589142140001,1.0,-4.971150933939266e-05,26.157118007307872,10,3.5244810744810744,8,36.91238886408379,10
subject-04,1,425,0.685073137283325,bicycle,knife,c01,c01_knife_10_n03041632_18126.png,False,-0.21429000034451767,2.246084690093994,1.0,-1.5014752130521007,27.48765516281128,10,3.088167388167388,7,36.89303451542848,10
subject-04,1,426,0.660942792892456,airplane,airplane,c100,c100_airplane_10_n02690373_139.png,True,-0.33985557013165163,0.0005307243554852,1.0,-4.148569328303465e-05,24.09092247945955,10,6.333333333333333,0,21.040536802615545,9
subject-04,1,427,0.884767055511475,elephant,elephant,c10,c10_elephant_10_n02504458_4997.png,True,0.8248448010150281,0.0009742017718963,1.0,-7.576037325423888e-05,26.342514061543625,10,3.7404151404151404,8,35.428012243812844,10
subject-04,1,428,0.630226850509644,truck,truck,c30,c30_truck_10_n03417042_26885.png,True,-0.49969020590693036,0.0025423020124435,1.0,-0.0002219923356188735,26.072860285639763,10,4.1503108003108,7,36.15485065284867,10
subject-04,1,429,0.628130912780762,bicycle,bicycle,c100,c100_bicycle_10_n02835271_22549.png,True,-0.5105967064898645,0.2931158244609833,1.0,-0.0724102781982629,25.4401613175869,10,2.9754329004329003,9,31.40310139393994,10
subject-04,1,430,0.679917097091675,bear,bear,c10,c10_bear_10_n02133161_12045.png,True,-0.24112016546867884,0.0014786695828661,1.0,-0.00012553526111815452,26.255681989132427,10,2.58015873015873,10,31.10732549772016,10
subject-04,1,431,0.739863872528076,bottle,chair,c01,c01_chair_10_n03376595_9603.png,False,0.07082113518766033,1.9760754108428955,0.125,-4.10518102288717,27.43167543411255,10,0.15338827838827787,10,49.491305831476744,7
subject-04,1,432,0.751612901687622,bicycle,bicycle,c10,c10_bicycle_10_n02835271_19143.png,True,0.1319588262610749,0.0115644987672567,1.0,-0.0012422764519933918,26.05486155115068,10,3.6428571428571423,9,29.659932131197728,10
subject-04,1,433,0.763438940048218,chair,chair,c50,c50_chair_10_n04099969_48172.png,True,0.19349724531632292,0.0072809755802154,1.0,-0.0007786204977590307,26.301998406648636,10,2.3126373626373624,9,41.91261056270521,10
subject-04,1,434,0.745350122451782,bear,bear,c100,c100_bear_10_n02132136_10833.png,True,0.09936959212246683,0.8385273218154907,1.0,-0.35314867372647213,26.637309074401855,10,1.8246031746031743,10,34.04759722313474,10
subject-04,1,435,0.61513090133667,chair,chair,c10,c10_chair_10_n04429376_56624.png,True,-0.5782440561412175,1.8450398445129397,0.5,-1.2159547605228636,28.108772039413452,10,1.119322344322344,9,43.80890269000321,10
subject-04,1,436,0.546737909317017,bear,bear,c50,c50_bear_10_n02132136_27823.png,True,-0.9341364078328211,0.0086942687630653,1.0,-0.00102268281510162,26.7764488235116,10,3.8761904761904757,9,26.681946165991636,10
subject-04,1,437,0.800879955291748,bicycle,bicycle,c15,c15_bicycle_10_n03792782_7331.png,True,0.38832672376511057,0.0080383364111185,1.0,-0.000791564864214234,26.70686703361571,10,3.0095238095238095,9,30.41365409849145,10
subject-04,1,438,0.563024044036865,cat,cat,c15,c15_cat_10_n02125311_24985.png,True,-0.8493892632167845,0.0175373628735542,1.0,-0.0019650680625059756,26.31030059605837,10,5.153968253968253,6,30.443484817686212,10
subject-04,1,439,0.566341161727905,cat,cat,c100,c100_cat_10_n02123045_9583.png,True,-0.8321281845442382,0.0198600403964519,1.0,-0.002425928601512609,23.938666056841612,9,4.840079365079365,7,27.884458613877417,9
subject-04,1,440,0.70202898979187,keyboard,keyboard,c03,c03_keyboard_10_n03085013_29941.png,True,-0.12605788699483353,0.8365576863288879,1.0,-0.21244847873989153,26.09083777666092,10,2.2889360639360636,9,40.432362271775126,10
subject-04,1,441,0.550331115722656,oven,oven,c50,c50_oven_10_n04111531_4963.png,True,-0.9154386635164338,2.795575164782349e-05,1.0,-1.7881409418737575e-06,26.553859771471252,10,2.0,9,55.49460625232318,6
subject-04,1,442,0.585752964019775,airplane,airplane,c30,c30_airplane_10_n02690373_8789.png,True,-0.7311161983126541,0.000192188337678,1.0,-1.3411135003220889e-05,24.93295457275235,10,8.083333333333332,0,18.58087431243049,9
subject-04,1,443,0.643516063690186,elephant,elephant,c30,c30_elephant_10_n02504013_5237.png,True,-0.4305379551968708,0.0541836470365524,1.0,-0.008425523861090493,26.862375423312187,10,3.0582473082473083,10,32.87748322154891,10
subject-04,1,444,0.765239953994751,bottle,bird,c01,c01_bird_10_n02017213_2183.png,False,0.2028690693867893,2.09919810295105,0.3333333333333333,-2.3522277731571863,27.19993031024933,10,1.1079365079365076,10,38.95739338736326,6
subject-04,1,445,0.571316003799438,bicycle,bicycle,c30,c30_bicycle_10_n03792782_19253.png,True,-0.806240908789093,0.0055546630173921,1.0,-0.0005278788283570409,27.206285702064633,10,4.2595238095238095,8,27.64400205196145,10
subject-04,1,446,0.756922006607056,car,truck,c50,c50_truck_10_n03796401_296.png,False,0.15958548477327883,0.6435896158218384,0.5,-1.591894356911807,26.12708306312561,10,1.6354700854700854,8,41.79656032736711,6
subject-04,1,447,0.820751905441284,elephant,elephant,c30,c30_elephant_10_n02504458_5055.png,True,0.4917331527364356,0.0006475916015915,1.0,-4.977111694905509e-05,26.406886385928374,10,5.051923076923076,6,30.97735515585665,10
subject-04,1,448,1.3027400970459,bear,bear,c30,c30_bear_10_n02134418_76.png,True,2.9998250775415167,0.0013620276004076,1.0,-0.00011039389530586509,26.178699435666203,10,3.7928571428571427,9,27.838194579205975,10
subject-04,1,449,0.722665071487427,oven,oven,c50,c50_oven_10_n04111531_8658.png,True,-0.018675194302847857,0.3327900171279907,1.0,-0.06213687655295425,26.17968463897705,10,1.5220238095238094,10,56.59916048149739,6
subject-04,1,450,0.634269952774048,oven,oven,c100,c100_oven_10_n04111531_2350.png,True,-0.4786513665387843,1.5994081497192385,0.5,-1.4416272233403433,26.338868260383606,10,0.889520202020202,9,56.97475177862656,6
subject-04,1,451,0.743991136550903,bear,bear,c10,c10_bear_10_n02133161_14945.png,True,0.09229792185483786,0.714890718460083,1.0,-0.44173504517153234,27.082430601119995,10,3.878571428571428,8,31.375494399679397,10
subject-04,1,452,0.630248785018921,bottle,bottle,c100,c100_bottle_10_n04560804_23390.png,True,-0.49957606666752474,0.0023373709991574,1.0,-0.00020035128006738503,25.697865639813244,10,8.333333333333332,9,19.177678370244053,10
subject-04,1,453,0.467576026916504,clock,clock,c100,c100_clock_10_n03196217_9197.png,True,-1.3460661634978035,0.0588411912322044,1.0,-0.008074128479168169,24.462721548974514,10,9.75,3,15.658015273858663,10
subject-04,1,454,0.527855157852173,oven,oven,c100,c100_oven_10_n04111531_6536.png,True,-1.0323954052356596,0.0002121743018506,1.0,-1.627220041510569e-05,25.79900882804941,10,1.9464285714285714,9,56.36580662950732,6
subject-04,1,455,0.539236068725586,cat,cat,c50,c50_cat_10_n02123159_6132.png,True,-0.9731732683540383,0.0216973461210727,1.0,-0.0024658420085448543,26.13757211342454,10,5.451190476190476,6,26.66852794714114,9
subject-04,1,456,0.591495990753174,boat,boat,c100,c100_boat_10_n03344393_1131.png,True,-0.7012315678904343,1.3341867923736572,0.3333333333333333,-2.16636056824612,26.632017970085144,10,1.8642857142857143,10,31.70491091811208,10
subject-04,1,457,0.815126895904541,car,cat,c01,c01_cat_10_n02123597_23389.png,False,0.46246264104798823,2.186800003051758,1.0,-1.2128086360134296,27.31471621990204,10,2.4944444444444445,10,36.68949706507966,10
subject-04,1,458,0.59895396232605,bottle,knife,c01,c01_knife_10_n03041632_8666.png,False,-0.6624229858480336,2.172210693359375,1.0,-1.3615064089031945,27.35597586631775,10,3.338167388167388,7,36.58606480555683,10
subject-04,1,459,0.61261510848999,oven,oven,c05,c05_oven_10_n04111531_9297.png,True,-0.591335330643678,1.5869717597961426,0.5,-1.1459525962037571,27.53074312210083,10,0.4700757575757575,10,62.272349580797965,6
subject-04,1,460,1.48464512825012,clock,chair,c50,c50_chair_10_n03376595_13018.png,False,3.9463929557416915,0.7215752005577087,0.5,-0.8553417451066737,26.408381283283234,10,0.989880952380952,9,48.22133297580981,10
