subject_id,session,trial,rt,object_response,category,condition,item_id,response_correct,rt_zscore,output_entropy,output_rank_correct,output_logprob_correct,auc_entropy,layer_biggest_change_entropy,auc_rank_correct,layer_biggest_change_rank_correct,auc_logprob_correct,layer_biggest_change_logprob_correct
subject-02,1,1,0.6699538230896,boat,bicycle,0,0_bicycle_00_bicycle-0033-ILSVRC2012-val-00031498.png,False,-1.1057029652015276,0.9060495495796204,0.5,-2.4002095807815347,28.147240459918976,10,1.719047619047619,10,31.504675684543344,6
subject-02,1,2,0.882771015167236,bottle,bottle,0,0_bottle_00_bottle-0003-ILSVRC2012-val-00003622.png,True,-0.00923445536228599,1.6156210899353027,1.0,-0.7339836640808997,28.524044275283813,10,5.486111111111111,10,23.39072335774674,10
subject-02,1,3,0.998857021331787,boat,knife,0,0_knife_00_knife-0033-ILSVRC2012-val-00028494.png,False,0.588859377893444,1.907640814781189,0.0625,-5.251477709782263,28.426350474357605,10,0.3825757575757574,7,44.914719685604695,7
subject-02,1,4,1.34678316116333,boat,chair,0,0_chair_00_chair-0116-ILSVRC2012-val-00017447.png,False,2.3814309852476265,0.074213221669197,1.0,-0.010335927432335216,26.34954996407032,10,1.4888278388278384,10,44.15798242625366,10
subject-02,1,5,0.752362966537476,bear,elephant,0,0_elephant_00_elephant-0029-ILSVRC2012-val-00027259.png,False,-0.6811177621392778,0.0014166908804327,1.0,-0.00012505836421003216,26.453985698753968,10,4.678968253968254,6,30.523236723523578,10
subject-02,1,6,0.74207592010498,boat,chair,0,0_chair_00_chair-0124-ILSVRC2012-val-00022208.png,False,-0.7341182850874954,2.045717239379883,0.0769230769230769,-4.6472250518533205,28.315082788467407,10,0.07870879120879078,8,55.395349101462266,7
subject-02,1,7,0.905914068222046,chair,chair,0,0_chair_00_chair-0127-ILSVRC2012-val-00024620.png,True,0.11000228791210599,0.0305748507380485,1.0,-0.004626169910145255,27.176977209746838,10,1.5462662337662332,10,44.25721439483113,10
subject-02,1,8,0.967644214630127,clock,bottle,0,0_bottle_00_bottle-0214-ILSVRC2012-val-00012572.png,False,0.4280459618439334,1.4565749168395996,0.5,-1.55387005199586,28.51800012588501,10,6.565018315018314,1,24.064128741935782,10
subject-02,1,9,1.09962797164917,bird,keyboard,0,0_keyboard_00_keyboard-0005-ILSVRC2012-val-00001687.png,False,1.1080475724697423,2.003546953201294,0.25,-2.2838343728158677,28.12162947654724,10,1.0543040293040291,9,44.53717426045311,7
subject-02,1,10,1.12935304641724,car,bird,0,0_bird_00_bird-0486-ILSVRC2012-val-00037420.png,False,1.2611959535644244,0.1423663347959518,0.0833333333333333,-10.357425874103857,26.589482948184013,10,0.5936868686868683,0,45.828958600500954,0
subject-02,1,11,1.179123878479,knife,boat,0,0_boat_00_boat-0225-ILSVRC2012-val-00022075.png,False,1.5176233104497128,2.1038331985473633,0.0909090909090909,-4.502256128668737,28.739623546600342,10,1.5678321678321676,3,32.97164239045681,3
subject-02,1,12,1.09898710250854,oven,bicycle,0,0_bicycle_00_bicycle-0064-ILSVRC2012-val-00017103.png,False,1.1047457112583978,1.1514617204666138,0.0666666666666666,-7.333414559319551,26.788799285888672,10,0.8781746031746029,3,41.33746469733693,1
subject-02,1,13,0.753203868865967,cat,cat,0,0_cat_00_cat-0247-ILSVRC2012-val-00044374.png,True,-0.6767852976704086,0.050692643970251,1.0,-0.006613018716297757,26.347691860049963,10,4.40952380952381,7,31.609675480392628,10
subject-02,1,14,1.02064895629883,elephant,chair,0,0_chair_00_chair-0170-ILSVRC2012-val-00022051.png,False,0.7011349427881757,1.6760419607162476,0.125,-4.407589041125728,27.585217118263245,10,0.2452131202131199,10,49.15054224358228,7
subject-02,1,15,1.01691699028015,dog,dog,0,0_dog_00_dog-1734-ILSVRC2012-val-00031377.png,True,0.6819072517387615,1.8225576877593992,0.1111111111111111,-4.5203101007114705,27.90696942806244,10,0.5470959595959595,9,43.28267723964393,6
subject-02,1,16,0.694452047348022,boat,boat,0,0_boat_00_boat-0243-ILSVRC2012-val-00039131.png,True,-0.9794841612407067,0.7599918842315674,0.25,-4.1806730612026985,26.83773899078369,10,2.428210678210678,3,29.15069388436013,3
subject-02,1,17,0.912500858306885,bear,chair,0,0_chair_00_chair-0047-ILSVRC2012-val-00045407.png,False,0.1439384931521066,0.4982126951217651,0.3333333333333333,-4.138606554838175,26.074810028076172,10,0.455372405372405,10,48.78169003520482,6
subject-02,1,18,0.945769071578979,oven,knife,0,0_knife_00_knife-0034-ILSVRC2012-val-00029248.png,False,0.3153416954749716,1.371421217918396,1.0,-0.4606864741671818,28.370792984962463,10,2.281060606060606,10,35.55658753440208,10
subject-02,1,19,0.841678142547607,car,car,0,0_car_00_car-0005-ILSVRC2012-val-00006220.png,True,-0.22095156508630465,0.0565021522343158,1.0,-0.010001379362046028,26.64940457418561,10,2.284065934065934,9,40.75986148600921,9
subject-02,1,20,1.02745699882507,bear,chair,0,0_chair_00_chair-0098-ILSVRC2012-val-00044181.png,False,0.7362110763034858,2.47054672241211,0.0625,-4.575393386450189,29.381717920303345,4,0.04285714285714237,5,52.386327448998195,5
subject-02,1,21,0.799660921096802,clock,clock,0,0_clock_00_clock-0048-ILSVRC2012-val-00044752.png,True,-0.4374310691244135,0.0157156791538,1.0,-0.0017674678622441977,26.780724128708243,10,9.116666666666665,10,19.606693438413604,10
subject-02,1,22,1.03111386299133,oven,truck,0,0_truck_00_truck-0028-ILSVRC2012-val-00028536.png,False,0.7550518304921836,2.2883503437042236,0.2,-2.4769509113324224,28.773682117462158,10,0.38755133755133736,10,45.603559001377505,5
subject-02,1,23,0.687018871307373,boat,elephant,0,0_elephant_00_elephant-0081-ILSVRC2012-val-00032404.png,False,-1.017781083482261,1.4501508474349976,0.3333333333333333,-2.540325693830605,27.404892802238464,10,3.152777777777778,8,37.694844464163694,5
subject-02,1,24,0.888767957687378,oven,oven,0,0_oven_00_oven-0018-ILSVRC2012-val-00017795.png,True,0.021662760057476717,2.1585121154785156,0.5,-1.7500821467879,28.998904705047607,10,0.4416666666666666,10,62.22627595671459,6
subject-02,1,25,0.716544151306152,keyboard,keyboard,0,0_keyboard_00_keyboard-0074-ILSVRC2012-val-00020967.png,True,-0.8656620772741646,1.2896852493286133,0.25,-3.487506082592004,27.504822731018066,10,0.8154512154512152,9,43.43130266766289,7
subject-02,1,26,1.07050204277039,car,clock,0,0_clock_00_clock-0076-ILSVRC2012-val-00028203.png,False,0.9579860876638088,1.048861026763916,0.5,-2.397894095607329,27.766966342926025,10,5.167261904761904,5,25.352852223439044,10
subject-02,1,27,1.10799384117126,clock,knife,0,0_knife_00_knife-0010-ILSVRC2012-val-00009160.png,False,1.1511498820098913,1.3599933385849,0.2,-3.915482628885164,27.39037048816681,10,2.0397546897546897,8,37.91721665495497,0
subject-02,1,28,0.645861864089966,boat,boat,0,0_boat_00_boat-0236-ILSVRC2012-val-00032584.png,True,-1.229828625001607,1.7072703838348389,0.0666666666666666,-5.550749403245356,27.585479974746704,10,1.695833333333333,3,34.09854349499035,3
subject-02,1,29,1.37190508842468,bottle,cat,0,0_cat_00_cat-0260-ILSVRC2012-val-00006612.png,False,2.51086320770874,2.0036380290985107,1.0,-1.0072337150648238,27.026877760887146,4,3.7706349206349206,8,33.139536793969135,6
subject-02,1,30,0.783740043640137,cat,cat,0,0_cat_00_cat-0274-ILSVRC2012-val-00019370.png,True,-0.5194579984801693,2.048643112182617,0.0625,-6.885193228757135,27.801626443862915,10,0.8359126984126983,9,44.43456769947902,6
subject-02,1,31,0.711482048034668,oven,oven,0,0_oven_00_oven-0031-ILSVRC2012-val-00029125.png,True,-0.8917428500564295,1.432159662246704,1.0,-0.7089049834897361,28.13713836669922,10,0.9879329004329003,10,57.74373771830485,10
subject-02,1,32,0.925283908843994,airplane,airplane,0,0_airplane_00_airplane-0022-ILSVRC2012-val-00023781.png,True,0.20979883195645724,2.051133632659912,1.0,-1.035731632338674,28.477441549301147,10,5.833333333333333,0,23.169266179338535,10
subject-02,1,33,1.23299503326416,bottle,chair,0,0_chair_00_chair-0058-ILSVRC2012-val-00005926.png,False,1.7951761915583757,1.7426544427871704,1.0,-0.649173115580456,27.94815170764923,10,1.250396825396825,10,46.10265207008968,10
subject-02,1,34,1.39684081077576,car,oven,0,0_oven_00_oven-0029-ILSVRC2012-val-00028472.png,False,2.6393360724295545,1.0340945720672607,0.0833333333333333,-6.1821634966662335,25.98364818096161,10,0.0627747252747251,7,63.04955870131177,6
subject-02,1,35,0.716651916503906,bicycle,bicycle,0,0_bicycle_00_bicycle-0018-ILSVRC2012-val-00018975.png,True,-0.8651068535883321,0.3452955186367035,1.0,-0.08222858197496588,26.95598754286766,10,2.9857864357864354,9,30.357439441715194,10
subject-02,1,36,1.41264200210571,knife,bottle,0,0_bottle_00_bottle-0002-ILSVRC2012-val-00002968.png,False,2.7207463595501307,0.7468745112419128,0.1428571428571428,-4.595607436259458,27.577267825603485,10,5.447619047619048,1,27.876967752791103,4
subject-02,1,37,1.32428812980652,elephant,elephant,0,0_elephant_00_elephant-0055-ILSVRC2012-val-00003538.png,True,2.2655329543141547,1.4812403917312622,0.2,-3.2483364900837524,27.73115384578705,10,2.826190476190476,8,36.994661189395366,6
subject-02,1,38,1.40063691139221,bird,clock,0,0_clock_00_clock-0007-ILSVRC2012-val-00005490.png,False,2.6588941952742555,2.142634391784668,0.5,-1.7006341301503858,29.032230854034424,10,4.088095238095238,10,25.52758476203906,10
subject-02,1,39,1.19574594497681,dog,truck,0,0_truck_00_truck-0184-ILSVRC2012-val-00032494.png,False,1.6032628788763739,2.191844940185547,0.1,-3.715527290035446,29.363297700881958,10,0.3486013986013984,8,45.15289733762947,7
subject-02,1,40,0.627651929855347,boat,chair,0,0_chair_00_chair-0196-ILSVRC2012-val-00045844.png,False,-1.323649144197347,2.166126251220703,0.125,-3.6210336461882098,28.679147720336914,10,0.13376623376623326,10,52.969691481508654,7
subject-02,1,41,0.77352499961853,boat,airplane,0,0_airplane_00_airplane-0026-ILSVRC2012-val-00026189.png,False,-0.5720875533905063,1.8319159746170044,0.0666666666666666,-6.435995710001767,29.049391388893127,10,2.759523809523809,3,32.16892219238224,5
subject-02,1,42,0.695250988006592,keyboard,keyboard,0,0_keyboard_00_keyboard-0038-ILSVRC2012-val-00038711.png,True,-0.9753678900654312,1.7192184925079346,0.5,-1.3937912120323663,27.966205596923828,10,0.982392607392607,10,41.10139524157319,10
subject-02,1,43,0.89320707321167,clock,clock,0,0_clock_00_clock-0106-ILSVRC2012-val-00009413.png,True,0.04453379945240055,0.4132565259933471,1.0,-0.07952910219104305,27.001923203468323,10,5.46590909090909,10,22.12292723509815,10
subject-02,1,44,1.11892199516296,bear,cat,0,0_cat_00_cat-0160-ILSVRC2012-val-00011528.png,False,1.2074534945404147,1.4715261459350586,0.3333333333333333,-1.5720693591536212,27.83765482902527,10,4.4984126984126975,6,31.8724041289164,6
subject-02,1,45,1.36322784423828,bottle,knife,0,0_knife_00_knife-0015-ILSVRC2012-val-00011081.png,False,2.4661566456603956,2.060152530670166,0.0625,-4.642121354898101,27.84317708015442,10,0.4391705516705515,7,45.280517102736766,6
subject-02,1,46,1.12071585655212,cat,oven,0,0_oven_00_oven-0006-ILSVRC2012-val-00004891.png,False,1.2166957578417406,1.7604937553405762,0.0909090909090909,-4.561127104530465,27.539111495018005,10,0.0712412587412587,8,62.1841183749266,6
subject-02,1,47,1.37637591362,bird,bird,0,0_bird_00_bird-2405-ILSVRC2012-val-00007988.png,True,2.533897620444888,2.2992753982543945,0.125,-2.997646430003749,28.78849697113037,10,0.9599206349206344,9,35.80609612325471,0
subject-02,1,48,1.37611103057861,clock,knife,0,0_knife_00_knife-0030-ILSVRC2012-val-00027427.png,False,2.5325329002790062,2.0209031105041504,0.3333333333333333,-2.0959414341383673,28.354248523712158,10,1.0505050505050502,8,40.72641799253658,6
subject-02,1,49,0.968672037124634,boat,oven,0,0_oven_00_oven-0005-ILSVRC2012-val-00004125.png,False,0.43334146916610633,2.364558219909668,0.25,-2.6972775115332257,28.617106914520264,10,0.2150183150183149,10,61.655698026634234,6
subject-02,1,50,0.674014091491699,bear,bear,0,0_bear_00_bear-0069-ILSVRC2012-val-00018788.png,True,-1.0847838073039235,1.819665789604187,0.125,-3.4499555703135356,28.129921317100525,10,1.0646825396825392,0,35.45739045034401,0
subject-02,1,51,1.22980403900146,truck,truck,0,0_truck_00_truck-0079-ILSVRC2012-val-00028914.png,True,1.7787356742769906,0.2304255962371826,1.0,-0.046768586541528656,26.411337852478027,10,2.5076923076923077,9,41.39862112240413,10
subject-02,1,52,0.889542818069458,car,car,0,0_car_00_car-0110-ILSVRC2012-val-00006285.png,True,0.025654965763126418,1.5363967418670654,0.2,-3.3225577906828536,28.30598497390747,10,0.6285214785214781,9,46.953715721990115,7
subject-02,1,53,0.739690780639648,clock,bottle,0,0_bottle_00_bottle-0052-ILSVRC2012-val-00000252.png,False,-0.7464069084349801,0.4942911565303802,1.0,-0.119815255770364,26.446170181035995,10,9.083333333333334,10,18.646158262628454,10
subject-02,1,54,0.889062881469727,bird,bird,0,0_bird_00_bird-1256-ILSVRC2012-val-00005779.png,True,0.023182254967598244,2.3178138732910156,0.125,-3.2413426748930085,28.845391273498535,10,0.6790043290043288,5,38.36793925257594,0
subject-02,1,55,1.05885195732117,chair,chair,0,0_chair_00_chair-0138-ILSVRC2012-val-00038750.png,True,0.8979629677866047,1.7670834064483645,0.1111111111111111,-3.7460055837944894,28.41562247276306,10,0.14815323565323518,9,51.13835411496435,7
subject-02,1,56,0.800768136978149,clock,bottle,0,0_bottle_00_bottle-0283-ILSVRC2012-val-00036864.png,False,-0.4317265142637892,0.9533480405807496,1.0,-0.39649845191293015,26.22812247276306,10,8.2,10,19.01443412202883,10
subject-02,1,57,0.590498924255371,cat,cat,0,0_cat_00_cat-0032-ILSVRC2012-val-00033420.png,True,-1.5150674233718686,0.0093475384637713,1.0,-0.0009450011787507944,26.26176057290286,10,5.353968253968254,6,26.77039389546391,9
subject-02,1,58,0.944741010665894,bicycle,bicycle,0,0_bicycle_00_bicycle-0048-ILSVRC2012-val-00045400.png,True,0.310044959781818,2.2944374084472656,0.5,-1.8650464356641638,28.805465698242188,10,1.349801587301587,10,33.79182092260869,6
subject-02,1,59,1.408282995224,dog,dog,0,0_dog_00_dog-2290-ILSVRC2012-val-00036919.png,True,2.698288052806641,2.0404250621795654,0.25,-2.105673803348784,28.20294976234436,10,1.3421717171717171,9,37.718070783498575,6
subject-02,1,60,0.828011989593506,clock,clock,0,0_clock_00_clock-0052-ILSVRC2012-val-00003721.png,True,-0.29136179002410906,1.7258577346801758,1.0,-0.7683058099224106,28.131396532058716,10,6.727777777777777,10,21.777191847028313,10
subject-02,1,61,1.36586117744446,car,bicycle,0,0_bicycle_00_bicycle-0077-ILSVRC2012-val-00030112.png,False,2.4797240032046917,0.0569418035447597,1.0,-0.007398368561454166,26.94277125224471,10,2.378571428571428,10,30.109497316097368,10
subject-02,1,62,0.951544046401978,car,car,0,0_car_00_car-0041-ILSVRC2012-val-00040706.png,True,0.3450952975064411,0.7469586730003357,1.0,-0.2114755692717368,27.360787570476532,10,2.2267399267399264,9,43.758586990763945,10
subject-02,1,63,0.774161815643311,clock,clock,0,0_clock_00_clock-0039-ILSVRC2012-val-00033429.png,True,-0.5688065744859515,2.0458524227142334,1.0,-1.119783290793838,28.833964109420776,10,6.785353535353535,10,23.20972711933386,10
subject-02,1,64,0.881124019622803,oven,oven,0,0_oven_00_oven-0039-ILSVRC2012-val-00038382.png,True,-0.017720042136016082,0.0245104283094406,1.0,-0.002628917971739396,26.72830466926098,10,2.508928571428571,9,54.91163822324111,6
subject-02,1,65,,na,airplane,0,0_airplane_00_airplane-0016-ILSVRC2012-val-00018685.png,False,,2.0197224617004395,0.1666666666666666,-3.0696065219463216,28.61816430091858,10,5.892857142857142,7,25.4424808899317,9
subject-02,1,66,1.20465397834778,car,truck,0,0_truck_00_truck-0330-ILSVRC2012-val-00031256.png,False,1.6491585040395078,2.2061758041381836,0.1111111111111111,-3.330018576142515,29.17565083503723,10,0.36999389499389473,9,45.45846738705457,7
subject-02,1,67,0.722602128982544,clock,bottle,0,0_bottle_00_bottle-0222-ILSVRC2012-val-00018657.png,False,-0.8344503988818959,0.5868598222732544,1.0,-0.1301928446726981,26.623197555541992,10,7.819444444444444,10,20.095461164114937,10
subject-02,1,68,0.580470085144043,cat,cat,0,0_cat_00_cat-0185-ILSVRC2012-val-00038168.png,True,-1.5667376205418597,1.444420576095581,0.1,-5.593480250839835,27.171518206596375,10,1.9761904761904763,9,42.2326413372572,6
subject-02,1,69,0.542423963546753,clock,clock,0,0_clock_00_clock-0029-ILSVRC2012-val-00022719.png,True,-1.7627573774312604,0.0032959929667413,1.0,-0.00028191009806072525,27.00486955558881,10,7.833333333333333,7,21.238513740107017,10
subject-02,1,70,0.870194911956787,bird,airplane,0,0_airplane_00_airplane-0021-ILSVRC2012-val-00023316.png,False,-0.07402856815048198,1.5531548261642456,1.0,-0.6324107046119516,28.096702933311462,10,3.733333333333334,10,23.766503065645512,10
subject-02,1,71,0.618298053741455,keyboard,keyboard,0,0_keyboard_00_keyboard-0067-ILSVRC2012-val-00013266.png,True,-1.3718418231049732,0.0010711605427786,1.0,-8.72650074311788e-05,26.324348633992486,10,3.337301587301587,8,37.441550988029796,10
subject-02,1,72,0.86980414390564,truck,truck,0,0_truck_00_truck-0018-ILSVRC2012-val-00016650.png,True,-0.07604186819711378,0.4748602509498596,1.0,-0.08910879751218531,26.978550970554352,10,1.5525696525696522,10,42.283858521204195,10
subject-02,1,73,1.21948289871216,clock,clock,0,0_clock_00_clock-0008-ILSVRC2012-val-00005558.png,True,1.7255594942777632,0.0117761958390474,1.0,-0.0012212100800004161,25.984818445518613,10,6.033333333333333,10,20.649325585469636,10
subject-02,1,74,0.701321840286255,boat,car,0,0_car_00_car-0139-ILSVRC2012-val-00037952.png,False,-0.9440898796399017,1.9635505676269531,0.0769230769230769,-5.400644968871334,28.15068817138672,10,0.21172161172161127,8,52.30002856023688,6
subject-02,1,75,1.46957898139954,cat,chair,0,0_chair_00_chair-0160-ILSVRC2012-val-00012040.png,False,3.014094863172333,0.961088240146637,0.3333333333333333,-2.9391059619480013,26.781393229961395,10,0.5673742923742919,10,47.342411405493664,7
subject-02,1,76,0.819444894790649,elephant,elephant,0,0_elephant_00_elephant-0043-ILSVRC2012-val-00040923.png,True,-0.3355008446767677,0.2357162535190582,1.0,-0.03623368839284876,26.58273282647133,10,4.460714285714285,7,31.076764701193742,10
subject-02,1,77,0.86667799949646,car,oven,0,0_oven_00_oven-0034-ILSVRC2012-val-00033304.png,False,-0.09214826857018824,0.4010960459709167,1.0,-0.09631767186474621,27.160509526729584,10,1.051923076923077,10,56.5296923606326,10
subject-02,1,78,0.74455189704895,bicycle,bicycle,0,0_bicycle_00_bicycle-0060-ILSVRC2012-val-00011330.png,True,-0.7213616523942087,1.1056549549102783,1.0,-0.3709358453736795,27.61118221282959,10,1.7829365079365078,10,33.36317517155436,10
subject-02,1,79,0.718194961547852,bear,knife,0,0_knife_00_knife-0029-ILSVRC2012-val-00026505.png,False,-0.8571568365646459,1.6602693796157837,0.0833333333333333,-5.144110325731249,28.272769808769226,10,0.42673160173160163,7,43.58363392260226,7
subject-02,1,80,0.724089860916138,boat,truck,0,0_truck_00_truck-0185-ILSVRC2012-val-00033804.png,False,-0.8267853639270456,2.2287299633026123,1.0,-1.0767630123128293,29.24477529525757,10,1.433100233100233,10,42.51240647017913,10
subject-02,1,81,0.71995997428894,cat,truck,0,0_truck_00_truck-0027-ILSVRC2012-val-00025838.png,False,-0.8480632061526724,0.5631930828094482,0.2,-5.502078761965135,26.853586196899414,10,0.41027861027861007,10,47.87893975718251,6
subject-02,1,82,0.867890119552612,bottle,boat,0,0_boat_00_boat-0061-ILSVRC2012-val-00011292.png,False,-0.08590323047556657,2.15681529045105,0.1,-3.544889783769585,29.2079439163208,10,1.7095238095238094,3,30.22928441571682,3
subject-02,1,83,1.00384283065796,bottle,bird,0,0_bird_00_bird-2011-ILSVRC2012-val-00008842.png,False,0.6145470719600837,1.58349609375,0.5,-1.7081011041559224,28.61961340904236,10,1.3007936507936506,10,35.3558703596774,10
subject-02,1,84,0.939368963241577,bottle,bottle,0,0_bottle_00_bottle-0345-ILSVRC2012-val-00044614.png,True,0.2823673047172884,1.0835317373275757,1.0,-0.7181434563711153,26.61846387386322,10,5.125,10,21.906228723066626,10
subject-02,1,85,0.687373876571655,bear,cat,0,0_cat_00_cat-0298-ILSVRC2012-val-00042529.png,False,-1.015952039083581,1.5339832305908203,0.25,-3.285747269006767,26.704628348350525,10,2.9488455988455984,8,37.341615455007364,6
subject-02,1,86,1.10518217086792,boat,boat,0,0_boat_00_boat-0036-ILSVRC2012-val-00032433.png,True,1.1366637029678435,1.0872559547424316,1.0,-0.34334540168245753,27.885085344314575,10,2.4709457209457204,10,27.707049230764966,10
subject-02,1,87,0.774801015853882,clock,keyboard,0,0_keyboard_00_keyboard-0086-ILSVRC2012-val-00037986.png,False,-0.5655133118715384,0.9514094591140748,0.5,-2.054231543447582,26.746821641921997,10,1.948351648351648,9,41.64487401069385,6
subject-02,1,88,0.624687910079956,car,car,0,0_car_00_car-0025-ILSVRC2012-val-00023474.png,True,-1.3389202522997008,0.4419776797294616,0.25,-4.603251290919272,25.91734427213669,10,0.7237595737595734,9,50.28373962883913,6
subject-02,1,89,0.944384098052979,bird,bird,0,0_bird_00_bird-2082-ILSVRC2012-val-00036457.png,True,0.3082060884152462,0.3767342567443847,1.0,-0.06660198385896678,27.02356243133545,10,3.1896825396825395,9,31.3991041298051,10
subject-02,1,90,1.25825095176697,boat,keyboard,0,0_keyboard_00_keyboard-0012-ILSVRC2012-val-00009502.png,False,1.9252987585138464,1.7823166847229004,0.0666666666666666,-5.367058848197283,28.875922679901123,10,0.4152680652680649,9,45.15808079797474,7
subject-02,1,91,1.23194217681885,bear,dog,0,0_dog_00_dog-4914-ILSVRC2012-val-00011316.png,False,1.7897517052826504,1.1173319816589355,1.0,-0.3402426657467917,27.595319747924805,10,2.652020202020202,9,33.374824469829306,10
subject-02,1,92,1.24196314811707,knife,chair,0,0_chair_00_chair-0045-ILSVRC2012-val-00044898.png,False,1.841381366210104,2.317199230194092,0.5,-1.8411300232056385,28.870521783828735,10,0.5940476190476186,10,47.888622385797014,7
subject-02,1,93,1.09168291091919,airplane,elephant,0,0_elephant_00_elephant-0035-ILSVRC2012-val-00034035.png,False,1.0671133377204862,0.0391118600964546,1.0,-0.004984981494822703,26.643967159092426,10,2.9027777777777777,10,31.83510967625333,10
subject-02,1,94,0.913434028625488,chair,bicycle,0,0_bicycle_00_bicycle-0022-ILSVRC2012-val-00023266.png,False,0.14874633719269303,0.8305001258850098,0.2,-4.290817325833905,27.379388570785522,10,1.1047979797979797,10,36.54223915933667,6
subject-02,1,95,0.833906173706055,bottle,bird,0,0_bird_00_bird-2178-ILSVRC2012-val-00026510.png,False,-0.2609940024994661,1.450720191001892,0.5,-1.075803088718243,28.02695667743683,10,1.5730158730158728,10,33.83399081687526,10
subject-02,1,96,0.715075016021729,cat,cat,0,0_cat_00_cat-0092-ILSVRC2012-val-00039621.png,True,-0.8732312992920734,0.0334586389362812,1.0,-0.004258627850835776,26.223718333989382,10,4.601190476190476,7,29.4727072628875,9
subject-02,1,97,0.894953966140747,boat,airplane,0,0_airplane_00_airplane-0033-ILSVRC2012-val-00033161.png,False,0.05353407366941466,1.8246169090270996,0.1428571428571428,-2.9866588789045205,27.941073179244995,10,4.392857142857142,7,25.48981257122224,4
subject-02,1,98,0.696871995925903,bicycle,bicycle,0,0_bicycle_00_bicycle-0100-ILSVRC2012-val-00049750.png,True,-0.9670161957292137,1.1176016330718994,1.0,-0.3252973943832526,27.58906388282776,10,2.1488095238095237,10,31.47842216818985,10
subject-02,1,99,0.616724967956543,cat,cat,0,0_cat_00_cat-0137-ILSVRC2012-val-00027906.png,True,-1.3799466148729358,0.0020248254295438,1.0,-0.00017537224174188416,26.744090255117044,10,5.228968253968254,6,29.45593990200147,10
subject-02,1,100,0.792407035827637,bird,bird,0,0_bird_00_bird-0754-ILSVRC2012-val-00002846.png,True,-0.47480425638423124,0.6299824714660645,1.0,-0.12266905560604924,27.304078817367554,10,2.051190476190476,10,33.878323659505135,10
subject-02,1,101,0.990339040756226,dog,dog,0,0_dog_00_dog-3425-ILSVRC2012-val-00027086.png,True,0.54497336766398,2.2683372497558594,0.25,-1.9757303943057525,29.180408716201782,10,1.2025252525252523,8,36.44222166764603,6
subject-02,1,102,0.94203519821167,bear,bottle,0,0_bottle_00_bottle-0039-ILSVRC2012-val-00038570.png,False,0.2961041774576855,1.2099127769470217,1.0,-0.3218754088199928,27.584529638290405,10,8.416666666666666,10,19.74316510234089,10
subject-02,1,103,0.689999103546143,car,car,0,0_car_00_car-0058-ILSVRC2012-val-00010676.png,True,-1.0024264461528345,1.772737741470337,0.2,-3.0874857023945115,28.682413816452026,10,0.5304695304695302,8,47.099852412630604,6
subject-02,1,104,0.913748979568481,chair,boat,0,0_boat_00_boat-0064-ILSVRC2012-val-00013366.png,False,0.150369015265666,0.9843156933784484,1.0,-0.35240854867042154,27.6296928524971,10,2.348351648351648,10,29.167213670677956,10
subject-02,1,105,1.16586399078369,boat,chair,0,0_chair_00_chair-0087-ILSVRC2012-val-00037905.png,False,1.4493062296726664,1.771523118019104,0.5,-2.1163623551300144,28.189844965934753,10,0.570941558441558,10,48.062862672438754,7
subject-02,1,106,0.789268016815186,cat,elephant,0,0_elephant_00_elephant-0011-ILSVRC2012-val-00011247.png,False,-0.4909769887905665,0.2704113721847534,1.0,-0.051551334224592585,27.098819136619568,10,2.7039682539682537,10,31.94664061095203,10
subject-02,1,107,0.795008897781372,bottle,chair,0,0_chair_00_chair-0092-ILSVRC2012-val-00041814.png,False,-0.46139904381015306,0.7799201607704163,0.2,-4.495310569814895,27.53924471139908,10,0.2569555444555441,10,51.23267255929861,7
subject-02,1,108,0.835309982299805,bottle,knife,0,0_knife_00_knife-0009-ILSVRC2012-val-00008526.png,False,-0.2537613541318141,1.845183253288269,0.0909090909090909,-5.262460525986837,28.17456042766571,10,0.5592712842712841,7,43.05030751826382,3
subject-02,1,109,0.81311297416687,cat,oven,0,0_oven_00_oven-0038-ILSVRC2012-val-00038011.png,False,-0.3681239213323537,1.2382473945617676,0.0909090909090909,-5.471009980145111,27.887264013290405,10,0.09011544011544,9,63.62524729745177,6
subject-02,1,110,0.696403026580811,bird,bird,0,0_bird_00_bird-0157-ILSVRC2012-val-00005336.png,True,-0.9694324014593679,0.0159138236194849,1.0,-0.0016953406781042824,26.636227706447244,10,4.557539682539682,7,30.088262973112474,10
subject-02,1,111,0.870357036590576,car,car,0,0_car_00_car-0032-ILSVRC2012-val-00030834.png,True,-0.07319327587976188,0.6103661060333252,0.5,-1.7531385724099886,27.942919969558716,10,1.822161172161172,9,43.941881730268406,6
subject-02,1,112,0.866190910339355,bicycle,bicycle,0,0_bicycle_00_bicycle-0016-ILSVRC2012-val-00016532.png,True,-0.09465783049531161,1.3615821599960327,0.1,-4.694062949247334,28.426934361457825,10,0.877355977355977,1,37.29082061754092,6
subject-02,1,113,0.79589581489563,bird,bird,0,0_bird_00_bird-1941-ILSVRC2012-val-00042829.png,True,-0.4568295037409153,1.3298457860946655,1.0,-0.5397487558040842,28.186449885368347,10,2.5527777777777776,10,31.767566840792288,10
subject-02,1,114,0.726133108139038,boat,airplane,0,0_airplane_00_airplane-0025-ILSVRC2012-val-00024747.png,False,-0.8162582245739947,0.0007331842789426,1.0,-5.6983663943302084e-05,26.26530556625221,10,7.916666666666666,0,19.816727277094028,10
subject-02,1,115,0.917657852172852,bottle,bottle,0,0_bottle_00_bottle-0127-ILSVRC2012-val-00023580.png,True,0.17050815758694327,0.0662879794836044,1.0,-0.008626368086810136,26.772512659430504,10,7.5555555555555545,10,21.179504663239268,10
subject-02,1,116,0.993737936019897,clock,chair,0,0_chair_00_chair-0169-ILSVRC2012-val-00019913.png,False,0.562485024445437,2.178926467895508,0.5,-1.6509017078158266,28.489168524742126,10,1.2312271062271058,9,44.415203594558186,7
subject-02,1,117,0.563096046447754,boat,keyboard,0,0_keyboard_00_keyboard-0065-ILSVRC2012-val-00012212.png,False,-1.656251471059443,1.837312936782837,0.1,-4.490454744538393,27.689393281936646,10,0.5812271062271059,9,45.97499028101156,6
subject-02,1,118,1.03100609779358,elephant,knife,0,0_knife_00_knife-0021-ILSVRC2012-val-00016901.png,False,0.7544966068063722,2.393409967422486,0.25,-2.3802007328269883,29.469048976898193,10,0.6484848484848484,10,38.0410576039531,10
subject-02,1,119,0.702708005905151,car,truck,0,0_truck_00_truck-0335-ILSVRC2012-val-00039723.png,False,-0.9369481307252422,2.0958876609802246,0.3333333333333333,-1.6540169952444248,28.89456582069397,10,0.6347125097125095,10,43.30124680608058,10
subject-02,1,120,0.916548013687134,truck,knife,0,0_knife_00_knife-0003-ILSVRC2012-val-00001964.png,False,0.16479009064546457,1.4635636806488037,0.5,-2.385476215762085,28.130464792251587,10,1.521212121212121,10,38.646961133402115,10
subject-02,1,121,0.724549055099487,cat,elephant,0,0_elephant_00_elephant-0015-ILSVRC2012-val-00015520.png,False,-0.8244195214073313,0.6681351661682129,0.1428571428571428,-4.980151952143928,26.93220090866089,10,1.7670995670995668,8,38.64124168980377,0
subject-02,1,122,0.620174884796143,clock,clock,0,0_clock_00_clock-0025-ILSVRC2012-val-00019663.png,True,-1.3621720867003921,0.0174479261040687,1.0,-0.0018405556798572946,26.605299927294254,10,7.976190476190476,10,20.153459823807715,10
subject-02,1,123,0.860040903091431,truck,truck,0,0_truck_00_truck-0047-ILSVRC2012-val-00047588.png,True,-0.12634366008830725,1.8235827684402464,1.0,-0.7915458187268429,28.52010452747345,10,1.3986013986013983,10,43.11171500148321,10
subject-02,1,124,1.49012589454651,bottle,keyboard,0,0_keyboard_00_keyboard-0081-ILSVRC2012-val-00028754.png,False,3.119955874776301,1.7630233764648438,0.1111111111111111,-5.113181505213415,27.57746946811676,10,0.33037240537240503,8,49.752802400874586,7
subject-02,1,125,1.14181089401245,car,airplane,0,0_airplane_00_airplane-0044-ILSVRC2012-val-00043242.png,False,1.3253807943433649,1.282111644744873,0.5,-1.2293422057914518,27.75254726409912,10,3.783333333333333,6,25.23732321340103,10
subject-02,1,126,0.805704832077026,car,car,0,0_car_00_car-0091-ILSVRC2012-val-00036091.png,True,-0.40629186462034417,0.4812554717063904,0.2,-4.668130291315523,27.036822259426117,10,0.9355311355311351,9,48.993030880361175,6
subject-02,1,127,0.683433055877686,keyboard,keyboard,0,0_keyboard_00_keyboard-0029-ILSVRC2012-val-00027307.png,True,-1.0362557831170218,0.0122570842504501,1.0,-0.0012855444718099722,26.91188572347164,10,2.828088578088578,9,37.50969203034879,10
subject-02,1,128,0.663506031036377,boat,oven,0,0_oven_00_oven-0037-ILSVRC2012-val-00037357.png,False,-1.1389230301564857,2.0429582595825195,1.0,-1.3375389839615373,28.81407403945923,10,1.263690476190476,10,56.315540497562814,6
subject-02,1,129,0.751338958740234,bear,bear,0,0_bear_00_bear-0052-ILSVRC2012-val-00000865.png,True,-0.6863936155256719,0.2873315215110779,1.0,-0.06631972639490731,26.738305509090424,10,2.8499999999999996,10,27.238441262780555,10
subject-02,1,130,0.928686857223511,bottle,knife,0,0_knife_00_knife-0005-ILSVRC2012-val-00003462.png,False,0.22733137104468862,0.9002639055252075,0.1666666666666666,-4.959954838453958,28.039135336875916,10,0.8155844155844154,7,40.34161173748061,3
subject-02,1,131,0.766443967819214,chair,elephant,0,0_elephant_00_elephant-0095-ILSVRC2012-val-00042879.png,False,-0.6085701716852163,1.4988585710525513,0.25,-3.1691577093000696,27.829944014549255,10,2.2480158730158726,6,35.35836033328785,0
subject-02,1,132,0.720594882965088,clock,dog,0,0_dog_00_dog-5267-ILSVRC2012-val-00013862.png,False,-0.844792054216009,0.9348771572113036,0.0769230769230769,-6.257230658136749,27.625165462493896,10,0.897233322233322,8,42.16845088855665,6
subject-02,1,133,0.656265020370483,boat,bird,0,0_bird_00_bird-1861-ILSVRC2012-val-00007811.png,False,-1.176229885383043,2.004300594329834,1.0,-1.0596570027108592,28.654483556747437,10,2.9916666666666667,9,32.215664649238214,10
subject-02,1,134,0.920150995254517,bottle,airplane,0,0_airplane_00_airplane-0045-ILSVRC2012-val-00044253.png,False,0.1833532329912463,1.898631572723389,0.5,-1.3844484411002906,28.653071880340576,10,3.9761904761904763,7,25.23473446454149,10
subject-02,1,135,0.885847091674805,cat,truck,0,0_truck_00_truck-0225-ILSVRC2012-val-00026079.png,False,0.006613987103655856,2.157241106033325,0.1666666666666666,-2.665595276545884,27.98952615261078,10,0.6117216117216114,7,45.451348694634994,6
subject-02,1,136,0.647613048553467,bear,bear,0,0_bear_00_bear-0058-ILSVRC2012-val-00011726.png,True,-1.2208062401068374,0.0214285068213939,1.0,-0.0029035002112930857,26.31363908573985,10,3.1146825396825393,10,28.30820408012351,10
subject-02,1,137,0.857924938201904,elephant,truck,0,0_truck_00_truck-0070-ILSVRC2012-val-00021253.png,False,-0.1372454525922018,0.0665973126888275,0.5,-6.71174997235774,26.634403556585312,10,0.8276307026307023,10,47.48844524891608,6
subject-02,1,138,0.751385927200317,bird,bird,0,0_bird_00_bird-0045-ILSVRC2012-val-00045547.png,True,-0.6861516264413602,0.5773211717605591,1.0,-0.13536958532102095,26.63644254207611,10,1.5885281385281385,10,35.13042588221999,10
subject-02,1,139,0.703325986862183,cat,cat,0,0_cat_00_cat-0150-ILSVRC2012-val-00049996.png,True,-0.9337641931286094,1.4850804805755615,0.25,-3.5034218017607492,27.87454915046692,10,2.441269841269841,9,36.98981533224441,6
subject-02,1,140,1.48299407958984,dog,oven,0,0_oven_00_oven-0049-ILSVRC2012-val-00048848.png,False,3.083211613461471,0.3918205499649048,1.0,-0.06870769966957474,27.634753584861755,10,1.2819444444444443,10,56.28321452735895,10
subject-02,1,141,0.684587955474854,cat,bear,0,0_bear_00_bear-0003-ILSVRC2012-val-00003044.png,False,-1.0303055540591233,1.8486696481704712,0.1666666666666666,-3.396106735658457,27.96913230419159,10,1.0706349206349204,6,36.608013435218,6
subject-02,1,142,0.838515043258667,keyboard,keyboard,0,0_keyboard_00_keyboard-0060-ILSVRC2012-val-00008319.png,True,-0.23724836296225996,1.6825051307678225,0.1428571428571428,-3.5829831021750356,28.522554397583008,10,0.5790043290043285,7,43.47473031781361,7
subject-02,1,143,0.654242992401123,cat,bear,0,0_bear_00_bear-0113-ILSVRC2012-val-00016459.png,False,-1.1866476997183084,0.5145281553268433,1.0,-0.14516682381390456,27.225337147712708,10,2.5845238095238092,10,30.157943713754523,10
subject-02,1,144,0.890115022659302,truck,truck,0,0_truck_00_truck-0315-ILSVRC2012-val-00021882.png,True,0.028603056130376996,0.0890181437134742,1.0,-0.011890188833242547,26.29982689768076,10,3.521353646353646,7,39.894860578346,10
subject-02,1,145,0.83998703956604,bear,dog,0,0_dog_00_dog-0303-ILSVRC2012-val-00002521.png,False,-0.22966440049251077,2.2433831691741943,0.3333333333333333,-1.8160978016753817,28.813361167907715,10,1.239393939393939,8,38.26536948891014,6
subject-02,1,146,0.877847194671631,bicycle,bicycle,0,0_bicycle_00_bicycle-0011-ILSVRC2012-val-00011821.png,True,-0.03460277297246508,0.4111145734786987,0.0769230769230769,-7.553886299200696,26.722870707511902,10,0.8320568320568317,3,41.1097164010156,6
subject-02,1,147,0.891621828079224,truck,clock,0,0_clock_00_clock-0100-ILSVRC2012-val-00049759.png,False,0.03636636076413441,1.7820836305618286,0.5,-1.6777354831332638,28.183081030845642,10,5.13095238095238,4,23.668552565652554,10
subject-02,1,148,0.943573951721191,car,truck,0,0_truck_00_truck-0107-ILSVRC2012-val-00007374.png,False,0.30403208380361096,0.6397311091423035,0.5,-1.6302870025659977,27.453527867794037,10,1.0366966366966364,10,44.083569726825715,10
subject-02,1,149,0.77522087097168,boat,bottle,0,0_bottle_00_bottle-0180-ILSVRC2012-val-00027613.png,False,-0.5633501505645679,1.8410773277282717,1.0,-1.1451445914502623,28.543443202972412,10,5.6499999999999995,10,23.63929174992975,10
subject-02,1,150,0.62906813621521,cat,oven,0,0_oven_00_oven-0009-ILSVRC2012-val-00007132.png,False,-1.3163526205384064,2.0256242752075195,0.3333333333333333,-2.3590018163239397,28.974933624267578,10,0.4664682539682538,10,58.054215084145774,6
subject-02,1,151,0.898684978485107,car,boat,0,0_boat_00_boat-0179-ILSVRC2012-val-00026763.png,False,0.0727568512348656,2.1084342002868652,0.25,-2.661830270787656,29.08836078643799,10,2.4880952380952377,1,29.774051167901074,10
subject-02,1,152,0.936710834503174,dog,car,0,0_car_00_car-0096-ILSVRC2012-val-00043824.png,False,0.2686721965904301,2.51559066772461,0.0833333333333333,-3.442931276309433,29.060292959213257,4,0.5150183150183144,9,49.493010114536915,7
subject-02,1,153,0.802536964416504,bottle,oven,0,0_oven_00_oven-0008-ILSVRC2012-val-00007052.png,False,-0.42261322991602657,1.2989068031311035,1.0,-0.4732098669473522,28.19241738319397,10,1.568452380952381,10,55.36614882311027,10
subject-02,1,154,0.874183893203735,airplane,airplane,0,0_airplane_00_airplane-0005-ILSVRC2012-val-00003960.png,True,-0.05347669317779551,0.0313650220632553,1.0,-0.0037305114770225813,26.777598723769188,10,8.25,1,20.50752359706149,10
subject-02,1,155,0.892003059387207,chair,bicycle,0,0_bicycle_00_bicycle-0046-ILSVRC2012-val-00042496.png,False,0.03833052597131263,0.1434089243412017,1.0,-0.02070391820354785,26.700695902109146,10,1.8853535353535351,10,31.228350963753215,10
subject-02,1,156,0.84192419052124,dog,dog,0,0_dog_00_dog-1398-ILSVRC2012-val-00046547.png,True,-0.21968388622838622,0.4679529666900635,1.0,-0.09615603528583314,26.874298572540283,10,2.101262626262626,10,34.895633488814845,10
subject-02,1,157,0.758080959320068,car,car,0,0_car_00_car-0028-ILSVRC2012-val-00027049.png,True,-0.6516577407735554,0.6396568417549133,1.0,-0.3323289274108376,27.496688663959503,10,2.224542124542124,9,44.849491518670995,10
subject-02,1,158,0.997464895248413,oven,elephant,0,0_elephant_00_elephant-0099-ILSVRC2012-val-00048108.png,False,0.5816869197041233,0.0091564878821372,1.0,-0.0009030007182905974,26.669319413602352,10,4.742857142857143,7,29.665386335567096,10
subject-02,1,159,0.795484066009521,car,car,0,0_car_00_car-0079-ILSVRC2012-val-00025028.png,True,-0.4589509004343514,0.2068640887737274,1.0,-0.04447231554728429,27.105588406324387,10,2.5738095238095235,9,43.79726025077585,10
subject-02,1,160,1.23119711875916,dog,dog,0,0_dog_00_dog-2889-ILSVRC2012-val-00043272.png,True,1.7859130459503059,0.6622835397720337,1.0,-0.15425081070930294,26.950363278388977,10,2.566774891774892,9,36.55322132038471,10
subject-02,1,161,0.99918007850647,bicycle,bicycle,0,0_bicycle_00_bicycle-0050-ILSVRC2012-val-00049382.png,True,0.5905238205799553,1.5728356838226318,0.0769230769230769,-5.507581511446617,28.25347328186035,10,0.8383699633699631,1,38.10742951237752,3
subject-02,1,162,0.760381937026978,bird,bird,0,0_bird_00_bird-2410-ILSVRC2012-val-00010355.png,True,-0.6398027323842497,0.0064243557862937,1.0,-0.0006416710138910662,26.523455548565835,10,2.444877344877345,9,33.47740220790333,9
subject-02,1,163,0.752241849899292,boat,boat,0,0_boat_00_boat-0076-ILSVRC2012-val-00020486.png,True,-0.6817417746003479,1.676334261894226,0.0769230769230769,-5.698924940438042,27.233761072158813,10,1.5775183150183147,1,35.630294623918765,7
subject-02,1,164,0.768189907073975,clock,chair,0,0_chair_00_chair-0018-ILSVRC2012-val-00013838.png,False,-0.5995748109521448,0.92070072889328,1.0,-0.30516254985118135,27.463297069072723,10,2.341208791208791,9,42.801131013802866,10
subject-02,1,165,0.834048986434937,bear,elephant,0,0_elephant_00_elephant-0013-ILSVRC2012-val-00014219.png,False,-0.2602582082786395,2.1951711177825928,1.0,-1.2145637723832003,29.44892168045044,10,5.092532467532467,6,33.33759812551415,6
subject-02,1,166,0.87391996383667,bottle,bottle,0,0_bottle_00_bottle-0126-ILSVRC2012-val-00022079.png,True,-0.05483649985968702,0.0022410789970308,1.0,-0.0001868780219807143,26.819278661394492,10,8.166666666666666,9,20.555641930340006,10
subject-02,1,167,0.753551959991455,boat,keyboard,0,0_keyboard_00_keyboard-0004-ILSVRC2012-val-00001089.png,False,-0.6749918760303336,2.250603675842285,0.0833333333333333,-3.9648744224566013,28.34484887123108,10,0.3404761904761901,8,46.37716104193973,7
subject-02,1,168,0.579530954360962,cat,cat,0,0_cat_00_cat-0133-ILSVRC2012-val-00023898.png,True,-1.5715761738571075,0.7609696984291077,1.0,-0.19205767743175026,26.56444102525711,10,3.526190476190476,8,33.58802495468938,6
subject-02,1,169,0.641700983047485,car,car,0,0_car_00_car-0059-ILSVRC2012-val-00014010.png,True,-1.2512661554554587,1.226829171180725,0.3333333333333333,-3.1800742919949485,27.566405653953552,10,0.982417582417582,8,46.877700488028495,6
subject-02,1,170,0.687126159667969,bear,dog,0,0_dog_00_dog-0779-ILSVRC2012-val-00033666.png,False,-1.0172283165384004,0.8638503551483154,1.0,-0.32029474212118797,27.60745072364807,10,2.088131313131313,10,35.566014129103294,10
subject-02,1,171,0.736809015274048,car,car,0,0_car_00_car-0086-ILSVRC2012-val-00029454.png,True,-0.7612542285470373,1.2548887729644775,0.25,-3.667656473835159,27.710532903671265,10,0.9190476190476186,9,48.1525886859497,6
subject-02,1,172,0.988715171813965,elephant,elephant,0,0_elephant_00_elephant-0083-ILSVRC2012-val-00033235.png,True,0.5366069328759216,0.9455580115318298,1.0,-0.2692562266315481,27.723147809505463,10,4.492099567099567,6,31.5402859174889,10
subject-02,1,173,0.838510036468506,car,dog,0,0_dog_00_dog-0386-ILSVRC2012-val-00034616.png,False,-0.2372741587529728,0.0954207181930542,1.0,-0.015334457157039374,25.92503583431244,10,2.08490675990676,10,36.75101780358616,10
subject-02,1,174,0.858211994171143,bird,bottle,0,0_bottle_00_bottle-0032-ILSVRC2012-val-00034979.png,False,-0.13576649392462767,1.8343031406402588,1.0,-0.738339371403159,28.833996534347534,10,6.1291666666666655,10,23.57450331630844,10
subject-02,1,175,0.588072061538696,oven,oven,0,0_oven_00_oven-0007-ILSVRC2012-val-00005817.png,True,-1.5275710116419665,0.1106842160224914,1.0,-0.021977439121043028,26.862812340259552,10,1.5922619047619047,10,54.8413195671612,10
subject-02,1,176,0.729884147644043,bottle,bear,0,0_bear_00_bear-0166-ILSVRC2012-val-00022111.png,False,-0.7969322638456877,0.5001838207244873,0.0909090909090909,-5.845760153638518,27.280600786209106,10,0.8639249639249634,0,38.72143964397185,6
subject-02,1,177,1.04584383964539,bottle,bottle,0,0_bottle_00_bottle-0224-ILSVRC2012-val-00020102.png,True,0.83094304677114,0.5690546631813049,1.0,-0.10832317122955847,26.58307510614395,10,6.0,10,20.993271364769022,10
subject-02,1,178,0.789741039276123,car,truck,0,0_truck_00_truck-0301-ILSVRC2012-val-00000671.png,False,-0.4885399007536426,0.212954506278038,1.0,-0.04128058106613259,27.001720651984215,10,1.9764402264402263,10,40.78040626137559,10
subject-02,1,179,0.677468061447144,oven,oven,0,0_oven_00_oven-0019-ILSVRC2012-val-00017971.png,True,-1.0669883968246108,1.0922911167144775,1.0,-0.42463491885026,27.770859241485596,10,1.476190476190476,10,56.1388331344763,6
subject-02,1,180,1.18909597396851,boat,airplane,0,0_airplane_00_airplane-0002-ILSVRC2012-val-00001390.png,False,1.5690011553249947,0.0482659079134464,1.0,-0.006120479068251912,25.94543382897973,10,10.083333333333332,5,19.113791542486055,10
subject-02,1,181,0.681344985961914,chair,chair,0,0_chair_00_chair-0085-ILSVRC2012-val-00036175.png,True,-1.0470138562155122,2.008598566055298,1.0,-0.9560196322038051,28.459739208221436,10,1.1015262515262512,10,47.34824919602564,10
subject-02,1,182,0.67289400100708,car,car,0,0_car_00_car-0082-ILSVRC2012-val-00027293.png,True,-1.0905546941978137,1.9678826332092283,0.25,-2.483874770306646,28.4500892162323,10,0.8721611721611717,9,47.767169036528706,6
subject-02,1,183,0.712682008743286,cat,bicycle,0,0_bicycle_00_bicycle-0081-ILSVRC2012-val-00032967.png,False,-0.8855604588821108,2.3654932975769043,0.1,-3.4870336042051306,28.537677526474,4,0.9531746031746029,1,36.10246736093995,1
subject-02,1,184,0.806619167327881,bird,bird,0,0_bird_00_bird-2222-ILSVRC2012-val-00015392.png,True,-0.40158106188767456,0.305144727230072,0.1428571428571428,-5.9574350777661795,25.865988433361053,10,0.7265262515262513,4,41.066183867503135,6
subject-02,1,185,0.670176029205322,car,car,0,0_car_00_car-0045-ILSVRC2012-val-00042416.png,True,-1.1045581234422492,0.8158149719238281,0.5,-0.7839597929718718,27.697944164276123,10,1.679304029304029,9,45.666362606844615,7
subject-02,1,186,0.88816499710083,cat,keyboard,0,0_keyboard_00_keyboard-0076-ILSVRC2012-val-00022077.png,False,0.018556209832986482,0.4018740355968475,1.0,-0.07859553631017167,26.603309959173203,10,3.3078754578754577,8,39.14747949062313,10
subject-02,1,187,0.693737030029297,boat,chair,0,0_chair_00_chair-0192-ILSVRC2012-val-00043870.png,False,-0.9831680458287793,1.5603234767913818,0.1666666666666666,-3.863012554693648,27.818969249725342,10,0.25543345543345497,10,49.931887841097975,7
subject-02,1,188,0.607744932174683,bird,bird,0,0_bird_00_bird-1551-ILSVRC2012-val-00000690.png,True,-1.4262132080739547,0.1041346415877342,1.0,-0.013612834033013292,26.680895648896694,10,2.7301587301587302,9,32.51159225928654,10
subject-02,1,189,0.501601934432983,clock,clock,0,0_clock_00_clock-0144-ILSVRC2012-val-00041715.png,True,-1.9730790577147832,0.0011202074820175,1.0,-8.976862411400229e-05,25.71834325569216,10,7.783333333333333,4,20.07928342262175,10
subject-02,1,190,0.845733880996704,car,elephant,0,0_elephant_00_elephant-0069-ILSVRC2012-val-00017097.png,False,-0.20005574623743622,0.0006389372283592,1.0,-5.060562385740137e-05,26.829062198870815,10,4.728571428571428,6,28.9148125569542,10
subject-02,1,191,0.640961170196533,boat,oven,0,0_oven_00_oven-0047-ILSVRC2012-val-00047123.png,False,-1.2550777906261144,2.1493024826049805,0.0666666666666666,-5.40748090797095,27.7121319770813,10,0.020833333333332982,6,65.27315205762821,7
subject-02,1,192,0.641342163085938,car,car,0,0_car_00_car-0103-ILSVRC2012-val-00003478.png,True,-1.2531148537899168,1.4817899465560913,1.0,-0.603785951439177,28.296393275260925,10,1.536446886446886,10,45.03725461873253,10
subject-02,1,193,0.732796907424927,bird,bird,0,0_bird_00_bird-0822-ILSVRC2012-val-00025200.png,True,-0.7819252555054006,1.867960810661316,0.3333333333333333,-1.5694000979069918,28.30804717540741,10,1.6702380952380949,9,34.150006847382976,10
subject-02,1,194,1.37236499786377,oven,oven,0,0_oven_00_oven-0001-ILSVRC2012-val-00001625.png,True,2.5132327353414325,0.0397201925516128,1.0,-0.004900462618475709,26.422911539673805,10,1.9837662337662336,9,56.365305531784465,7
subject-02,1,195,1.08018708229065,dog,cat,0,0_cat_00_cat-0031-ILSVRC2012-val-00030706.png,False,1.00788497387146,1.3809311389923096,1.0,-0.5257704117383172,28.37007164955139,10,5.363492063492063,6,30.41240098927612,10
subject-02,1,196,0.784151077270508,bird,bird,0,0_bird_00_bird-2144-ILSVRC2012-val-00044377.png,True,-0.5173402868996957,1.939162254333496,1.0,-1.1455984105414432,28.288715600967407,10,2.0825396825396822,10,33.73826052038557,10
subject-02,1,197,0.814324140548706,bottle,bottle,0,0_bottle_00_bottle-0331-ILSVRC2012-val-00033990.png,True,-0.36188379672167514,0.0058139222674071,1.0,-0.0005317551834823431,26.323755349498242,10,9.083333333333332,1,19.04429017906119,10
subject-02,1,198,0.567853927612305,boat,boat,0,0_boat_00_boat-0160-ILSVRC2012-val-00008630.png,True,-1.6317380996557627,0.6078794002532959,1.0,-0.11900874393648293,26.348299145698547,10,2.926190476190476,10,25.38697683767264,10
subject-02,1,199,0.579958200454712,oven,truck,0,0_truck_00_truck-0368-ILSVRC2012-val-00016410.png,False,-1.5693749330495612,1.712491154670715,1.0,-0.7930541590630957,28.033721089363098,10,1.667155067155067,10,42.91381913807672,10
subject-02,1,200,1.13326382637024,elephant,cat,0,0_cat_00_cat-0258-ILSVRC2012-val-00006112.png,False,1.2813449228535718,1.1416656970977783,0.3333333333333333,-2.5957482628070596,27.763976335525513,10,3.5206349206349206,8,34.20875097695072,6
subject-02,1,201,0.957029819488525,dog,dog,0,0_dog_00_dog-0099-ILSVRC2012-val-00048280.png,True,0.3733588855314541,0.1731051206588745,1.0,-0.027875247571489632,27.028859734535217,10,2.1405844155844154,10,34.83021766491917,10
subject-02,1,202,0.759145975112915,car,chair,0,0_chair_00_chair-0072-ILSVRC2012-val-00015559.png,False,-0.6461706075775108,2.4435224533081055,0.1666666666666666,-2.676696407041319,29.0990788936615,10,0.1733516483516478,10,51.504979113907694,7
subject-02,1,203,0.760915040969849,cat,keyboard,0,0_keyboard_00_keyboard-0009-ILSVRC2012-val-00006513.png,False,-0.6370560948587629,1.5381420850753784,0.2,-3.727785915397144,27.568560481071472,10,0.8000721500721497,9,45.63186410723554,6
subject-02,1,204,0.962759971618652,dog,bird,0,0_bird_00_bird-1452-ILSVRC2012-val-00002997.png,False,0.402881553817485,2.00101900100708,0.5,-1.9738500131834522,28.4843807220459,10,1.344047619047619,10,36.96498662043812,10
subject-02,1,205,0.778543949127197,bottle,bicycle,0,0_bicycle_00_bicycle-0056-ILSVRC2012-val-00005330.png,False,-0.5462291157567697,0.0935763716697692,1.0,-0.012776948805493982,27.081526696681976,10,2.2754329004329,10,29.681671623662517,10
subject-02,1,206,0.840232133865356,bird,bird,0,0_bird_00_bird-0009-ILSVRC2012-val-00007530.png,True,-0.22840163511854122,1.706658959388733,0.5,-1.432759632806193,27.82339906692505,10,1.28531746031746,10,35.41056338065147,10
subject-02,1,207,0.873908042907715,oven,boat,0,0_boat_00_boat-0142-ILSVRC2012-val-00040889.png,False,-0.05489791840900472,1.801586389541626,0.1428571428571428,-3.3260078786341682,28.88839817047119,10,1.7599567099567097,3,30.628788521771362,3
subject-02,1,208,0.859951019287109,car,airplane,0,0_airplane_00_airplane-0032-ILSVRC2012-val-00032804.png,False,-0.1268067559501661,2.33206844329834,0.1111111111111111,-3.3702937128395547,29.118443489074707,10,3.153968253968254,7,27.445732479796412,4
subject-02,1,209,0.960086107254028,bear,boat,0,0_boat_00_boat-0098-ILSVRC2012-val-00047961.png,False,0.3891053732055257,0.861253023147583,0.0625,-8.441577353514113,27.20091700553894,10,1.4477564102564102,0,39.3070966770297,7
subject-02,1,210,0.903725862503052,dog,dog,0,0_dog_00_dog-2094-ILSVRC2012-val-00044284.png,True,0.09872829899935019,0.2980648875236511,1.0,-0.05062946883231364,27.250220954418182,10,2.0802308802308804,10,34.621334169818894,10
subject-02,1,211,0.935800790786743,chair,elephant,0,0_elephant_00_elephant-0028-ILSVRC2012-val-00025237.png,False,0.2639835045355155,2.3117523193359375,0.1428571428571428,-3.2360641574859774,28.066616535186768,10,3.5384920634920634,7,37.17999394220886,6
subject-02,1,212,1.05899882316589,chair,oven,0,0_oven_00_oven-0042-ILSVRC2012-val-00039873.png,False,0.8987196443141643,0.7627465724945068,1.0,-0.20060637749614493,27.495806217193604,10,1.263690476190476,10,54.96222536396464,10
subject-02,1,213,0.97097110748291,oven,clock,0,0_clock_00_clock-0032-ILSVRC2012-val-00024425.png,False,0.44518665058751555,0.0662583410739898,1.0,-0.008539376725081657,26.99775329232216,10,7.2,10,20.513127001896308,10
subject-02,1,214,0.776643991470337,dog,dog,0,0_dog_00_dog-1178-ILSVRC2012-val-00022137.png,True,-0.5560180041470225,0.3864088654518127,1.0,-0.07264669997722578,26.899015963077545,10,2.4103535353535355,10,34.153524704831334,10
subject-02,1,215,1.15059518814087,dog,elephant,0,0_elephant_00_elephant-0041-ILSVRC2012-val-00038720.png,False,1.3706388949645993,1.3096957206726074,1.0,-0.469198861300434,28.390294075012207,10,4.719877344877345,6,31.652524966844787,10
subject-02,1,216,0.694414138793945,cat,bottle,0,0_bottle_00_bottle-0216-ILSVRC2012-val-00013262.png,False,-0.9796794722275364,0.132461130619049,1.0,-0.021538845775440952,26.51697140932083,10,5.7,1,21.03981552653109,10
subject-02,1,217,0.942543029785156,airplane,boat,0,0_boat_00_boat-0082-ILSVRC2012-val-00027612.png,False,0.2987206076586177,2.2201061248779297,0.1666666666666666,-2.5583685329538977,29.27565360069275,10,1.5746753246753245,3,30.498188583041696,10
subject-02,1,218,1.29598712921143,knife,bird,0,0_bird_00_bird-0426-ILSVRC2012-val-00030017.png,False,2.1197216331209976,1.7901312112808228,1.0,-0.8992640268385543,28.7422057390213,10,2.3468253968253965,10,33.45670883297769,10
subject-02,1,219,0.817917823791504,clock,clock,0,0_clock_00_clock-0107-ILSVRC2012-val-00010270.png,True,-0.3433685608443618,0.0756189674139022,1.0,-0.009691859511419067,26.258213624358177,10,5.016666666666666,10,21.74359195216994,10
subject-02,1,220,1.03205013275146,airplane,bear,0,0_bear_00_bear-0116-ILSVRC2012-val-00020332.png,False,0.7598756433555863,0.5689536333084106,1.0,-0.14400046677619108,27.66560709476471,10,2.652380952380952,10,29.016139446121493,10
subject-02,1,221,0.865454196929932,boat,oven,0,0_oven_00_oven-0040-ILSVRC2012-val-00038775.png,False,-0.09845349684314125,0.6296517252922058,1.0,-0.12554332197991314,27.143815219402313,10,1.1569444444444443,10,56.51953363177217,10
subject-02,1,222,0.965264081954956,car,knife,0,0_knife_00_knife-0035-ILSVRC2012-val-00029833.png,False,0.41578313428716207,1.4081261157989502,0.0666666666666666,-6.694744668434615,26.710329174995422,10,0.3335789210789209,7,49.156962422104705,7
subject-02,1,223,0.690929174423218,cat,airplane,0,0_airplane_00_airplane-0043-ILSVRC2012-val-00041518.png,False,-0.9976345709350689,1.795658826828003,0.1428571428571428,-3.858456659960051,28.95359706878662,10,2.8428571428571425,4,28.317796064017642,5
subject-02,1,224,0.672759056091309,oven,cat,0,0_cat_00_cat-0291-ILSVRC2012-val-00035821.png,False,-1.0912499521760872,2.0592598915100098,0.5,-1.4693014198362089,28.660579919815063,10,2.863888888888889,9,33.79110031631964,10
subject-02,1,225,0.753201007843018,boat,keyboard,0,0_keyboard_00_keyboard-0045-ILSVRC2012-val-00045039.png,False,-0.6768000381222438,1.8914554119110107,0.1666666666666666,-3.7473376710964663,28.587793350219727,10,0.7157009657009654,8,44.18658489965816,7
subject-02,1,226,0.882832050323486,dog,dog,0,0_dog_00_dog-2129-ILSVRC2012-val-00025424.png,True,-0.008919992389779384,1.0569379329681396,1.0,-0.30793139087684795,27.897531270980835,10,2.1107864357864354,10,34.969078199259165,10
subject-02,1,227,1.1664252281189,dog,elephant,0,0_elephant_00_elephant-0009-ILSVRC2012-val-00010713.png,False,1.4521978149745687,0.0027839606627821,1.0,-0.0002450647205774532,27.06135482247919,10,4.987301587301587,6,28.77284295487732,10
subject-02,1,228,1.13203191757202,elephant,elephant,0,0_elephant_00_elephant-0026-ILSVRC2012-val-00023589.png,True,1.2749979299670697,1.3946768045425415,0.0833333333333333,-5.383080998491047,27.17022716999054,10,1.3492063492063489,9,40.60363535991637,0
subject-02,1,229,0.924381971359253,car,chair,0,0_chair_00_chair-0122-ILSVRC2012-val-00019867.png,False,0.20515190451508147,1.7557588815689087,0.2,-3.3803447196358736,28.091989636421204,10,0.354340104340104,10,48.586353712954576,7
subject-02,1,230,1.25380611419678,elephant,elephant,0,0_elephant_00_elephant-0087-ILSVRC2012-val-00034562.png,True,1.9023982382152524,0.2854409217834472,1.0,-0.05790879521705694,26.983195781707764,10,4.066605616605616,8,32.10234781729722,10
subject-02,1,231,0.907559156417847,bicycle,bicycle,0,0_bicycle_00_bicycle-0013-ILSVRC2012-val-00012667.png,True,0.11847804771794926,0.0170066133141517,1.0,-0.0017614968713482013,26.585131384432316,10,2.9305555555555554,9,29.386221477228393,10
subject-02,1,232,0.849843978881836,cat,chair,0,0_chair_00_chair-0189-ILSVRC2012-val-00041883.png,False,-0.17887985880367965,0.537832498550415,1.0,-0.13849633265027633,27.221782684326172,10,1.1599511599511598,10,44.52361827963222,10
subject-02,1,233,0.987174987792969,airplane,bird,0,0_bird_00_bird-1971-ILSVRC2012-val-00023024.png,False,0.5286716563040759,0.1108503937721252,1.0,-0.016290917748345478,27.12913089990616,10,2.166269841269841,10,31.37681057014181,10
subject-02,1,234,0.805431127548218,oven,knife,0,0_knife_00_knife-0043-ILSVRC2012-val-00039826.png,False,-0.4077020345126756,2.208211660385132,0.0625,-6.557025373411083,28.25370454788208,10,0.30176767676767663,4,46.981425328900784,7
subject-02,1,235,0.892730951309204,knife,truck,0,0_truck_00_truck-0051-ILSVRC2012-val-00001144.png,False,0.042080742592650607,1.9708818197250368,0.1666666666666666,-3.583749895870322,28.828573346138,10,0.4049145299145296,10,45.9308662697519,7
subject-02,1,236,0.808763027191162,knife,chair,0,0_chair_00_chair-0119-ILSVRC2012-val-00018206.png,False,-0.3905355499783812,2.290187358856201,0.1666666666666666,-2.6496758073177173,28.522612810134888,10,0.1822802197802192,10,50.26584978713245,7
subject-02,1,237,0.758464097976685,cat,keyboard,0,0_keyboard_00_keyboard-0007-ILSVRC2012-val-00002755.png,False,-0.6496837485984807,1.890641927719116,1.0,-0.7336129989413186,28.54642629623413,10,2.253246753246753,10,39.05845442937512,10
subject-02,1,238,1.12059187889099,car,bicycle,0,0_bicycle_00_bicycle-0008-ILSVRC2012-val-00008007.png,False,1.2160570049288513,0.0358215048909187,1.0,-0.004139934458443879,26.440300054848194,10,1.992074592074592,10,31.186324545816188,10
subject-02,1,239,0.72022819519043,cat,cat,0,0_cat_00_cat-0270-ILSVRC2012-val-00017189.png,True,-0.8466812887930202,0.0580002218484878,1.0,-0.007877360135705768,26.534980192780495,10,5.2289682539682545,6,29.49293351275075,10
subject-02,1,240,0.984198808670044,car,car,0,0_car_00_car-0065-ILSVRC2012-val-00016613.png,True,0.5133379012814185,0.2383762598037719,0.5,-2.9336253385568525,26.867881655693054,10,1.6541208791208788,9,48.157009457682065,7
subject-02,1,241,0.769751071929932,clock,clock,0,0_clock_00_clock-0108-ILSVRC2012-val-00011957.png,True,-0.5915314377334998,0.0684098899364471,1.0,-0.0090284783200408,26.715378016233444,10,6.287301587301586,10,21.858105604367434,10
subject-02,1,242,0.765388011932373,chair,chair,0,0_chair_00_chair-0081-ILSVRC2012-val-00033069.png,True,-0.6140106267837785,1.8827471733093264,0.25,-2.578016333335502,28.24532151222229,10,0.8590659340659337,9,47.08295067445395,7
subject-02,1,243,0.755438089370728,boat,keyboard,0,0_keyboard_00_keyboard-0073-ILSVRC2012-val-00019503.png,False,-0.6652742331572848,1.06792414188385,0.0625,-5.992332566189846,27.688551783561707,10,0.2420537795537792,8,48.4632061224879,7
subject-02,1,244,0.66700291633606,oven,bird,0,0_bird_00_bird-2433-ILSVRC2012-val-00028670.png,False,-1.1209065128996303,1.2149451971054075,0.5,-1.0147546961586986,28.228259921073914,10,1.3146825396825395,10,33.631660621876044,10
subject-02,1,245,0.938911914825439,airplane,boat,0,0_boat_00_boat-0111-ILSVRC2012-val-00009680.png,False,0.2800125175364462,1.8973541259765625,0.5,-1.2080210498532582,28.889617919921875,10,1.8450757575757573,10,30.674384994586717,10
subject-02,1,246,0.974640130996704,bicycle,bicycle,0,0_bicycle_00_bicycle-0030-ILSVRC2012-val-00027620.png,True,0.4640900516965162,1.9666523933410645,0.0833333333333333,-5.340483455249203,28.578832387924194,10,0.764224664224664,1,38.14273344735331,6
subject-02,1,247,1.16465091705322,dog,bear,0,0_bear_00_bear-0141-ILSVRC2012-val-00042320.png,False,1.4430562780940908,0.1491965055465698,1.0,-0.02791006062082146,26.988744854927063,10,2.345238095238095,10,29.536063510937172,10
subject-02,1,248,1.11645102500916,cat,airplane,0,0_airplane_00_airplane-0034-ILSVRC2012-val-00033441.png,False,1.194722657637886,0.9167953729629515,1.0,-0.4222026873962067,27.761884808540344,10,5.866666666666667,7,23.54934794287124,10
subject-02,1,249,0.800117969512939,elephant,bear,0,0_bear_00_bear-0056-ILSVRC2012-val-00007093.png,False,-0.4350762819435764,1.7588739395141602,0.0625,-6.1756839497747205,27.65903925895691,10,0.8666666666666663,6,40.78251341547603,6
subject-02,1,250,0.694411993026733,boat,airplane,0,0_airplane_00_airplane-0047-ILSVRC2012-val-00046971.png,False,-0.9796905275664142,1.2131969928741455,0.0833333333333333,-5.985575588826784,27.109784960746765,10,2.838888888888889,0,31.735249643220605,5
subject-02,1,251,1.10025906562805,airplane,airplane,0,0_airplane_00_airplane-0019-ILSVRC2012-val-00022532.png,True,1.111299070470612,1.9057737588882449,0.25,-2.0504830446111693,28.77024257183075,10,3.2083333333333335,7,26.17757482185209,10
subject-02,1,252,0.847648859024048,dog,dog,0,0_dog_00_dog-0247-ILSVRC2012-val-00045683.png,True,-0.19018947047504028,0.9594863653182985,1.0,-0.21656075795348526,27.322531580924988,10,2.08495670995671,10,36.761613660403974,10
subject-02,1,253,0.979671955108643,oven,airplane,0,0_airplane_00_airplane-0029-ILSVRC2012-val-00030319.png,False,0.49001482136351876,0.8356806039810181,0.1,-5.532200369488106,26.368603587150574,10,2.7777777777777777,0,30.890888457750748,5
subject-02,1,254,0.955648183822632,elephant,oven,0,0_oven_00_oven-0015-ILSVRC2012-val-00013982.png,False,0.3662404756655359,0.8151167631149292,0.3333333333333333,-2.700892646208683,27.811848521232605,10,0.3928571428571427,10,60.054052315763336,6
subject-02,1,255,0.944981098175049,elephant,elephant,0,0_elephant_00_elephant-0065-ILSVRC2012-val-00010619.png,True,0.3112819293650753,2.2154386043548584,0.5,-1.5360492182436378,28.02309739589691,10,3.481746031746032,6,34.854088984558935,6
subject-02,1,256,0.954801797866821,keyboard,dog,0,0_dog_00_dog-2321-ILSVRC2012-val-00015164.png,False,0.3618797586639772,2.0069127082824707,0.25,-2.0304048603809264,28.552224278450012,10,1.4552308802308802,9,36.204496260699116,6
subject-02,1,257,0.820680856704712,cat,knife,0,0_knife_00_knife-0024-ILSVRC2012-val-00021297.png,False,-0.32913296948350607,2.636296033859253,0.3333333333333333,-2.3120740890000433,29.079604387283325,4,1.0564213564213563,10,37.00748449264524,10
subject-02,1,258,0.910354852676392,bottle,bird,0,0_bird_00_bird-0896-ILSVRC2012-val-00046621.png,False,0.13288192590393602,0.0783162266016006,1.0,-0.00991312453792336,26.50776769220829,10,2.417460317460317,10,32.61713965826967,10
subject-02,1,259,1.09027099609375,chair,bottle,0,0_bottle_00_bottle-0204-ILSVRC2012-val-00002597.png,False,1.0598389247392959,0.1557253748178482,1.0,-0.02223849347009203,27.235548868775368,10,7.944444444444444,10,21.860357859054137,10
subject-02,1,260,0.904253005981445,airplane,clock,0,0_clock_00_clock-0098-ILSVRC2012-val-00048682.png,False,0.10144422725017586,0.8060711622238159,0.3333333333333333,-3.1026976498727725,27.768476605415344,10,3.810256410256411,10,26.80344730408764,2
subject-02,1,261,0.780062198638916,clock,clock,0,0_clock_00_clock-0043-ILSVRC2012-val-00041613.png,True,-0.5384068493156667,1.2909183502197266,1.0,-0.37644306414694323,27.529666900634766,10,5.583333333333333,10,22.150314585419263,10
subject-02,1,262,1.18787908554077,boat,knife,0,0_knife_00_knife-0042-ILSVRC2012-val-00039665.png,False,1.5627315498106145,1.2391694784164429,0.125,-5.342037399706257,26.91929340362549,10,0.941244866244866,7,42.80523927004248,7
subject-02,1,263,1.08561992645264,oven,chair,0,0_chair_00_chair-0181-ILSVRC2012-val-00033160.png,False,1.0358758635375207,1.3546730279922483,0.5,-2.037665488868158,27.604979157447815,10,0.6494810744810741,10,47.88183334665008,7
subject-02,1,264,0.855342149734497,knife,bicycle,0,0_bicycle_00_bicycle-0032-ILSVRC2012-val-00030070.png,False,-0.1505523954873728,1.4177874326705933,0.0833333333333333,-5.5931594608669215,28.155275464057922,10,1.1016233766233763,3,36.575584787028646,3
subject-02,1,265,0.695115804672241,bicycle,bicycle,0,0_bicycle_00_bicycle-0080-ILSVRC2012-val-00032009.png,True,-0.9760643764146962,0.0051126414909958,1.0,-0.00046878118259981356,26.770556920208037,10,2.2361111111111107,10,30.396461831317254,10
subject-02,1,266,0.795124053955078,bear,bear,0,0_bear_00_bear-0168-ILSVRC2012-val-00022698.png,True,-0.46080574062374413,0.0404587388038635,1.0,-0.005001215208058452,26.42094737291336,10,2.692857142857142,10,28.70289461045576,10
subject-02,1,267,1.10282683372498,bottle,dog,0,0_dog_00_dog-2876-ILSVRC2012-val-00027038.png,False,1.124528625993676,2.1141982078552246,0.0833333333333333,-4.514635109251152,28.618066787719727,10,0.9068181818181817,6,39.84900917708169,6
subject-02,1,268,0.790515184402466,bottle,bottle,0,0_bottle_00_bottle-0233-ILSVRC2012-val-00031504.png,True,-0.48455138016095023,1.2081177234649658,1.0,-0.5688258762029546,28.149147987365723,10,7.127777777777776,10,22.315643393748665,10
subject-02,1,269,0.804312944412231,bicycle,bird,0,0_bird_00_bird-0532-ILSVRC2012-val-00028181.png,False,-0.413463094438679,0.0218770690262317,1.0,-0.0024463033602464446,26.745723742991686,10,3.109126984126984,9,32.09973345006228,10
subject-02,1,270,0.936672925949097,chair,bear,0,0_bear_00_bear-0114-ILSVRC2012-val-00017605.png,False,0.26847688560360045,1.6365907192230225,0.5,-1.4114332244622765,28.29572081565857,10,1.5658730158730156,10,32.985093031440684,10
subject-02,1,271,0.832041025161743,bicycle,bicycle,0,0_bicycle_00_bicycle-0073-ILSVRC2012-val-00027449.png,True,-0.2706035487257151,2.268275022506714,0.3333333333333333,-1.9887258007896826,29.047101974487305,10,1.3797979797979796,10,32.37620280515928,10
subject-02,1,272,0.689847946166992,bottle,clock,0,0_clock_00_clock-0110-ILSVRC2012-val-00014035.png,False,-1.0032052333581862,1.7247676849365234,0.3333333333333333,-2.158930824382874,27.662822246551514,10,4.979761904761904,4,23.249108697230525,10
subject-02,1,273,0.767627000808716,bottle,bottle,0,0_bottle_00_bottle-0172-ILSVRC2012-val-00021707.png,True,-0.6024749948509276,1.559114694595337,0.25,-2.904649745037413,27.37075626850128,10,6.404761904761904,0,23.669633574934316,3
subject-02,1,274,1.02186799049377,dog,boat,0,0_boat_00_boat-0083-ILSVRC2012-val-00034455.png,False,0.7074156036413713,1.8860626220703125,0.1428571428571428,-3.505933259439195,28.581964015960693,10,1.467099567099567,3,32.88890326900169,3
subject-02,1,275,1.01931691169739,clock,chair,0,0_chair_00_chair-0030-ILSVRC2012-val-00026896.png,False,0.6942720340874186,0.1114050894975662,1.0,-0.015229026956939052,26.605857089161873,10,2.2340659340659337,9,43.38895811041593,10
subject-02,1,276,0.917263984680176,elephant,cat,0,0_cat_00_cat-0123-ILSVRC2012-val-00014813.png,False,0.16847888871748543,1.065854549407959,1.0,-0.27338366566105515,27.564393520355225,10,5.2900793650793645,6,30.210121605393162,10
subject-02,1,277,0.680909156799316,cat,bear,0,0_bear_00_bear-0049-ILSVRC2012-val-00049822.png,False,-1.049259318378569,2.1120662689208984,0.125,-3.3102584186193575,28.371588349342346,10,0.8580086580086576,10,36.77006837065132,6
subject-02,1,278,0.640826940536499,airplane,airplane,0,0_airplane_00_airplane-0007-ILSVRC2012-val-00009537.png,True,-1.2557693634914304,0.0151640325784683,1.0,-0.0016045920092861673,25.823076143860817,10,8.75,0,18.89011242739459,10
subject-02,1,279,0.814608097076416,clock,clock,0,0_clock_00_clock-0073-ILSVRC2012-val-00026298.png,True,-0.3604208068769276,0.7614307403564453,0.5,-1.3977390831851584,26.857664585113525,10,8.0,4,20.538890617274713,10
subject-02,1,280,1.12839913368225,elephant,elephant,0,0_elephant_00_elephant-0022-ILSVRC2012-val-00022028.png,True,1.2562812412479982,0.1795329451560974,1.0,-0.035241238858916495,26.798780381679535,10,4.385714285714285,8,29.097495068833226,10
subject-02,1,281,1.50014591217041,car,truck,0,0_truck_00_truck-0358-ILSVRC2012-val-00010556.png,False,3.1715806222197913,1.99707555770874,1.0,-0.8329249212709948,28.421939373016357,10,1.651404151404151,10,43.3297816722345,10
subject-02,1,282,1.2418999671936,knife,chair,0,0_chair_00_chair-0159-ILSVRC2012-val-00011028.png,False,1.8410558478986778,1.282516360282898,1.0,-0.3874861936457557,28.02003300189972,10,1.0483516483516477,10,46.601191670174465,10
subject-02,1,283,1.00603795051575,bird,bird,0,0_bird_00_bird-1198-ILSVRC2012-val-00048142.png,True,0.6258566836314535,0.1635063588619232,1.0,-0.023420916017560058,26.89626631140709,10,2.720238095238095,9,33.21891926607362,10
subject-02,1,284,0.77344012260437,elephant,elephant,0,0_elephant_00_elephant-0085-ILSVRC2012-val-00033861.png,True,-0.5725248534616477,1.612682580947876,1.0,-0.6911517019965527,27.50613534450531,10,3.977777777777778,8,34.11204009741574,10
subject-02,1,285,0.755390882492065,car,car,0,0_car_00_car-0018-ILSVRC2012-val-00018138.png,True,-0.6655174506125875,0.8559011816978455,0.3333333333333333,-2.749780367067497,27.402914226055145,10,1.6728937728937725,9,46.096690808304885,6
subject-02,1,286,0.821145057678223,boat,bird,0,0_bird_00_bird-1052-ILSVRC2012-val-00003884.png,False,-0.32674133117307386,1.965559720993042,0.1,-4.474704453033005,28.07091474533081,10,0.8579365079365077,8,38.578426870961025,0
subject-02,1,287,0.678881883621216,elephant,elephant,0,0_elephant_00_elephant-0024-ILSVRC2012-val-00022921.png,True,-1.059704156875533,2.004765272140503,0.0833333333333333,-4.254707264764195,27.7751042842865,10,1.4039682539682536,7,40.675816103981184,0
subject-02,1,288,1.17885494232178,elephant,elephant,0,0_elephant_00_elephant-0002-ILSVRC2012-val-00001850.png,True,1.5162377079771399,0.6785555481910706,1.0,-0.22245481845618567,27.454658567905426,10,3.8607142857142858,8,33.356089114075864,10
subject-02,1,289,1.01849389076233,oven,truck,0,0_truck_00_truck-0310-ILSVRC2012-val-00016077.png,False,0.6900316974425179,1.1113337278366089,0.2,-4.385231924608428,27.519004702568054,10,0.49145854145854123,10,44.511484355103846,7
subject-02,1,290,0.884329080581665,knife,bicycle,0,0_bicycle_00_bicycle-0005-ILSVRC2012-val-00005274.png,False,-0.0012070509664613366,1.8200616836547852,0.0909090909090909,-4.751473684805466,28.361262559890747,10,1.0599567099567098,1,36.2273663872234,1
subject-02,1,291,0.866232872009277,airplane,cat,0,0_cat_00_cat-0082-ILSVRC2012-val-00025723.png,False,-0.09444163720171274,1.934395670890808,0.3333333333333333,-1.9115525520047212,27.763388752937317,10,2.6416666666666666,9,36.19628219792992,6
subject-02,1,292,1.28215909004211,bird,oven,0,0_oven_00_oven-0045-ILSVRC2012-val-00045813.png,False,2.0484773442834125,2.0051169395446777,0.0833333333333333,-4.716867110580005,28.46804666519165,10,0.029761904761904698,10,64.35578724893517,7
subject-02,1,293,0.683767080307007,oven,oven,0,0_oven_00_oven-0044-ILSVRC2012-val-00041974.png,True,-1.0345348353651416,0.3947436213493347,1.0,-0.07455742797584801,26.760309398174286,10,1.2617424242424242,10,55.13313914287919,10
subject-02,1,294,1.06221199035645,bear,clock,0,0_clock_00_clock-0092-ILSVRC2012-val-00044168.png,False,0.9152744000972985,1.5793921947479248,0.125,-4.109529887625367,28.631041526794434,10,4.979700854700853,3,26.075138876797975,2
subject-02,1,295,1.00353693962097,boat,chair,0,0_chair_00_chair-0022-ILSVRC2012-val-00016403.png,False,0.6129710719845767,0.713753342628479,0.5,-2.281578187986753,26.584524869918823,10,1.0697802197802193,9,48.19841864554012,7
subject-02,1,296,0.719265937805176,bird,bird,0,0_bird_00_bird-0119-ILSVRC2012-val-00016252.png,True,-0.8516389940939453,0.0343679636716842,1.0,-0.004021314997315821,26.8411475867033,10,3.934126984126984,7,30.134938172724453,10
subject-02,1,297,0.937641859054565,car,car,0,0_car_00_car-0010-ILSVRC2012-val-00012600.png,True,0.2734689852921388,0.6736605167388916,0.5,-1.159387738373587,27.828994512557983,10,1.6597985347985345,9,44.38270711246858,7
subject-02,1,298,1.0808470249176,dog,airplane,0,0_airplane_00_airplane-0024-ILSVRC2012-val-00024108.png,False,1.0112851047616715,1.65192973613739,0.5,-1.1614688944826805,28.151028513908386,10,4.128968253968253,3,24.942389941605025,10
subject-02,1,299,1.06267404556274,chair,knife,0,0_knife_00_knife-0018-ILSVRC2012-val-00014608.png,False,0.9176549830688068,2.279728412628174,0.0666666666666666,-5.165006359838076,28.255545139312744,9,0.2718073593073591,6,47.35772445445092,6
subject-02,1,300,0.696655988693237,clock,clock,0,0_clock_00_clock-0045-ILSVRC2012-val-00043497.png,True,-0.9681290998428504,0.026930533349514,1.0,-0.003393560417904557,26.296076141297817,10,7.833333333333333,10,19.569060707923423,10
subject-02,1,301,0.720340013504028,oven,bottle,0,0_bottle_00_bottle-0325-ILSVRC2012-val-00027316.png,False,-0.8461051828004237,0.9802392721176147,1.0,-0.23086863031883023,27.586875557899475,10,5.783333333333332,10,22.76361760120418,10
subject-02,1,302,1.04456901550293,bottle,oven,0,0_oven_00_oven-0026-ILSVRC2012-val-00022397.png,False,0.8243749471070848,0.1395502239465713,1.0,-0.02089464517329689,26.804007545113564,10,1.9561868686868686,9,54.858661176956375,10
subject-02,1,303,0.953908920288086,bottle,oven,0,0_oven_00_oven-0027-ILSVRC2012-val-00024603.png,False,0.357279509320084,0.0569123215973377,1.0,-0.007785448039648791,26.960984367877245,10,1.7541666666666664,10,55.114513000307205,6
subject-02,1,304,1.10369491577148,knife,bottle,0,0_bottle_00_bottle-0153-ILSVRC2012-val-00003318.png,False,1.1290011247549447,2.005091667175293,1.0,-0.9795712739744575,28.81213879585266,10,6.77136752136752,10,22.38827989671471,10
subject-02,1,305,0.992063045501709,oven,truck,0,0_truck_00_truck-0103-ILSVRC2012-val-00004552.png,False,0.553855718266303,2.3703463077545166,1.0,-1.4289620368235558,28.38361930847168,10,1.277594627594627,10,45.12725605965361,10
subject-02,1,306,0.727921009063721,oven,keyboard,0,0_keyboard_00_keyboard-0063-ILSVRC2012-val-00009383.png,False,-0.8070466705473243,1.8902236223220823,0.0666666666666666,-5.685044505170541,28.31062638759613,10,0.22703546453546405,8,49.21706470102917,7
subject-02,1,307,0.565659999847412,cat,cat,0,0_cat_00_cat-0045-ILSVRC2012-val-00041570.png,True,-1.6430415694721938,0.017275096848607,1.0,-0.0019115586833023366,26.09165191836655,10,4.758333333333333,7,30.343081019863554,9
subject-02,1,308,0.640998125076294,cat,cat,0,0_cat_00_cat-0042-ILSVRC2012-val-00040238.png,True,-1.2548873931232283,0.9302899241447448,1.0,-0.21316117078995364,26.857008635997772,10,2.819047619047619,9,36.313327282422605,10
subject-02,1,309,0.960865020751953,elephant,truck,0,0_truck_00_truck-0054-ILSVRC2012-val-00004119.png,False,0.39311846121794514,2.215998649597168,0.125,-3.1594982327508716,27.455347061157227,4,0.3248529248529246,7,48.794167939266856,5
subject-02,1,310,0.748924970626831,elephant,elephant,0,0_elephant_00_elephant-0003-ILSVRC2012-val-00003280.png,True,-0.6988308717625038,0.0076370388269424,1.0,-0.0007380585912770571,26.29683043062687,10,4.43015873015873,7,32.74542332560084,10
subject-02,1,311,0.66053295135498,car,car,0,0_car_00_car-0118-ILSVRC2012-val-00012327.png,True,-1.1542408163563214,0.2199092805385589,1.0,-0.04519156724237895,26.57490810751915,10,2.328388278388278,9,44.11490698884912,10
subject-02,1,312,0.92440390586853,keyboard,keyboard,0,0_keyboard_00_keyboard-0070-ILSVRC2012-val-00015929.png,True,0.2052649146458243,2.1657111644744873,1.0,-1.6572503344949872,28.720505237579346,10,2.6079476079476076,9,40.42813773635514,7
subject-02,1,313,1.0007758140564,knife,chair,0,0_chair_00_chair-0172-ILSVRC2012-val-00023378.png,False,0.5987453075916394,0.868456244468689,0.1428571428571428,-4.725565683849478,26.878878235816956,10,0.15325091575091537,10,53.00108113447163,7
subject-02,1,314,0.879966020584106,bird,boat,0,0_boat_00_boat-0011-ILSVRC2012-val-00011563.png,False,-0.023686240016740554,2.2173948287963867,0.125,-2.9760784685080046,28.737921953201294,10,1.851165501165501,1,29.73527009643003,0
subject-02,1,315,0.94002103805542,airplane,bird,0,0_bird_00_bird-1646-ILSVRC2012-val-00039398.png,False,0.28572689936496753,1.6622939109802246,1.0,-0.6357384651627269,28.104063987731934,10,2.192460317460317,10,34.186754766587974,10
subject-02,1,316,0.747905015945435,clock,clock,0,0_clock_00_clock-0091-ILSVRC2012-val-00044029.png,True,-0.7040858428421236,2.1770124435424805,0.1428571428571428,-3.048364051144066,29.20557689666748,10,5.217099567099567,5,25.8914291416313,10
subject-02,1,317,0.66582202911377,oven,bicycle,0,0_bicycle_00_bicycle-0039-ILSVRC2012-val-00037292.png,False,-1.126990634395041,0.3917407095432281,1.0,-0.07423548837366219,26.7483848631382,10,2.005133755133755,10,32.76722050818901,10
subject-02,1,318,0.83543586730957,cat,bird,0,0_bird_00_bird-1865-ILSVRC2012-val-00009672.png,False,-0.2531127742510227,2.026630401611328,0.1111111111111111,-3.6434430166724314,26.807312965393066,10,0.7202380952380949,9,40.02225760232868,0
subject-02,1,319,1.10921597480774,dog,dog,0,0_dog_00_dog-0158-ILSVRC2012-val-00004081.png,True,1.1574465116859691,1.8314487934112549,0.2,-3.2333654317478797,28.241410732269287,10,1.279040404040404,8,39.103577430706395,6
subject-02,1,320,0.851112127304077,boat,airplane,0,0_airplane_00_airplane-0017-ILSVRC2012-val-00019179.png,False,-0.17234615352726423,2.309171676635742,0.1,-3.7517667805794424,28.789970874786377,10,2.742857142857143,7,28.138230696582546,7
subject-02,1,321,0.920382976531982,car,bottle,0,0_bottle_00_bottle-0086-ILSVRC2012-val-00036795.png,False,0.18454843796096412,1.1702213287353516,1.0,-0.31802319515510374,27.574223518371582,10,6.535353535353535,10,21.214394322917038,10
subject-02,1,322,1.07018613815308,bird,bicycle,0,0_bicycle_00_bicycle-0067-ILSVRC2012-val-00018304.png,False,0.9563584961068876,0.5785760879516602,0.1666666666666666,-5.282777821327944,27.144852876663208,10,0.9515262515262513,3,37.734174056498944,6
subject-02,1,323,1.01789307594299,bear,bear,0,0_bear_00_bear-0094-ILSVRC2012-val-00043648.png,True,0.6869362025568855,0.5808554887771606,0.3333333333333333,-3.8265684034661818,27.769527316093445,10,1.6690476190476184,6,33.20291019669841,0
subject-02,1,324,1.02176594734192,bear,bear,0,0_bear_00_bear-0074-ILSVRC2012-val-00026962.png,True,0.7068898608592404,1.8093862533569336,0.1666666666666666,-3.724118562854121,27.389205932617188,10,1.0468614718614715,5,38.07369945176748,6
subject-02,1,325,1.24569511413574,bird,bird,0,0_bird_00_bird-0995-ILSVRC2012-val-00046534.png,True,1.8606090572594665,0.3616774678230285,1.0,-0.0665092906658205,26.502179205417633,10,2.2341269841269837,10,32.91357392366485,10
subject-02,1,326,0.87741494178772,cat,truck,0,0_truck_00_truck-0112-ILSVRC2012-val-00013466.png,False,-0.03682980957072418,0.8055212497711182,0.5,-1.1204094852825317,27.705613374710083,10,1.3411227661227658,7,40.21131841232672,10
subject-02,1,327,0.879204034805298,airplane,airplane,0,0_airplane_00_airplane-0039-ILSVRC2012-val-00037801.png,True,-0.02761211368912486,2.357736110687256,0.0909090909090909,-3.72493659967248,29.071764945983887,10,4.174242424242424,7,26.63284049805928,2
subject-02,1,328,0.871122121810913,oven,keyboard,0,0_keyboard_00_keyboard-0030-ILSVRC2012-val-00029239.png,False,-0.06925143338455154,2.338509321212769,0.0714285714285714,-4.146737002285998,29.169623374938965,10,0.3746142746142743,9,44.13311430275627,7
subject-02,1,329,0.98485803604126,cat,boat,0,0_boat_00_boat-0223-ILSVRC2012-val-00020544.png,False,0.5167343470586884,1.763660192489624,0.125,-4.334668250582359,28.557350397109985,10,1.5475940725940722,2,32.444472991150306,7
subject-02,1,330,0.97326397895813,bear,cat,0,0_cat_00_cat-0050-ILSVRC2012-val-00047911.png,False,0.4569998943632825,0.202919065952301,1.0,-0.032197518166856405,26.95715433359146,10,5.2523809523809515,6,29.42493005935187,10
subject-02,1,331,1.44868993759155,car,truck,0,0_truck_00_truck-0194-ILSVRC2012-val-00042924.png,False,2.9064711392029006,1.8184573650360107,0.1428571428571428,-3.5699099570031843,27.838031768798828,10,0.4154512154512152,7,46.306345714899045,5
subject-02,1,332,1.13659405708313,boat,bicycle,0,0_bicycle_00_bicycle-0010-ILSVRC2012-val-00010544.png,False,1.2985028087909614,2.099212169647217,0.125,-3.3381378685803207,28.113951921463013,10,1.0059274059274057,3,37.0035602049586,3
subject-02,1,333,1.06461882591248,airplane,bird,0,0_bird_00_bird-2248-ILSVRC2012-val-00044992.png,False,0.9276748052045404,1.4799926280975342,1.0,-0.5603139125510663,28.28309726715088,10,2.1083333333333334,10,33.46851870186664,10
subject-02,1,334,0.736128091812134,car,truck,0,0_truck_00_truck-0274-ILSVRC2012-val-00021717.png,False,-0.7647624560840635,1.4556336402893066,0.3333333333333333,-1.3838250118087205,27.36402130126953,10,1.2514763014763013,9,42.42070760726369,10
subject-02,1,335,1.2557520866394,bear,elephant,0,0_elephant_00_elephant-0096-ILSVRC2012-val-00046061.png,False,1.9124242022058378,2.1363065242767334,0.3333333333333333,-2.186313076723181,28.599854946136475,10,1.2706099456099456,9,38.57436111089778,0
subject-02,1,336,1.01951813697815,clock,elephant,0,0_elephant_00_elephant-0057-ILSVRC2012-val-00004013.png,False,0.6953087791998933,0.9508681297302246,0.1,-5.394470034682947,27.549009799957275,10,3.441666666666667,7,36.150455160397904,0
subject-02,1,337,0.941810131072998,cat,cat,0,0_cat_00_cat-0284-ILSVRC2012-val-00027069.png,True,0.29494459524656685,2.203329563140869,1.0,-1.1691922387898825,29.08806037902832,10,4.794047619047619,7,31.665877040814035,0
subject-02,1,338,0.853192090988159,bicycle,bicycle,0,0_bicycle_00_bicycle-0092-ILSVRC2012-val-00043207.png,True,-0.16162984504231312,0.0482061803340911,1.0,-0.006219375432289624,26.83530554175377,10,2.692857142857143,9,31.73303045325333,10
subject-02,1,339,0.701100826263428,boat,cat,0,0_cat_00_cat-0062-ILSVRC2012-val-00013788.png,False,-0.9452285795442512,1.8799729347229004,1.0,-0.7013974420333801,28.142326712608337,10,4.2900793650793645,8,32.32724764221474,10
subject-02,1,340,1.50000500679016,bird,knife,0,0_knife_00_knife-0046-ILSVRC2012-val-00045197.png,False,3.1708546549668513,2.2787365913391113,0.0625,-6.165372918926818,28.700112342834473,10,0.3168220668220667,4,45.31753027794743,3
subject-02,1,341,1.26064896583557,bear,boat,0,0_boat_00_boat-0170-ILSVRC2012-val-00020353.png,False,1.937653713894576,1.626819372177124,0.0714285714285714,-5.191777769194547,28.442313194274902,10,1.3540043290043289,10,34.2178150711597,3
subject-02,1,342,1.40036201477051,boat,chair,0,0_chair_00_chair-0154-ILSVRC2012-val-00004705.png,False,2.657477883527011,1.9331729412078855,1.0,-1.0887019503805528,28.380513191223145,10,1.0730158730158725,10,46.437430877665705,10
subject-02,1,343,0.976871967315674,oven,boat,0,0_boat_00_boat-0100-ILSVRC2012-val-00048371.png,False,0.47558883249977707,1.583891749382019,0.5,-1.4596008895137391,28.703105330467224,10,2.591666666666667,1,28.790538596726655,10
subject-02,1,344,0.836250066757202,bicycle,bicycle,0,0_bicycle_00_bicycle-0094-ILSVRC2012-val-00044080.png,True,-0.24891788733262285,0.6946726441383362,1.0,-0.16994375452427837,26.888343155384064,10,2.0230269730269725,10,31.818198202029375,10
subject-02,1,345,1.25008392333984,elephant,elephant,0,0_elephant_00_elephant-0036-ILSVRC2012-val-00034664.png,True,1.8832209103762616,0.0020103550050407,1.0,-0.00016601271504782647,27.0103595352266,10,5.252380952380952,6,28.875918065818635,10
subject-02,1,346,0.805797100067139,truck,truck,0,0_truck_00_truck-0096-ILSVRC2012-val-00044888.png,True,-0.4058164850486218,1.519148588180542,0.2,-3.8823873301827807,27.443050265312195,10,0.3997557997557994,10,49.295696036800834,5
subject-02,1,347,0.87949800491333,cat,bicycle,0,0_bicycle_00_bicycle-0096-ILSVRC2012-val-00045152.png,False,-0.026097532262951605,0.7406437397003174,1.0,-0.1560249647886103,27.62941002845764,10,2.288131313131313,10,30.46554108916344,10
subject-02,1,348,1.04140591621399,bear,bear,0,0_bear_00_bear-0064-ILSVRC2012-val-00016050.png,True,0.8080781492311295,2.0115647315979004,0.25,-2.4009386482698254,28.175137996673584,10,1.4138888888888888,10,33.15228736666147,0
subject-02,1,349,0.971112012863159,car,car,0,0_car_00_car-0030-ILSVRC2012-val-00029057.png,True,0.44591261784045017,1.325063943862915,0.3333333333333333,-2.4733385453701136,27.703836798667908,10,1.0007326007326003,9,46.60655443404136,6
subject-02,1,350,1.3229649066925,airplane,chair,0,0_chair_00_chair-0097-ILSVRC2012-val-00043453.png,False,2.258715495339857,1.6436394453048706,0.1,-4.460959062468139,28.154850125312805,10,0.11263736263736207,10,51.844026954653046,7
subject-02,1,351,0.857178926467896,cat,boat,0,0_boat_00_boat-0129-ILSVRC2012-val-00027504.png,False,-0.14108902540849927,1.8235294818878176,0.1666666666666666,-3.1053019847104073,29.038841247558594,10,2.395039682539682,3,30.139666789597207,3
subject-02,1,352,1.15262603759766,bird,bottle,0,0_bottle_00_bottle-0334-ILSVRC2012-val-00036776.png,False,1.381102159026377,0.0158411990851163,1.0,-0.001671995990355586,27.065260840579867,10,8.5,9,19.87171814312762,10
subject-02,1,353,1.05643510818481,chair,bicycle,0,0_bicycle_00_bicycle-0089-ILSVRC2012-val-00042393.png,False,0.8855109710978959,0.0009749215096235,1.0,-7.993302320278051e-05,26.991216687485576,10,2.9166666666666665,9,28.891023454050853,10
subject-02,1,354,0.774680137634277,car,truck,0,0_truck_00_truck-0284-ILSVRC2012-val-00030765.png,False,-0.5661360959616221,0.2649036049842834,0.1428571428571428,-7.724034584418311,25.98054438829422,10,0.3084970584970582,10,51.58379372389813,6
subject-02,1,355,0.710028886795044,boat,boat,0,0_boat_00_boat-0217-ILSVRC2012-val-00015089.png,True,-0.8992297712182568,0.0883697792887687,1.0,-0.014090943434045381,27.008656434714794,10,2.7351190476190474,10,26.601044318330512,10
subject-02,1,356,0.749971151351929,elephant,bear,0,0_bear_00_bear-0005-ILSVRC2012-val-00006703.png,False,-0.693440779874381,0.8925775289535522,0.25,-2.9463815174008303,27.385580897331238,10,1.8916666666666664,6,31.495085361680538,0
subject-02,1,357,1.07803010940552,bottle,keyboard,0,0_keyboard_00_keyboard-0006-ILSVRC2012-val-00002499.png,False,0.996771901557925,1.6620339155197144,0.3333333333333333,-2.3611979075218312,27.767775297164917,10,1.2170745920745918,9,41.82834493973114,7
subject-02,1,358,0.857438087463379,chair,knife,0,0_knife_00_knife-0049-ILSVRC2012-val-00048820.png,False,-0.13975378614633424,1.82255220413208,0.5,-1.8201415562694174,27.95419669151306,10,0.9974747474747475,10,40.766608873639086,10
subject-02,1,359,1.2494158744812,chair,chair,0,0_chair_00_chair-0053-ILSVRC2012-val-00001855.png,True,1.8797790148725118,1.9960803985595703,0.5,-2.201115566296811,28.403083562850952,10,0.5766233766233761,10,47.960712115098026,7
subject-02,1,360,1.09940981864929,bear,bear,0,0_bear_00_bear-0078-ILSVRC2012-val-00030951.png,True,1.1069236130172182,1.4175913333892822,1.0,-0.5960992263516172,28.334694862365723,10,2.3761904761904757,10,30.709628835144876,10
subject-02,1,361,0.81489896774292,keyboard,keyboard,0,0_keyboard_00_keyboard-0055-ILSVRC2012-val-00001330.png,True,-0.35892219427357525,2.353855848312378,0.2,-2.383986887661541,28.246381044387817,4,0.5312271062271059,9,45.64927083238652,7
subject-02,1,362,0.694849967956543,car,car,0,0_car_00_car-0067-ILSVRC2012-val-00018569.png,True,-0.9774340100644797,0.2871089279651642,1.0,-0.08471250186176418,26.602209597826004,10,3.1859640359640355,8,42.54228986584129,10
subject-02,1,363,0.998610973358154,bicycle,bicycle,0,0_bicycle_00_bicycle-0074-ILSVRC2012-val-00028824.png,True,0.5875916990355255,1.427654266357422,0.3333333333333333,-1.7804613096613846,28.281892776489258,10,1.0809634809634807,10,33.60532684759207,10
subject-02,1,364,0.900395154953003,keyboard,boat,0,0_boat_00_boat-0235-ILSVRC2012-val-00032371.png,False,0.0815679563199852,1.4628400802612305,1.0,-0.6331146852738706,28.178082704544067,10,2.499206349206349,10,28.799629872425495,10
subject-02,1,365,0.838213205337524,dog,dog,0,0_dog_00_dog-2629-ILSVRC2012-val-00030579.png,True,-0.2388034806309863,2.412717819213867,0.1428571428571428,-2.7942195957545564,28.827954530715942,10,1.2302308802308801,8,39.88840958255041,6
subject-02,1,366,0.711851119995117,oven,clock,0,0_clock_00_clock-0118-ILSVRC2012-val-00018443.png,False,-0.8898413317695548,1.446574330329895,1.0,-0.5093340972621935,27.473496556282043,10,7.5,10,20.68832868299444,10
subject-02,1,367,0.969819784164429,keyboard,bird,0,0_bird_00_bird-2118-ILSVRC2012-val-00021926.png,False,0.4392548470944147,1.8826932907104492,0.0666666666666666,-5.667670307336903,27.565754652023315,10,0.5670385170385166,0,42.98983533901364,0
subject-02,1,368,1.00951814651489,cat,knife,0,0_knife_00_knife-0008-ILSVRC2012-val-00006102.png,False,0.6437872149192332,1.8212136030197144,0.25,-2.518132665112609,27.409619450569153,10,0.6209165834165832,10,43.15196363408173,6
subject-02,1,369,0.915534019470215,truck,truck,0,0_truck_00_truck-0060-ILSVRC2012-val-00007519.png,True,0.15956582884050075,0.0378085896372795,1.0,-0.004751868080857535,25.871463231742382,10,2.19029304029304,10,41.746831454228804,10
subject-02,1,370,0.765078067779541,airplane,bear,0,0_bear_00_bear-0066-ILSVRC2012-val-00016621.png,False,-0.6156075090660386,1.764005422592163,0.25,-2.8278061200204605,27.001251220703125,10,1.1254329004329002,8,38.05927140461493,6
subject-02,1,371,1.11705994606018,bear,oven,0,0_oven_00_oven-0041-ILSVRC2012-val-00039789.png,False,1.1978599171370066,2.0415730476379395,0.3333333333333333,-2.0069565067722643,29.091530084609985,10,0.4242424242424242,10,57.93800430851605,6
subject-02,1,372,1.02870583534241,car,airplane,0,0_airplane_00_airplane-0037-ILSVRC2012-val-00035783.png,False,0.7426452835300387,2.2068870067596436,0.5,-1.646590553159895,28.673588752746582,10,5.166666666666666,7,24.488912704925166,10
subject-02,1,373,1.09851217269897,clock,clock,0,0_clock_00_clock-0013-ILSVRC2012-val-00013244.png,True,1.102298796253582,0.0046350676566362,1.0,-0.000423461438980269,26.57292458601296,10,8.416666666666668,10,20.361481447603545,10
subject-02,1,374,0.724344968795776,car,car,0,0_car_00_car-0095-ILSVRC2012-val-00041430.png,True,-0.8254710069716503,0.8577733039855957,0.5,-0.8881850512686031,27.466660261154175,10,1.648351648351648,9,44.09835679996442,10
subject-02,1,375,1.29670786857605,knife,bottle,0,0_bottle_00_bottle-0057-ILSVRC2012-val-00005967.png,False,2.123434998612725,0.6575778722763062,1.0,-0.14547279239899083,27.025742650032043,10,7.833333333333333,10,21.040647130594152,10
subject-02,1,376,0.662101984024048,clock,clock,0,0_clock_00_clock-0028-ILSVRC2012-val-00021179.png,True,-1.1461569068951234,0.0978189706802368,1.0,-0.01615249377682431,26.66276252269745,10,5.666666666666666,10,22.20175788209056,10
subject-02,1,377,0.840425968170166,bird,bicycle,0,0_bicycle_00_bicycle-0070-ILSVRC2012-val-00020631.png,False,-0.2274029695066332,2.375452995300293,0.1,-3.5449879148816694,28.939794063568115,10,0.8583333333333333,1,35.98208144841344,6
subject-02,1,378,0.730136156082153,clock,clock,0,0_clock_00_clock-0129-ILSVRC2012-val-00031861.png,True,-0.7956338757131133,0.6576575040817261,0.3333333333333333,-4.098756964753375,26.813478350639343,10,7.041666666666666,2,23.84694296985895,2
subject-02,1,379,0.894001960754395,chair,bicycle,0,0_bicycle_00_bicycle-0038-ILSVRC2012-val-00036903.png,False,0.04862918832090627,0.1613263487815857,0.0625,-9.238427992902341,26.781246602535248,10,0.8285464535464535,7,42.88437048520508,6
subject-02,1,380,0.723234891891479,cat,cat,0,0_cat_00_cat-0234-ILSVRC2012-val-00028970.png,True,-0.8311903022841148,0.8295836448669434,0.5,-2.2394903943849727,27.247798919677734,10,4.127380952380952,7,32.95993017963969,0
subject-02,1,381,0.699213981628418,bear,bear,0,0_bear_00_bear-0131-ILSVRC2012-val-00031877.png,True,-0.9549499075302573,0.3840320706367492,1.0,-0.10584080599707858,27.589151203632355,10,2.8761904761904757,10,26.950275934093927,10
subject-02,1,382,0.82302188873291,keyboard,bird,0,0_bird_00_bird-0175-ILSVRC2012-val-00018699.png,False,-0.317071594768498,1.989030599594116,0.2,-2.784406773842891,27.864471316337585,10,1.2242063492063486,9,36.199319035026264,0
subject-02,1,383,0.824765205383301,boat,dog,0,0_dog_00_dog-4443-ILSVRC2012-val-00045160.png,False,-0.3080897461162763,0.9331793189048768,0.1111111111111111,-4.8810090862811615,25.75349861383438,10,0.5135642135642133,9,46.66829647513945,6
subject-02,1,384,0.778456926345825,oven,airplane,0,0_airplane_00_airplane-0014-ILSVRC2012-val-00016995.png,False,-0.5466774711667889,1.7773795127868652,1.0,-0.5964912535217508,28.569005012512207,10,4.4,10,24.23057048604232,10
subject-02,1,385,0.860323905944824,car,boat,0,0_boat_00_boat-0137-ILSVRC2012-val-00035374.png,False,-0.12488558372750799,1.426727056503296,0.0833333333333333,-4.9808908582671485,27.433292865753174,10,1.388095238095238,0,37.14547577691448,7
subject-02,1,386,0.870630979537964,bird,knife,0,0_knife_00_knife-0028-ILSVRC2012-val-00026439.png,False,-0.07178187761643949,2.1184751987457275,1.0,-1.3683250476889608,28.634111642837524,10,1.7536435786435782,10,36.280543412639325,10
subject-02,1,387,0.687933921813965,cat,cat,0,0_cat_00_cat-0118-ILSVRC2012-val-00010218.png,True,-1.013066595636634,0.1891818642616272,1.0,-0.03722384500201531,26.652691900730133,10,4.353571428571428,7,28.340732870990923,10
subject-02,1,388,1.06589102745056,bottle,bottle,0,0_bottle_00_bottle-0243-ILSVRC2012-val-00040157.png,True,0.934229392787694,0.3681971132755279,1.0,-0.06966747870665478,25.797903925180435,10,6.799242424242424,10,19.890787343376378,10
subject-02,1,389,0.977518081665039,bear,bear,0,0_bear_00_bear-0067-ILSVRC2012-val-00017273.png,True,0.47891771787279447,1.3438565731048584,0.25,-2.831282060192627,28.158371925354004,10,1.571428571428571,6,34.15181848926197,6
subject-02,1,390,0.803344964981079,car,truck,0,0_truck_00_truck-0329-ILSVRC2012-val-00029413.png,False,-0.4184502806432742,1.2634353637695312,1.0,-0.5023046513394778,27.799858570098877,10,1.456227106227106,10,44.16202800256919,10
subject-02,1,391,0.869684934616089,bottle,knife,0,0_knife_00_knife-0050-ILSVRC2012-val-00048891.png,False,-0.0766560536902919,1.8772777318954468,0.1428571428571428,-4.062267850252582,28.97580397129059,10,0.42312409812409796,10,41.86446127732792,3
subject-02,1,392,0.848926067352295,bicycle,bicycle,0,0_bicycle_00_bicycle-0079-ILSVRC2012-val-00031485.png,True,-0.1836090871011423,0.0260700099170207,1.0,-0.0028378661669744344,26.855014692991972,10,2.022222222222222,10,30.65784884824342,10
subject-02,1,393,1.06701397895813,bear,clock,0,0_clock_00_clock-0145-ILSVRC2012-val-00044685.png,False,0.9400150201334302,1.4177981615066528,0.5,-1.1814727338049116,27.641391158103943,10,4.290909090909091,10,23.293310637719568,10
subject-02,1,394,0.916543960571289,knife,keyboard,0,0_keyboard_00_keyboard-0056-ILSVRC2012-val-00003296.png,False,0.16476920833869485,2.1585378646850586,0.1428571428571428,-3.407546337228565,28.183214902877808,10,0.5562271062271057,9,46.22885052276775,5
subject-02,1,395,0.910597085952759,airplane,airplane,0,0_airplane_00_airplane-0008-ILSVRC2012-val-00010597.png,True,0.13412995082607046,2.1980385780334473,0.1666666666666666,-3.047686390789091,28.64049506187439,10,2.972222222222222,0,29.273095992137982,5
subject-02,1,396,0.730291128158569,boat,boat,0,0_boat_00_boat-0181-ILSVRC2012-val-00031072.png,True,-0.7948354345719832,1.8716294765472412,0.125,-3.773211623744308,29.06790065765381,10,1.5333333333333332,1,32.90233041146705,3
subject-02,1,397,0.846017122268677,chair,oven,0,0_oven_00_oven-0004-ILSVRC2012-val-00003075.png,False,-0.198596441505646,1.4747272729873655,0.2,-3.4912347785767928,27.422536730766296,10,0.150595238095238,10,62.44288783926129,6
subject-02,1,398,0.75389289855957,boat,boat,0,0_boat_00_boat-0195-ILSVRC2012-val-00042203.png,True,-0.6732353055198487,0.6563072204589844,1.0,-0.25435390697299853,26.720811128616333,10,2.6825757575757576,10,27.342540191067087,10
subject-02,1,399,0.698141098022461,bottle,bear,0,0_bear_00_bear-0125-ILSVRC2012-val-00028222.png,False,-0.9604775769688495,2.1502339839935303,0.5,-1.7495951638825211,28.903801918029785,10,1.9202380952380946,10,32.92413894597098,10
subject-02,1,400,0.829675912857056,car,car,0,0_car_00_car-0121-ILSVRC2012-val-00016638.png,True,-0.2827889889103439,1.9210439920425415,0.3333333333333333,-1.689346298886264,28.484261870384216,10,0.7538461538461534,9,47.53663628135205,6
subject-02,1,401,0.791479110717773,airplane,boat,0,0_boat_00_boat-0169-ILSVRC2012-val-00019970.png,False,-0.47958507626312474,2.1304774284362793,0.0769230769230769,-4.871723461883512,29.216540575027466,10,1.313665501165501,1,34.80974234483068,7
subject-02,1,402,0.867358922958374,bottle,cat,0,0_cat_00_cat-0202-ILSVRC2012-val-00001496.png,False,-0.0886400410331614,1.90292227268219,1.0,-0.83119657815059,28.6505628824234,10,4.7940476190476184,6,31.488592524133043,10
subject-02,1,403,0.839057207107544,cat,dog,0,0_dog_00_dog-4070-ILSVRC2012-val-00021155.png,False,-0.2344550473392911,1.799480438232422,0.1428571428571428,-3.671898163842595,27.74857783317566,10,1.3778138528138526,8,40.74117239653842,6
subject-02,1,404,1.25316119194031,dog,dog,0,0_dog_00_dog-2535-ILSVRC2012-val-00038253.png,True,1.8990754946971637,0.8076376914978027,1.0,-0.1988239821799212,27.854138135910034,10,2.1588383838383836,10,34.275992287071546,10
subject-02,1,405,0.96251916885376,keyboard,keyboard,0,0_keyboard_00_keyboard-0058-ILSVRC2012-val-00007790.png,True,0.40164089912127043,1.449704885482788,1.0,-0.6038430788713057,28.42755651473999,10,1.8385281385281382,10,38.821564974239635,10
subject-02,1,406,1.0344181060791,knife,bottle,0,0_bottle_00_bottle-0031-ILSVRC2012-val-00033822.png,False,0.7720758239920708,1.7965631484985352,0.0909090909090909,-4.41118511167912,28.420133352279663,10,3.910353535353535,2,29.041621824506553,2
subject-02,1,407,0.822335004806519,bottle,airplane,0,0_airplane_00_airplane-0013-ILSVRC2012-val-00015636.png,False,-0.3206105315801808,2.1828408241271973,1.0,-1.1865571306355376,28.598978757858276,10,6.999999999999999,7,22.295784458477325,10
subject-02,1,408,0.96788501739502,chair,boat,0,0_boat_00_boat-0196-ILSVRC2012-val-00042675.png,False,0.42928661654015315,2.483760356903076,0.0909090909090909,-3.2421200127986545,29.47343611717224,10,1.3551698301698298,1,32.6224012514875,3
subject-02,1,409,0.667868852615356,boat,cat,0,0_cat_00_cat-0072-ILSVRC2012-val-00019303.png,False,-1.1164450694771972,0.1149539276957511,1.0,-0.018771862463619608,26.957434825599194,10,5.401190476190476,6,28.16700384082471,10
subject-02,1,410,0.861520051956177,elephant,elephant,0,0_elephant_00_elephant-0033-ILSVRC2012-val-00033715.png,True,-0.11872284648896803,0.0003031852538697,1.0,-2.2053961753610278e-05,26.699884331494104,10,4.046067821067821,8,30.99375304047909,10
subject-02,1,411,0.641443014144897,bottle,truck,0,0_truck_00_truck-0373-ILSVRC2012-val-00019053.png,False,-1.2525952528626942,2.435732126235962,0.1428571428571428,-2.704830540076939,29.426311492919922,10,0.3240342990342987,9,44.76827798759868,7
subject-02,1,412,0.69518780708313,cat,dog,0,0_dog_00_dog-1613-ILSVRC2012-val-00015923.png,False,-0.9756934083768156,2.1671056747436523,0.1428571428571428,-2.9719751004218184,28.381350994110107,10,0.8413419913419912,9,40.6331871223653,6
subject-02,1,413,0.889096021652222,chair,chair,0,0_chair_00_chair-0136-ILSVRC2012-val-00037994.png,True,0.02335299853470087,0.5144385695457458,1.0,-0.14478764642859113,27.539362847805023,10,1.560714285714285,10,43.6162897957849,10
subject-02,1,414,0.789029836654663,dog,dog,0,0_dog_00_dog-3802-ILSVRC2012-val-00003862.png,True,-0.49220413140593694,0.4390772581100464,1.0,-0.10210804596612645,26.93666660785675,10,2.203210678210678,10,34.275528538824204,10
subject-02,1,415,0.638948917388916,oven,clock,0,0_clock_00_clock-0084-ILSVRC2012-val-00034426.png,False,-1.2654452417509403,0.0774579867720604,1.0,-0.011693391918006566,25.458653531968594,10,9.5,2,18.255185456275548,10
subject-02,1,416,0.784509897232056,bear,knife,0,0_knife_00_knife-0038-ILSVRC2012-val-00037845.png,False,-0.5154915885652325,0.6880066394805908,0.25,-3.7638310524870913,27.371854066848755,10,0.519191919191919,10,42.839452589468344,7
subject-02,1,417,1.38640999794006,oven,elephant,0,0_elephant_00_elephant-0078-ILSVRC2012-val-00027908.png,False,2.585594841776536,2.346076488494873,0.25,-2.0098355025819763,29.117915391921997,10,1.802380952380952,8,33.769491029220674,0
subject-02,1,418,0.806337833404541,knife,boat,0,0_boat_00_boat-0222-ILSVRC2012-val-00019246.png,False,-0.40303053965157276,0.4985998272895813,0.0833333333333333,-6.942269395619293,27.628773510456085,10,1.8594988344988344,1,35.33189069637798,3
subject-02,1,419,0.800041198730469,oven,knife,0,0_knife_00_knife-0025-ILSVRC2012-val-00022700.png,False,-0.43547181740117896,2.137990713119507,0.0833333333333333,-4.332276618171616,28.30440878868103,10,0.3914543789543787,7,44.563412630864555,6
subject-02,1,420,,na,chair,0,0_chair_00_chair-0193-ILSVRC2012-val-00044295.png,False,,0.2592677175998688,1.0,-0.048163945271154474,26.627419382333755,10,2.189682539682539,9,42.636194317387606,10
subject-02,1,421,0.757701873779297,car,car,0,0_car_00_car-0013-ILSVRC2012-val-00014541.png,True,-0.653610850641856,1.658503532409668,0.1666666666666666,-3.662143627451548,27.67550039291382,10,0.5330891330891327,9,47.435025708919554,6
subject-02,1,422,0.613546133041382,clock,car,0,0_car_00_car-0012-ILSVRC2012-val-00014447.png,False,-1.396324485233992,1.710159420967102,0.0769230769230769,-4.875840605972621,27.737266182899475,10,0.5633699633699629,7,51.68092491317781,6
subject-02,1,423,1.02911877632141,knife,boat,0,0_boat_00_boat-0048-ILSVRC2012-val-00046387.png,False,0.7447728220783842,1.241483449935913,0.0714285714285714,-5.449092249532265,28.139209508895874,10,1.5476190476190474,1,33.34158041866787,3
subject-02,1,424,0.91943097114563,bicycle,bicycle,0,0_bicycle_00_bicycle-0078-ILSVRC2012-val-00030892.png,True,0.17964355261245574,0.2949061393737793,1.0,-0.05349319133428339,26.960825204849243,10,1.9959457209457208,10,32.06802860392902,10
subject-02,1,425,0.750792026519775,car,car,0,0_car_00_car-0060-ILSVRC2012-val-00014208.png,True,-0.6892114985683684,2.303035259246826,0.2,-2.7095429059663334,29.28280472755432,10,0.4607142857142853,9,48.70216141768969,7
subject-02,1,426,1.01259303092957,keyboard,knife,0,0_knife_00_knife-0001-ILSVRC2012-val-00000564.png,False,0.6596295155302776,1.558747410774231,0.1666666666666666,-3.728067605779908,27.923657059669495,10,0.46300505050505025,10,43.37223373888905,6
