subject_id,Session,trial,rt,object_response,category,condition,item_id,response_correct,rt_zscore,output_entropy,output_rank_correct,output_logprob_correct,auc_entropy,layer_biggest_change_entropy,auc_rank_correct,layer_biggest_change_rank_correct,auc_logprob_correct,layer_biggest_change_logprob_correct
subject-02,1,1,1.00961899757385,clock,clock,0.0,0.00_clock_10_n03196217_6064.png,True,0.8291762028083088,0.0107798483222723,1.0,-0.001156879826838796,25.66296504996717,10,9.25,2,17.79062460481369,10
subject-02,1,2,0.709587097167969,keyboard,bear,0.35,0.35_bear_10_n02134418_2372.png,False,-0.6467415094603195,2.415943145751953,0.1428571428571428,-2.905540108518164,28.08171057701111,4,0.9746031746031742,5,38.1653258916234,5
subject-02,1,3,0.757214069366455,chair,knife,0.03,0.03_knife_10_n03041632_3504.png,False,-0.41245478276766295,1.6334474086761477,0.5,-1.4748165669541533,28.03092622756958,10,1.555133755133755,8,37.66900716466168,10
subject-02,1,4,0.81725001335144,bottle,bottle,0.0,0.00_bottle_10_n04557648_9790.png,True,-0.11712580948069529,0.1019407957792282,1.0,-0.013757916772274104,26.085780188441277,10,4.809523809523809,9,21.83979391511088,10
subject-02,1,5,0.805033922195435,cat,truck,0.6,0.60_truck_10_n03417042_4876.png,False,-0.17721923717103452,2.524386405944824,0.0625,-4.1622041002021355,28.233694791793823,4,0.09148351648351608,3,50.29910065948411,5
subject-02,1,6,1.36264896392822,bear,elephant,0.1,0.10_elephant_10_n02504013_7774.png,False,2.565802140247457,0.0489090830087661,1.0,-0.006714604075012785,26.97197975218296,10,3.1107142857142858,9,32.50188998807733,10
subject-02,1,7,0.75639796257019,airplane,airplane,0.03,0.03_airplane_10_n02690373_7686.png,True,-0.4164693774626965,0.0012246335390955,1.0,-0.00010026003838188917,25.858153697336093,10,8.083333333333332,0,18.580363104505686,9
subject-02,1,8,0.880709886550903,truck,truck,0.1,0.10_truck_10_n03417042_9559.png,True,0.1950461653883235,0.0495727993547916,1.0,-0.007206776118760522,26.582398030906916,10,2.426379176379176,10,39.630967232734804,10
subject-02,1,9,0.936077117919922,bird,bird,0.1,0.10_bird_10_n02006656_5719.png,True,0.46740879531621954,0.8458589315414429,1.0,-0.1991978835490099,27.898483157157898,10,1.9456349206349206,10,34.320399069962534,10
subject-02,1,10,0.815845012664795,cat,airplane,0.6,0.60_airplane_10_n02690373_3377.png,False,-0.12403729254754128,2.5261635780334473,0.0666666666666666,-4.0478672786119105,28.23140561580658,4,1.7861111111111112,4,31.692751802110248,4
subject-02,1,11,1.20981311798096,boat,boat,0.1,0.10_boat_10_n04612504_19388.png,True,1.8139716455635024,0.0793552622199058,1.0,-0.01091032733954959,27.10913660377264,10,4.677777777777778,10,24.43572812644776,10
subject-02,1,12,0.755635976791382,bottle,bottle,0.0,0.00_bottle_10_n04557648_5627.png,True,-0.42021773990655065,0.010195318609476,1.0,-0.001089271878087326,24.74973911419511,10,4.95,9,21.370276077129564,10
subject-02,1,13,1.02727603912354,keyboard,keyboard,0.1,0.10_keyboard_10_n03085013_9146.png,True,0.916034767961535,2.141903877258301,0.5,-1.72176955162186,29.046396017074585,10,0.7881174381174378,10,40.484616236908614,10
subject-02,1,14,0.749420881271362,bird,bird,0.35,0.35_bird_10_n02027492_6813.png,True,-0.45079105410757314,2.3761003017425537,0.0909090909090909,-3.893008990088038,28.200065851211548,4,0.547233322233322,9,40.907663351377735,5
subject-02,1,15,1.48101496696472,knife,bird,0.03,0.03_bird_10_n01843065_4999.png,False,3.148068493177534,0.0067380089312791,1.0,-0.0006485896146447598,26.95703131146729,10,1.843290043290043,10,34.499523312807774,10
subject-02,1,16,1.50001907348633,airplane,airplane,0.03,0.03_airplane_10_n02690373_10817.png,True,3.24155354387761,0.0009219952626153,1.0,-7.504506358256285e-05,25.972779781441204,10,8.916666666666666,0,18.09225179059647,10
subject-02,1,17,1.01250600814819,oven,clock,0.6,0.60_clock_10_n03196217_3697.png,False,0.8433779928060088,2.5113582611083984,0.5,-2.125869787402661,28.27601706981659,4,7.924242424242424,2,21.537360411416813,10
subject-02,1,18,0.846814155578613,airplane,oven,0.35,0.35_oven_10_n04111531_2677.png,False,0.028306196589610453,2.4625701904296875,0.0625,-4.440963020138061,28.3043954372406,4,0.0725940725940725,9,58.68550467434385,6
subject-02,1,19,0.706240177154541,chair,chair,0.0,0.00_chair_10_n03376595_11352.png,True,-0.6632056871783627,0.0016495073214173,1.0,-0.00013674240393113114,25.695333608426154,10,2.1756465756465753,9,41.814698590353835,10
subject-02,1,20,0.882130861282349,bicycle,truck,0.0,0.00_truck_10_n03417042_5105.png,False,0.20203622801829768,0.0008434982737526,1.0,-6.491156487044383e-05,26.468709203763865,10,3.5316239316239315,8,37.04102549883709,10
subject-02,1,21,1.03816390037537,oven,oven,0.6,0.60_oven_10_n04111531_9915.png,True,0.969594363619731,2.451582670211792,0.0909090909090909,-3.821386444206189,28.180074453353882,4,0.4172979797979797,7,55.62290725867586,5
subject-02,1,22,1.08187413215637,chair,bottle,0.35,0.35_bottle_10_n03983396_10174.png,False,1.1846138505665282,2.467952013015747,0.0769230769230769,-4.022559984324702,28.210365176200867,4,3.6955128205128207,1,28.729440205699348,4
subject-02,1,23,0.725475072860718,clock,boat,0.03,0.03_boat_10_n03344393_8545.png,False,-0.568585337715583,1.5666531324386597,0.1428571428571428,-4.665662556171712,27.916176080703735,10,5.108008658008657,0,28.119396641623148,3
subject-02,1,24,0.801249027252197,cat,cat,0.05,0.05_cat_10_n02123394_7223.png,True,-0.19583790231378742,0.0041157891973853,1.0,-0.0003999675381507682,26.640592305921018,10,5.106746031746032,6,30.45665614272769,10
subject-02,1,25,0.631569862365723,oven,clock,0.35,0.35_clock_10_n03196217_6672.png,False,-1.0305240957489281,2.5124316215515137,1.0,-1.8633232468480567,28.376338005065918,4,8.404761904761905,10,21.130720436372435,10
subject-02,1,26,0.762871026992798,clock,airplane,0.9,0.90_airplane_10_n02690373_427.png,False,-0.3846270619587157,2.4566216468811035,0.125,-3.227879211668804,27.644879579544067,4,2.317857142857143,4,30.223371845072705,9
subject-02,1,27,0.776888132095337,cat,oven,0.9,0.90_oven_10_n04111531_5246.png,False,-0.3156740817336741,2.5283050537109375,0.0666666666666666,-4.072536946549102,28.00023889541626,4,0.8208333333333333,9,55.48166009946545,6
subject-02,1,28,0.994895935058594,bear,bear,0.9,0.90_bear_10_n02134084_12801.png,True,0.7567504750250013,2.518843173980713,0.125,-3.159459003341096,28.125821948051453,4,0.6594988344988344,8,39.70578098077339,6
subject-02,1,29,0.802371978759766,bird,bird,0.1,0.10_bird_10_n01843383_386.png,True,-0.19031387630922716,1.9392859935760496,1.0,-0.8256301493444096,28.77334213256836,10,1.454365079365079,10,36.46444818277106,10
subject-02,1,30,0.920193910598755,cat,bottle,0.6,0.60_bottle_10_n04579145_2485.png,False,0.38927608015748966,2.469762086868286,0.1,-3.230939849011529,28.34136176109314,4,5.24090909090909,0,25.993018216341966,3
subject-02,1,31,0.820220947265625,oven,oven,0.9,0.90_oven_10_n04111531_2054.png,True,-0.10251118356927244,2.4835410118103027,0.0625,-4.38332490626785,27.815959811210632,4,0.5357142857142856,9,56.094484931956885,5
subject-02,1,32,0.865884065628052,car,car,0.03,0.03_car_10_n03100240_15979.png,True,0.12211494817656297,0.0048919897526502,1.0,-0.0005029512420994056,25.89267194084823,10,2.3419413919413916,9,41.31466252062778,6
subject-02,1,33,1.069904088974,bird,car,0.9,0.90_car_10_n03100240_18270.png,False,1.12573078271414,2.485241174697876,0.0909090909090909,-3.561011762838521,27.698301434516907,4,0.27309912309912276,7,50.13073250235898,5
subject-02,1,34,0.923481941223145,car,truck,0.6,0.60_truck_10_n03796401_6184.png,False,0.4054505690383518,2.4945592880249023,0.0666666666666666,-4.305509734615698,28.22299313545227,4,0.08195970695970647,3,50.73362353273545,5
subject-02,1,35,1.32122492790222,truck,car,0.35,0.35_car_10_n02814533_4519.png,False,2.362028913461507,2.499140501022339,0.1111111111111111,-3.217653674677098,28.30746364593506,4,0.35509768009767967,7,48.319410575691116,6
subject-02,1,36,1.27302503585815,keyboard,cat,0.6,0.60_cat_10_n02125311_22037.png,False,2.124923877960142,2.4347853660583496,1.0,-1.624514502861663,28.069359064102173,4,3.988131313131313,8,36.009625163924404,5
subject-02,1,37,0.902964115142822,elephant,elephant,0.0,0.00_elephant_10_n02504458_291.png,True,0.30451922511049045,0.0004232047940604,1.0,-3.09948956200177e-05,25.886293542280328,10,4.522990897990898,7,31.713231818096865,9
subject-02,1,38,0.664669036865234,chair,chair,0.05,0.05_chair_10_n04099969_2694.png,True,-0.8677025496426232,0.0009271648013964,1.0,-7.313757362654005e-05,26.36611790920142,10,1.3182650682650678,10,44.77230849875653,10
subject-02,1,39,1.03636908531189,airplane,bear,0.05,0.05_bear_10_n02133161_545.png,False,0.9607653046468252,2.3508317470550537,0.3333333333333333,-2.451591138755255,29.164574146270752,10,1.2130952380952376,10,33.89179170715606,0
subject-02,1,40,1.1602201461792,oven,knife,0.35,0.35_knife_10_n03041632_40508.png,False,1.5700137684603077,2.3246982097625732,1.0,-1.2593661022411478,28.149091601371765,4,2.194047619047619,10,34.587936544191436,10
subject-02,1,41,0.868018865585327,truck,car,0.2,0.20_car_10_n02814533_5430.png,False,0.13261646173172228,0.7174012660980225,1.0,-0.3405642787236608,27.30060887336731,10,2.2847985347985347,9,43.423643389250905,10
subject-02,1,42,0.819952964782715,bird,bird,0.2,0.20_bird_10_n01860187_7297.png,True,-0.10382944370284358,1.5961508750915527,0.1666666666666666,-4.017532483359757,28.199601650238037,10,0.572294372294372,9,39.942197981367855,6
subject-02,1,43,0.795691967010498,bear,bear,0.0,0.00_bear_10_n02134418_3284.png,True,-0.2231742076458939,0.0021806692238897,1.0,-0.0002111419406852576,26.57708940259181,10,3.326190476190476,9,27.864096224474697,10
subject-02,1,44,1.36361312866211,bicycle,dog,0.35,0.35_dog_10_n02107142_55162.png,False,2.570545061938011,2.4190921783447266,0.1428571428571428,-3.104170929372141,28.12053155899048,4,0.4960678210678208,9,43.84188427305801,5
subject-02,1,45,0.791545152664185,car,car,0.2,0.20_car_10_n02814533_7028.png,True,-0.24357322766654332,0.5429072976112366,0.5,-1.807095106636814,26.910010874271393,10,1.822161172161172,9,45.48203367674704,6
subject-02,1,46,0.69566798210144,bottle,bottle,0.0,0.00_bottle_10_n04591713_2808.png,True,-0.7152124568429284,0.0028235493227839,1.0,-0.00024458776666270787,26.465278345160186,10,5.124242424242424,9,22.9303192236266,10
subject-02,1,47,0.68346095085144,cat,cat,0.0,0.00_cat_10_n02123394_7105.png,True,-0.7752613170198595,0.0140413679182529,1.0,-0.0016026218992582083,25.762339059263468,10,4.43968253968254,7,31.11730730615581,9
subject-02,1,48,0.822940826416016,bird,knife,0.35,0.35_knife_10_n03041632_36390.png,False,-0.08913154691109836,2.404590606689453,0.3333333333333333,-2.070976301081238,28.23585569858551,4,1.1948773448773446,10,35.78105013007278,10
subject-02,1,49,0.630611896514893,chair,chair,0.2,0.20_chair_10_n04099969_8604.png,True,-1.0352365238776562,2.3599953651428223,1.0,-1.5729047869988648,28.97212243080139,10,1.0031135531135524,10,49.03308130931355,10
subject-02,1,50,1.31641387939453,car,car,0.9,0.90_car_10_n02814533_93476.png,True,2.338362391010136,2.5292677879333496,0.0833333333333333,-3.466402982013346,28.00383162498474,4,0.20977355977355938,7,49.89514638177525,5
subject-02,1,51,0.666200160980225,oven,oven,0.0,0.00_oven_10_n04111531_10358.png,True,-0.8601706398758957,0.0577530898153781,1.0,-0.00751006269738773,26.18270969763398,10,1.4367063492063492,10,57.31825286758983,6
subject-02,1,52,0.928065061569214,car,car,0.2,0.20_car_10_n02814533_211.png,True,0.4279958666786069,0.6925361156463623,1.0,-0.4358180787220609,27.216132640838623,10,2.2269230769230766,9,44.05954948430835,10
subject-02,1,53,0.967763900756836,car,car,0.03,0.03_car_10_n02814533_88986.png,True,0.6232825006473688,0.1042775064706802,1.0,-0.021189996862177797,26.528590574860573,10,2.961879786879787,8,41.81668179139252,6
subject-02,1,54,1.23214387893677,car,chair,0.9,0.90_chair_10_n02791124_8788.png,False,1.9238211834910728,2.474217653274536,0.2,-2.7708823865767505,28.138349056243896,4,0.2449175824175821,10,49.20857144721811,5
subject-02,1,55,1.36956715583801,car,elephant,0.35,0.35_elephant_10_n02504458_1041.png,False,2.5998341280551527,2.2635245323181152,1.0,-1.5401964608723777,27.95425593852997,4,3.4814213564213565,8,38.11348352770962,5
subject-02,1,56,1.33341598510742,cat,cat,0.2,0.20_cat_10_n02123394_5895.png,True,2.4219991940753154,2.2277092933654785,0.3333333333333333,-1.7640124934708774,28.864957571029663,10,2.544877344877345,9,34.78342128366363,10
subject-02,1,57,1.15098404884338,airplane,airplane,0.1,0.10_airplane_10_n02690373_2496.png,True,1.5245795341947743,0.7159309387207031,1.0,-0.20012818871404006,27.430755376815796,10,7.199999999999999,6,23.096987087728085,10
subject-02,1,58,0.73088812828064,bird,bird,0.03,0.03_bird_10_n02025239_19864.png,True,-0.5419574212808745,0.0097623672336339,1.0,-0.0009624223418728044,26.35286053083837,10,2.6595238095238094,9,32.95370361459322,10
subject-02,1,59,0.769000053405762,airplane,airplane,0.1,0.10_airplane_10_n02690373_3753.png,True,-0.3544771391351137,0.1050864309072494,1.0,-0.020085310088534793,27.01814042031765,10,6.983333333333333,6,22.379046883474523,10
subject-02,1,60,0.788478136062622,chair,chair,0.03,0.03_chair_10_n02791124_5795.png,True,-0.258660503786,0.5994601845741272,1.0,-0.1708690053085997,27.321982204914093,10,1.24047619047619,10,43.847476433187246,10
subject-02,1,61,1.28827500343323,bicycle,bicycle,0.0,0.00_bicycle_10_n02835271_8617.png,True,2.199941558497226,0.00132313137874,1.0,-0.00010669800617776583,25.35105696087703,10,4.45,7,26.911747770974557,9
subject-02,1,62,0.840273857116699,bird,bicycle,0.35,0.35_bicycle_10_n03792782_44296.png,False,-0.003866856777060335,2.391869068145752,0.0909090909090909,-3.9036250771206786,28.1372492313385,4,1.5274531024531024,2,32.67755401148988,6
subject-02,1,63,0.963942050933838,cat,boat,0.6,0.60_boat_10_n03662601_5995.png,False,0.604482046963068,2.5415148735046387,0.0714285714285714,-3.8627240385900716,28.282132029533386,4,2.1129329004328996,0,33.37847319385585,0
subject-02,1,64,0.915909051895142,car,chair,0.9,0.90_chair_10_n02791124_3186.png,False,0.36819799197194825,2.4755704402923584,0.1666666666666666,-2.9166125936961813,27.911988735198975,4,0.2289835164835161,10,49.4671639467074,5
subject-02,1,65,1.16972017288208,bird,keyboard,0.6,0.60_keyboard_10_n03085013_22942.png,False,1.6167463247612797,2.4768311977386475,0.125,-2.9909009961968662,28.287531852722168,4,0.5368797868797865,4,41.285973818111636,6
subject-02,1,66,1.08137488365173,car,elephant,0.6,0.60_elephant_10_n02504458_4776.png,False,1.1821579460116292,2.409775495529175,0.3333333333333333,-2.2961120728104407,28.198580265045166,4,2.21038961038961,6,38.007656380114945,6
subject-02,1,67,0.897241830825806,bicycle,bicycle,0.0,0.00_bicycle_10_n02835271_5056.png,True,0.27637014907325647,0.0013763677561655,1.0,-0.00011075156272070419,26.418085075565614,10,3.583333333333333,9,27.745950716936733,9
subject-02,1,68,1.1214120388031,bear,elephant,0.9,0.90_elephant_10_n02504013_1255.png,False,1.3791088247575736,2.483630418777466,0.1666666666666666,-2.63277258775341,27.924278140068054,4,1.1250360750360746,8,39.420093070209134,0
subject-02,1,69,0.758821964263916,bicycle,bicycle,0.1,0.10_bicycle_10_n03792782_37212.png,True,-0.40454522196623227,0.0144373159855604,1.0,-0.001465619222118951,26.938741562888026,10,3.0928571428571425,10,27.834363875820486,10
subject-02,1,70,0.990792989730835,car,car,0.0,0.00_car_10_n03100240_4348.png,True,0.7365672555956094,0.0997539013624191,1.0,-0.019608034681173322,26.313980147242546,10,2.791208791208791,9,40.228678557211886,6
subject-02,1,71,0.996485948562622,elephant,bear,0.6,0.60_bear_10_n02134418_3570.png,False,0.7645720736289049,2.401301383972168,0.25,-2.347030192736047,28.02934467792511,4,1.128210678210678,8,37.95626387140378,5
subject-02,1,72,1.0881769657135,truck,keyboard,0.35,0.35_keyboard_10_n04505470_2141.png,False,1.2156187659500757,2.5416274070739746,0.2,-2.4007670986656158,27.802432656288147,4,0.9404872904872903,7,40.76636076939297,6
subject-02,1,73,0.994067907333374,car,clock,0.35,0.35_clock_10_n04548280_4113.png,False,0.7526772388649516,2.4406588077545166,0.5,-2.0724350613820577,28.138153553009033,4,7.276923076923077,2,21.214084466989643,10
subject-02,1,74,1.17793297767639,truck,keyboard,0.0,0.00_keyboard_10_n04505470_1052.png,False,1.657146775669763,0.0050132311880588,1.0,-0.00047730867973812144,26.248417619615793,10,2.1328504828504826,9,40.24707297399058,10
subject-02,1,75,1.0336549282074,bear,bear,0.2,0.20_bear_10_n02134418_271.png,True,0.9474138158918706,0.7548214793205261,1.0,-0.16782359485684478,27.194802939891815,10,2.8777777777777778,9,32.17968871404078,10
subject-02,1,76,0.857501029968262,car,oven,0.6,0.60_oven_10_n04111531_326.png,False,0.08087709714763633,2.4914417266845703,0.1,-3.5254409498625514,28.25309693813324,4,0.638690476190476,9,54.996054856739796,5
subject-02,1,77,0.919281959533691,bear,bear,0.03,0.03_bear_10_n02134418_1081.png,True,0.3847900080837221,0.0043276520445942,1.0,-0.0004419468758554733,26.91586982924491,10,2.8607142857142853,9,30.046087299405833,10
subject-02,1,78,1.2913019657135,bird,bear,0.0,0.00_bear_10_n02132136_25897.png,False,2.2148317992942084,1.1397067308425903,0.5,-1.0269076408866122,27.923059105873108,10,3.742857142857143,6,29.14272024318063,10
subject-02,1,79,1.14891409873962,bear,knife,0.6,0.60_knife_10_n03041632_37618.png,False,1.5143970302093022,2.4534270763397217,0.1111111111111111,-3.430219055267873,28.11973237991333,4,0.8718253968253964,6,37.98588327636989,6
subject-02,1,80,0.606637001037598,chair,chair,0.0,0.00_chair_10_n04099969_6395.png,True,-1.1531738926603097,0.0001216960954479,1.0,-8.225474808129063e-06,25.948066814045887,10,2.132417582417582,9,41.674483813611545,9
subject-02,1,81,0.749835014343262,bear,bear,0.1,0.10_bear_10_n02133161_2476.png,True,-0.44875384961289544,0.0252998620271682,1.0,-0.0032901590108894677,27.265297010540962,10,3.095238095238095,10,28.88716964744466,10
subject-02,1,82,1.15774989128113,car,clock,0.9,0.90_clock_10_n04548280_5189.png,False,1.557862084079587,2.511000156402588,1.0,-1.7463608662072518,27.761983275413513,4,8.083333333333332,10,20.326836635081854,10
subject-02,1,83,0.931580781936646,bear,bear,0.9,0.90_bear_10_n02134418_4893.png,True,0.4452904075412848,2.5121712684631348,0.125,-3.04856244317963,28.144495725631714,4,0.7123737373737373,8,39.39562435375871,5
subject-02,1,84,0.57542896270752,chair,chair,0.2,0.20_chair_10_n03376595_9900.png,True,-1.3066925567563945,2.4874162673950195,1.0,-1.5131534736530885,29.074278950691223,4,1.0023809523809517,10,48.24719731057223,10
subject-02,1,85,0.981142044067383,bear,cat,0.6,0.60_cat_10_n02123159_7949.png,False,0.6890922983475247,2.517045497894287,0.5,-1.9250994300577948,28.14574098587036,4,2.477020202020202,7,36.61015531820333,5
subject-02,1,86,0.627068042755127,cat,cat,0.35,0.35_cat_10_n02123045_8491.png,True,-1.0526694585977738,2.4406020641326904,0.5,-1.7479767074602752,28.30588722229004,4,2.9345959595959594,7,35.53818059646293,5
subject-02,1,87,0.748815774917603,boat,boat,0.1,0.10_boat_10_n03344393_5207.png,True,-0.45376769487180857,2.389444351196289,0.1428571428571428,-3.195813009078605,28.92546033859253,10,2.4873015873015873,0,28.794305600344458,5
subject-02,1,88,0.942456007003784,car,car,0.35,0.35_car_10_n03100240_11664.png,True,0.49878784324656533,2.45705509185791,0.1,-3.177909776297807,28.330164432525635,4,0.332539682539682,7,48.6203828008419,6
subject-02,1,89,0.690415859222412,clock,clock,0.0,0.00_clock_10_n02708093_3702.png,True,-0.7410487134999114,0.017254251986742,1.0,-0.0021450262998988184,25.60625686123967,10,8.583333333333332,10,18.718311178195048,10
subject-02,1,90,1.3061408996582,boat,boat,0.35,0.35_boat_10_n03344393_10519.png,True,2.2878275221174786,2.3717188835144043,0.0625,-4.506851290472914,28.1013605594635,4,2.0831349206349197,0,34.23154341076655,0
subject-02,1,91,0.518043994903564,cat,cat,0.05,0.05_cat_10_n02123394_8172.png,True,-1.5889808410529913,0.0004527732380665,1.0,-3.373679802213081e-05,26.363713757658843,10,4.603968253968254,7,30.397373516050916,10
subject-02,1,92,0.729773044586182,car,truck,0.35,0.35_truck_10_n04467665_47602.png,False,-0.5474427439185212,2.4013636112213135,0.0769230769230769,-3.9846496756411427,28.2300124168396,4,0.21832056832056798,7,48.85441437516707,6
subject-02,1,93,0.681793928146362,boat,boat,0.6,0.60_boat_10_n03662601_8191.png,True,-0.7834617394877711,2.5254898071289062,0.0769230769230769,-3.7564402015357676,28.317944645881653,4,2.114260739260739,0,32.93946255586384,0
subject-02,1,94,0.663906097412109,bicycle,bicycle,0.1,0.10_bicycle_10_n03792782_9004.png,True,-0.8714556034036813,0.0008598102722316,1.0,-6.759395159485677e-05,26.582654787460342,10,5.276190476190476,7,25.763428829802415,10
subject-02,1,95,0.701441049575806,car,chair,0.6,0.60_chair_10_n03376595_8995.png,False,-0.6868135681647174,2.5488970279693604,0.1111111111111111,-3.2142572970685364,28.160067558288574,4,0.12017704517704478,10,49.836258804505555,5
subject-02,1,96,1.50000905990601,cat,chair,0.9,0.90_chair_10_n02791124_5411.png,False,3.241504285047008,2.503636360168457,0.125,-3.1995680718622213,27.907389163970947,4,0.15771312021311978,10,50.33884297616537,5
subject-02,1,97,0.827334880828857,cat,boat,0.9,0.90_boat_10_n04273569_18898.png,False,-0.06751630290600767,2.4389188289642334,0.0666666666666666,-4.3280183421739515,27.89323902130127,4,1.5583333333333333,0,34.36970341912887,0
subject-02,1,98,0.7150559425354,boat,airplane,0.9,0.90_airplane_10_n02690373_17011.png,False,-0.6198391509693375,2.5302915573120117,0.0909090909090909,-3.3908056480805553,27.855566263198853,4,2.265909090909091,4,30.053194515440165,9
subject-02,1,99,1.13458108901978,car,knife,0.2,0.20_knife_10_n03041632_29355.png,False,1.443890051161365,2.242109775543213,1.0,-1.003308670814844,28.855642795562744,10,2.070670995670995,10,33.069675968271525,10
subject-02,1,100,0.956195116043091,airplane,knife,0.6,0.60_knife_10_n03041632_48816.png,False,0.5663733045074235,2.4320602416992188,0.1111111111111111,-3.2180498259305566,28.058253169059753,4,0.9936868686868685,6,37.87649239935719,6
subject-02,1,101,0.750200033187866,truck,truck,0.2,0.20_truck_10_n04467665_72022.png,True,-0.4469582479540919,1.281139254570007,0.1666666666666666,-3.846777521877514,27.757970929145813,10,0.4728077478077475,7,46.51234128252461,6
subject-02,1,102,1.0598669052124,truck,airplane,0.6,0.60_airplane_10_n02690373_9605.png,False,1.0763558419995023,2.521446228027344,0.0666666666666666,-4.410581584053441,28.40297031402588,4,1.6833333333333333,4,32.26564305018553,4
subject-02,1,103,0.643619060516357,chair,chair,0.05,0.05_chair_10_n02791124_7142.png,True,-0.9712516485688198,0.0002857548533938,1.0,-2.187514389178389e-05,26.62714994972339,10,1.5439865689865686,10,43.57179968013261,10
subject-02,1,104,0.983541965484619,bicycle,boat,0.2,0.20_boat_10_n03662601_35225.png,False,0.7008979980846517,2.4323158264160156,0.1428571428571428,-2.9598539046876113,29.235978841781616,10,2.5606893106893107,0,29.738839740314074,0
subject-02,1,105,0.69347882270813,boat,boat,0.9,0.90_boat_10_n04273569_16078.png,True,-0.725981375478562,2.5097250938415527,0.0625,-4.440573720600097,28.187785029411316,4,1.6152777777777778,0,34.49394029995051,0
subject-02,1,106,0.743355989456177,truck,truck,0.03,0.03_truck_10_n03417042_12874.png,True,-0.4806254858493823,0.0699928998947143,1.0,-0.009414986047111188,26.430180191993713,10,3.493106893106893,7,38.08265582441851,10
subject-02,1,107,0.717148065567017,chair,oven,0.2,0.20_oven_10_n04111531_3121.png,False,-0.6095475738589314,2.509280204772949,0.0833333333333333,-3.527192452224157,28.797717332839966,4,0.03333333333333309,10,59.350652838808855,6
subject-02,1,108,0.862873077392578,airplane,airplane,0.0,0.00_airplane_10_n02690373_12505.png,True,0.10730328694268512,0.0554804801940918,1.0,-0.0080733473374435,25.51966667175293,10,9.083333333333332,0,17.657452522920686,9
subject-02,1,109,0.642643928527832,cat,cat,0.0,0.00_cat_10_n02124075_9591.png,True,-0.9760485204071702,0.0031190202571451,1.0,-0.0002811946409132316,25.344873337540776,10,5.340079365079365,6,27.214226816291724,9
subject-02,1,110,0.882511138916016,chair,oven,0.03,0.03_oven_10_n04111531_7449.png,False,0.20390689075232513,2.758931805146858e-05,1.0,-1.7285361922931291e-06,26.36348705720593,10,2.1944444444444446,9,54.58682565808411,6
subject-02,1,111,0.980236053466797,truck,chair,0.35,0.35_chair_10_n04429376_4341.png,False,0.6846355470062676,2.4867663383483887,0.25,-2.6116842950606065,28.342498064041138,4,0.23452380952380897,10,50.04669112432761,6
subject-02,1,112,0.804000854492188,bear,bear,0.2,0.20_bear_10_n02133161_7184.png,True,-0.18230110652936682,2.3690972328186035,0.5,-1.7480123081008507,29.088008761405945,10,2.008333333333333,5,33.3473975019987,5
subject-02,1,113,1.08997583389282,chair,boat,0.03,0.03_boat_10_n02951358_512.png,False,1.224467763021064,0.0224519856274127,1.0,-0.002837328200803959,26.685784209519625,10,6.041666666666666,0,22.70847821973632,10
subject-02,1,114,1.16180491447449,dog,oven,0.05,0.05_oven_10_n04111531_7741.png,False,1.5778095648196144,1.1276496648788452,1.0,-0.28155650741692945,27.973234057426453,10,0.9583333333333333,10,58.740251422092946,10
subject-02,1,115,1.21962404251099,cat,bicycle,0.9,0.90_bicycle_10_n02835271_9116.png,False,1.8622335712721145,2.4994301795959473,0.0769230769230769,-3.6283817351318985,28.028013467788696,4,1.4467032967032964,1,34.26746062603539,6
subject-02,1,116,0.905317068099976,car,car,0.9,0.90_car_10_n04285008_550.png,True,0.31609387747545725,2.478668451309204,0.1,-3.4648111472217993,27.950437545776367,4,0.2542180042180039,7,49.82165787754833,5
subject-02,1,117,0.769134044647217,chair,keyboard,0.35,0.35_keyboard_10_n03085013_19607.png,False,-0.3538180090683284,2.4902820587158203,0.3333333333333333,-2.1113641314751255,28.23029887676239,4,1.1043761793761793,7,39.94706911046005,6
subject-02,1,118,0.770947933197021,keyboard,keyboard,0.0,0.00_keyboard_10_n04505470_3864.png,True,-0.34489512375141584,0.0041209403425455,1.0,-0.00039811905668574475,26.109117025509477,10,2.4519952269952268,9,37.561817494163705,10
subject-02,1,119,1.06675791740417,bicycle,bicycle,0.03,0.03_bicycle_10_n03792782_2649.png,True,1.110254127266948,0.0011037064250558,1.0,-8.619203077158036e-05,25.597577400272712,10,3.8095238095238093,9,27.81872714516866,9
subject-02,1,120,1.02862811088562,bear,truck,0.9,0.90_truck_10_n04467665_37009.png,False,0.9226858829236853,2.5350914001464844,0.0714285714285714,-3.7336265864158187,27.987399697303772,4,0.10695970695970637,1,50.13197416686075,5
subject-02,1,121,1.23061990737915,knife,knife,0.03,0.03_knife_10_n03041632_94202.png,True,1.916324458603345,0.1585103869438171,1.0,-0.025527675034229487,26.801932752132416,10,1.940151515151515,10,37.64112718472924,10
subject-02,1,122,0.750292062759399,chair,chair,0.1,0.10_chair_10_n04099969_8647.png,True,-0.44650553584416536,0.0012025639880448,1.0,-9.680262833847913e-05,26.450885157333687,10,1.1228937728937725,10,45.24018257092901,10
subject-02,1,123,0.458003997802734,cat,cat,0.1,0.10_cat_10_n02124075_12815.png,True,-1.884329752438066,0.6190361976623535,1.0,-0.16238862119785777,27.2742440700531,10,5.2444444444444445,6,30.37470027631375,10
subject-02,1,124,0.963735103607178,dog,bird,0.6,0.60_bird_10_n02018207_43958.png,False,0.6034640311303815,2.451321601867676,0.3333333333333333,-1.9882781140344894,28.15444242954254,4,1.1987484737484735,8,38.28532064287696,5
subject-02,1,125,0.969990968704224,bicycle,bicycle,0.2,0.20_bicycle_10_n03792782_29108.png,True,0.6342378991417589,1.0917725563049316,1.0,-0.27439733174004766,27.60962724685669,10,2.9761904761904763,10,27.57136134304811,10
subject-02,1,126,0.771397113800049,bear,bear,0.05,0.05_bear_10_n02132136_24663.png,True,-0.3426855133495896,0.0008851757156662,1.0,-7.385288193377088e-05,26.75317137147067,10,4.569047619047619,6,27.272556304281217,10
subject-02,1,127,0.831336975097656,cat,bird,0.9,0.90_bird_10_n02037110_8826.png,False,-0.04782919027065571,2.4874000549316406,0.5,-1.9440665939536643,27.988306999206543,4,0.9970238095238093,10,39.09668714847319,10
subject-02,1,128,0.953044891357422,bird,bird,0.03,0.03_bird_10_n01843383_8624.png,True,0.5508767109621536,1.65205979347229,0.1111111111111111,-4.289208191471464,27.674585580825806,10,0.5710678210678208,8,42.31599554501992,6
subject-02,1,129,0.700961112976074,bear,cat,0.03,0.03_cat_10_n02125311_1736.png,False,-0.6891744735462858,0.0526093281805515,1.0,-0.00856167993956805,26.76998532190919,10,4.7027777777777775,7,30.217103302247555,10
subject-02,1,130,1.11074090003967,bicycle,chair,0.35,0.35_chair_10_n02791124_13469.png,False,1.326615330933362,2.473499298095703,0.2,-2.749439018525422,28.115651607513428,4,0.18928571428571378,10,51.04350074738343,6
subject-02,1,131,1.03845500946045,dog,keyboard,0.9,0.90_keyboard_10_n04505470_1479.png,False,0.9710263881954205,2.509758234024048,0.2,-2.7617794007213132,28.058107018470764,4,1.093265068265068,8,40.56470361155773,6
subject-02,1,132,1.35251092910767,car,bear,0.2,0.20_bear_10_n02134084_22150.png,False,2.5159310927388283,1.8818070888519287,0.125,-3.8762202572281277,28.418966054916382,10,1.383333333333333,5,36.19340550201717,5
subject-02,1,133,1.14816403388977,dog,clock,0.9,0.90_clock_10_n04548280_3053.png,False,1.5107073092304795,2.450371742248535,1.0,-1.622407569253204,27.85726273059845,4,7.916666666666666,10,20.817685816292283,10
subject-02,1,134,0.674240112304688,clock,clock,0.1,0.10_clock_10_n03196217_5441.png,True,-0.8206204902101438,0.0438978485763073,1.0,-0.005694478902021861,26.565921645611525,10,8.283333333333333,2,19.68041699429844,10
subject-02,1,135,0.761899948120117,dog,dog,0.2,0.20_dog_10_n02100236_4048.png,True,-0.3894039956989642,1.5635212659835815,1.0,-0.5823494603099051,27.868709444999695,10,1.591317016317016,10,39.35172047841205,10
subject-02,1,136,0.849447965621948,bird,truck,0.9,0.90_truck_10_n04467665_48953.png,False,0.04126244187036407,2.4639182090759277,0.0714285714285714,-4.060986137700729,28.071722865104675,4,0.09908424908424857,1,50.33872843337858,5
subject-02,1,137,0.939383029937744,bird,knife,0.35,0.35_knife_10_n03041632_2153.png,False,0.48367124639460374,2.3403515815734863,1.0,-1.452584407653499,28.04056715965271,4,1.9127344877344874,10,35.357934388561965,10
subject-02,1,138,0.883177995681763,car,oven,0.1,0.10_oven_10_n04111531_7965.png,False,0.20718729430535004,1.832447528839111,0.5,-1.4741183169124386,28.38536298274994,10,0.513095238095238,10,58.256393965844524,6
subject-02,1,139,0.6510009765625,oven,oven,0.0,0.00_oven_10_n04111531_11935.png,True,-0.934938507771979,1.7312091588974,1.0,-0.8727283692748227,28.03783130645752,10,0.9714285714285713,10,59.36807303231471,6
subject-02,1,140,0.998775005340576,elephant,elephant,0.05,0.05_elephant_10_n02504013_9144.png,True,0.7758324077413793,0.0005201695021241,1.0,-3.922062538087953e-05,26.91813462949358,10,3.7349317349317346,8,32.92988514780582,10
subject-02,1,141,0.926609039306641,cat,oven,0.05,0.05_oven_10_n04111531_274.png,False,0.4208333981414885,2.4122836589813232,1.0,-1.6181345945497354,29.579488277435303,10,1.0233516483516483,10,57.5234309481295,6
subject-02,1,142,0.666485071182251,bicycle,bicycle,0.2,0.20_bicycle_10_n03792782_15114.png,True,-0.8587691088620026,0.2033147513866424,1.0,-0.03332393165712205,26.753532260656357,10,3.276190476190476,10,27.522464994558806,10
subject-02,1,143,0.710117101669312,oven,truck,0.0,0.00_truck_10_n03417042_943.png,False,-0.6441343099256833,0.0117945065721869,1.0,-0.0012312359467367905,26.55618709232658,10,3.9744560994560993,7,38.053427451839696,10
subject-02,1,144,0.986120939254761,oven,oven,0.0,0.00_oven_10_n04111531_11026.png,True,0.7135844926263304,0.1434042155742645,1.0,-0.023467900300837913,26.895306080579758,10,1.0178321678321678,10,58.45867493019012,6
subject-02,1,145,0.575746059417725,oven,oven,0.35,0.35_oven_10_n04111531_1830.png,True,-1.3051326937869547,2.5753092765808105,0.2,-2.5589313027044436,28.110758543014526,4,0.23787185037185032,10,56.36225800324505,6
subject-02,1,146,0.595668077468872,bicycle,bicycle,0.03,0.03_bicycle_10_n03792782_42626.png,True,-1.2071322502806257,0.0009055758127942,1.0,-7.08724340296733e-05,26.197576823295094,10,4.716666666666667,7,27.334298539687943,9
subject-02,1,147,0.889522075653076,dog,cat,0.05,0.05_cat_10_n02123045_10433.png,False,0.23839510915784648,1.1378449201583862,0.5,-1.6252930412125215,28.248260855674744,10,4.095634920634921,7,33.350735641466294,6
subject-02,1,148,0.65931510925293,clock,clock,0.0,0.00_clock_10_n02708093_2588.png,True,-0.8940396044108457,0.0875976905226707,1.0,-0.012413279086140039,25.309716783463955,10,8.5,2,17.95283886083263,10
subject-02,1,149,0.719237089157104,bird,bird,0.6,0.60_bird_10_n01828970_454.png,True,-0.5992712435294383,2.4711179733276367,0.25,-2.1654873129342547,28.03240716457367,4,1.0154151404151401,9,38.53653176248856,6
subject-02,1,150,0.684999942779541,clock,clock,0.1,0.10_clock_10_n04548280_7839.png,True,-0.7676907038862227,0.0026007243432104,1.0,-0.00022312507594288579,25.917723710183054,10,9.166666666666666,2,18.075731735684464,10
subject-02,1,151,0.782856225967407,cat,cat,0.1,0.10_cat_10_n02124075_7240.png,True,-0.28631581868779804,0.3191668689250946,1.0,-0.056890572414422864,27.275094479322433,10,4.772222222222222,7,30.509327715425393,10
subject-02,1,152,1.3126699924469,dog,bottle,0.35,0.35_bottle_10_n04557648_2954.png,False,2.3199454525070533,2.419290542602539,0.0714285714285714,-4.382024161084189,28.19238543510437,4,3.870670995670995,1,28.843805370105866,4
subject-02,1,153,1.19047594070435,keyboard,keyboard,0.05,0.05_keyboard_10_n03085013_24577.png,True,1.7188481523308885,0.0413010902702808,1.0,-0.005459941504084798,25.923038203269243,10,2.6552308802308797,9,37.8678767086296,10
subject-02,1,154,1.20427298545837,bear,bottle,0.9,0.90_bottle_10_n02823428_5482.png,False,1.7867186111116844,2.396775722503662,0.125,-3.1020814333628417,27.659324884414673,4,5.153846153846153,0,26.189767528941065,3
subject-02,1,155,0.948031902313232,bear,boat,0.9,0.90_boat_10_n02951358_34261.png,False,0.5262168020933979,2.516765832901001,0.0625,-4.152802621222432,27.969510436058044,4,1.5700396825396825,0,34.29707843405758,0
subject-02,1,156,0.695939064025879,bottle,bottle,0.0,0.00_bottle_10_n04591713_5476.png,True,-0.7138789499284497,0.1970992982387542,1.0,-0.031021770542502165,26.435306638479233,10,4.516666666666667,9,22.73951383658182,10
subject-02,1,157,1.11599588394165,bear,car,0.6,0.60_car_10_n02814533_39597.png,False,1.3524656615419626,2.4986562728881836,0.0833333333333333,-3.775451186366745,28.186739444732666,4,0.1876123876123872,7,50.12255981046705,5
subject-02,1,158,0.893573045730591,chair,bottle,0.05,0.05_bottle_10_n02823428_6263.png,False,0.2583226517997673,1.826054096221924,0.1428571428571428,-3.051808903223622,28.747621059417725,10,2.399639249639249,4,28.193510242573986,10
subject-02,1,159,0.805305004119873,bird,bear,0.6,0.60_bear_10_n02134084_8095.png,False,-0.1758857302565607,2.486391544342041,0.2,-2.50633876982776,28.15824246406555,4,0.8380341880341879,8,38.49576974822659,5
subject-02,1,160,0.716969013214111,dog,dog,0.2,0.20_dog_10_n02110063_4287.png,True,-0.6104283686634836,1.5295790433883667,1.0,-1.1261418005809065,28.169592261314392,10,1.8615190365190364,10,38.83920688000811,10
subject-02,1,161,1.04797291755676,dog,oven,0.9,0.90_oven_10_n04111531_6489.png,False,1.0178469066939042,2.539334297180176,0.0666666666666666,-4.135632861311904,27.98568606376648,4,0.6375,9,55.53215889992758,5
subject-02,1,162,0.895469188690186,bird,bird,0.0,0.00_bird_10_n01817953_1968.png,True,0.26765016322529833,0.8416338562965393,1.0,-0.31358898449395944,27.252866566181183,10,1.5277528027528025,10,37.24099995119642,10
subject-02,1,163,0.787815093994141,bird,bear,0.6,0.60_bear_10_n02133161_4882.png,False,-0.2619221420702174,2.522329807281494,0.25,-2.4261598075231747,28.36148977279663,4,0.9270202020202017,10,38.35524486116985,5
subject-02,1,164,0.793328046798706,bird,clock,0.9,0.90_clock_10_n02708093_3114.png,False,-0.23480281015867266,2.465109348297119,1.0,-1.773699066795263,27.884194254875183,4,7.916666666666666,10,20.910017873673223,10
subject-02,1,165,0.625004053115845,chair,chair,0.6,0.60_chair_10_n04099969_33329.png,True,-1.0628226418507354,2.488614082336426,0.1111111111111111,-3.338478735624276,28.076501846313477,4,0.11124847374847338,10,50.43346784362758,5
subject-02,1,166,0.634955883026123,keyboard,keyboard,0.2,0.20_keyboard_10_n04505470_5172.png,True,-1.0138675740256333,0.2720530331134796,1.0,-0.04383422429490911,26.597687155008316,10,2.3913419913419913,9,37.973090056467434,10
subject-02,1,167,0.694921016693115,chair,knife,0.0,0.00_knife_10_n03041632_34769.png,False,-0.7188869310408633,0.9706218242645264,0.5,-0.8934829738726595,27.618823766708374,10,0.7651515151515149,10,41.54558489428215,10
subject-02,1,168,0.590553045272827,chair,chair,0.0,0.00_chair_10_n03376595_9139.png,True,-1.2322941300899202,0.0004649880866054,1.0,-3.409443802038108e-05,26.481568169925595,10,2.0856532356532353,9,42.85557298527807,10
subject-02,1,169,1.03870296478271,bird,bottle,0.9,0.90_bottle_10_n04591713_2014.png,False,0.972246130667736,2.4736649990081787,0.1111111111111111,-3.106740312275798,27.60800850391388,4,5.110317460317459,0,26.6577330631059,3
subject-02,1,170,0.824488878250122,bear,bird,0.9,0.90_bird_10_n02028035_889.png,False,-0.08151636626405341,2.5120739936828613,0.5,-1.9633481481327286,27.95114576816559,4,1.0394841269841266,10,39.2691486764029,10
subject-02,1,171,1.02188491821289,cat,elephant,0.6,0.60_elephant_10_n02504458_4824.png,False,0.8895147518224303,2.524028778076172,0.3333333333333333,-2.1799697089729917,28.25201177597046,4,1.9528138528138526,6,38.569665165966,0
subject-02,1,172,0.697662115097046,airplane,airplane,0.2,0.20_airplane_10_n02690373_10423.png,True,-0.7054029125749599,2.1267032623291016,0.25,-2.4230102988329487,28.66168999671936,10,5.4,7,26.958997657173803,6
subject-02,1,173,0.781496047973633,car,truck,0.6,0.60_truck_10_n04467665_63829.png,False,-0.29300680984618244,2.4971296787261963,0.0714285714285714,-4.385139319839131,28.274261116981506,4,0.10114468864468817,3,50.691546645366294,5
subject-02,1,174,0.839737892150879,knife,knife,0.1,0.10_knife_10_n03041632_14774.png,True,-0.006503377044202075,0.0472448989748954,1.0,-0.005615294652009425,26.772223107516766,10,3.9778138528138527,8,30.79811576304737,10
subject-02,1,175,0.703092098236084,cat,cat,0.6,0.60_cat_10_n02123159_6596.png,True,-0.678691725259929,2.476397752761841,1.0,-1.847293528434218,28.25790297985077,4,2.963131313131313,10,36.36613769275776,5
subject-02,1,176,0.771414995193481,boat,boat,0.0,0.00_boat_10_n04612504_20067.png,True,-0.342597551152068,0.000619416765403,1.0,-4.607545186870697e-05,26.000064616731834,10,6.916666666666666,6,20.148091147473274,9
subject-02,1,177,0.710986137390137,cat,knife,0.6,0.60_knife_10_n03041632_14766.png,False,-0.6398593471259785,2.5166749954223633,0.1111111111111111,-2.929105324137921,28.163524746894836,4,1.2051587301587299,8,37.203519989164384,6
subject-02,1,178,0.810637950897217,dog,dog,0.2,0.20_dog_10_n02110185_10879.png,True,-0.14965188446676286,2.051273822784424,0.3333333333333333,-1.9474258064040928,28.60503101348877,10,0.7344988344988344,10,41.00589607566701,5
subject-02,1,179,0.854470014572144,airplane,airplane,0.2,0.20_airplane_10_n02690373_1441.png,True,0.06596691825253288,2.157034158706665,0.1666666666666666,-2.662676525153968,28.82483696937561,10,3.9,7,28.008811672287997,6
subject-02,1,180,0.53033709526062,cat,cat,0.0,0.00_cat_10_n02124075_4116.png,True,-1.5285085894986392,0.0117607489228248,1.0,-0.0013067912468964688,25.84967926889658,10,5.363888888888889,6,27.369880466209832,9
subject-02,1,181,0.520239114761353,cat,dog,0.2,0.20_dog_10_n02113799_3680.png,False,-1.5781826016848424,1.7328990697860718,0.25,-2.815503373843028,28.257829785346985,10,0.8568181818181817,8,40.9052972516172,5
subject-02,1,182,0.855954885482788,knife,bird,0.6,0.60_bird_10_n01843065_1871.png,False,0.07327129913498966,2.4920389652252197,0.3333333333333333,-2.075856319591194,28.135741114616394,4,1.2304945054945051,8,38.28394757162506,5
subject-02,1,183,0.846123933792114,dog,bear,0.1,0.10_bear_10_n02133161_4060.png,False,0.02491085576515367,0.4646097421646118,1.0,-0.0949039255523968,27.616876244544983,10,3.7678571428571423,6,29.655742120405392,10
subject-02,1,184,0.77159595489502,bird,bird,0.2,0.20_bird_10_n01532829_4692.png,True,-0.34170737371311266,1.9348640441894531,0.2,-3.344072065090692,28.529433727264404,10,0.6222943722943721,10,39.51004002516804,6
subject-02,1,185,0.903358936309814,bear,car,0.9,0.90_car_10_n02814533_27929.png,False,0.306461430431837,2.486442804336548,0.1,-3.379429132008172,27.933653712272644,4,0.256299256299256,7,49.8114736493324,5
subject-02,1,186,0.751000881195068,airplane,airplane,0.03,0.03_airplane_10_n02690373_5845.png,True,-0.4430187143342817,0.0004727452178485,1.0,-3.7074776311429885e-05,24.595199784555007,9,8.583333333333332,0,17.775325528209002,9
subject-02,1,187,0.862926006317139,keyboard,keyboard,0.2,0.20_keyboard_10_n03085013_22597.png,True,0.10756365504736072,2.4443955421447754,0.1,-3.336953294000381,29.121062755584717,4,0.44134199134199115,8,41.776859449613326,7
subject-02,1,188,1.29664206504822,airplane,oven,0.1,0.10_oven_10_n04111531_9831.png,False,2.24110082996303,2.061384677886963,1.0,-0.856129913685104,29.115565299987793,10,0.989423076923077,10,55.72734134793692,10
subject-02,1,189,0.786668062210083,bicycle,bicycle,0.0,0.00_bicycle_10_n02835271_9297.png,True,-0.26756462383411,0.0061489637009799,1.0,-0.0006017110668738315,26.214123636018485,10,4.866666666666667,7,27.19927366989871,10
subject-02,1,190,1.33674097061157,car,airplane,0.6,0.60_airplane_10_n02690373_7115.png,False,2.438355471497725,2.456808567047119,0.0769230769230769,-4.030182644776395,28.127581477165222,4,1.828113553113553,4,31.527474556381186,9
subject-02,1,191,0.686290979385376,clock,clock,0.1,0.10_clock_10_n03196217_3140.png,True,-0.761339833224932,0.00069992383942,1.0,-5.5255032237964616e-05,25.80049936613068,10,9.75,2,17.258083481068283,10
subject-02,1,192,0.877995014190674,elephant,knife,0.6,0.60_knife_10_n03041632_87380.png,False,0.18169115814546075,2.412989616394043,0.1,-3.5528135840268416,27.684898138046265,4,1.1123015873015871,6,37.99403131024469,6
subject-02,1,193,0.609760999679565,bird,bird,0.0,0.00_bird_10_n02009912_31837.png,True,-1.1378063103380807,0.0324181839823722,1.0,-0.003915873989905839,26.244196109473705,10,2.6234487734487733,9,34.35110754899625,10
subject-02,1,194,0.787758111953735,elephant,elephant,0.0,0.00_elephant_10_n02504458_8889.png,True,-0.2622024482729997,0.0003159710904583,1.0,-2.306726357524391e-05,26.646902866079472,10,4.973290598290598,6,33.43574282873579,10
subject-02,1,195,0.793581008911133,truck,truck,0.1,0.10_truck_10_n03796401_21198.png,True,-0.23355843827102069,0.0375357903540134,1.0,-0.005491765356964082,27.04174840822816,10,3.933857808857809,7,38.73298178269309,10
subject-02,1,196,0.545169115066528,chair,chair,0.03,0.03_chair_10_n04099969_37437.png,True,-1.4555468787250685,0.0072413808666169,1.0,-0.0006900425786135547,26.747847450431436,10,1.5300976800976795,10,43.68425188134869,10
subject-02,1,197,0.761099100112915,car,car,0.03,0.03_car_10_n04285008_5559.png,True,-0.3933435293187739,1.5089802742004397,1.0,-0.8356594777666344,28.400476694107056,10,1.3273559773559769,10,45.46386289414293,6
subject-02,1,198,1.03084111213684,bear,bicycle,0.6,0.60_bicycle_10_n02835271_12799.png,False,0.9335720844893514,2.461702346801758,0.0769230769230769,-4.174331698490407,28.230029344558716,4,1.5307692307692304,1,33.977003612744454,6
subject-02,1,199,0.894723176956177,truck,truck,0.2,0.20_truck_10_n03417042_4994.png,True,0.26398038034456256,2.544609308242798,0.2,-2.503095665120011,29.210506439208984,4,0.3637418137418135,10,45.452459891601904,6
subject-02,1,200,0.744517087936401,chair,chair,0.05,0.05_chair_10_n04429376_14729.png,True,-0.4749138071567746,0.0346510522067546,1.0,-0.005008703171980048,26.028706442564726,10,1.8794372294372292,10,42.24696602359805,10
subject-02,1,201,0.792162895202637,truck,truck,0.05,0.05_truck_10_n03417042_6489.png,True,-0.24053442694938706,0.0035094921477138,1.0,-0.0003132714726789616,26.60800239490345,10,2.9402680652680653,9,36.850101123580835,10
subject-02,1,202,0.722063064575195,car,car,0.0,0.00_car_10_n02814533_72473.png,True,-0.5853696978326182,0.1903440952301025,1.0,-0.04368869709372239,25.60124361515045,10,3.448351648351648,8,39.36429970996138,6
subject-02,1,203,1.17214703559875,dog,dog,0.9,0.90_dog_10_n02109525_13812.png,True,1.6286845542093218,2.497227668762207,0.1428571428571428,-2.9087577068352912,28.050225019454956,4,0.46463258963258935,9,43.15484889436755,5
subject-02,1,204,1.07383394241333,airplane,clock,0.2,0.20_clock_10_n03196217_4486.png,False,1.1450625280714863,1.5490961074829102,1.0,-0.601781037319259,28.117911338806152,10,8.583333333333332,10,20.040588602330953,10
subject-02,1,205,1.18745708465576,bear,dog,0.6,0.60_dog_10_n02113023_6945.png,False,1.7039977877300718,2.508992910385132,0.1111111111111111,-2.921416138944538,28.184025287628174,4,0.5830447330447328,9,42.79203079496162,5
subject-02,1,206,0.879409074783325,elephant,bicycle,0.9,0.90_bicycle_10_n03792782_4067.png,False,0.18864720872571986,2.526843547821045,0.0769230769230769,-3.4933773582107697,28.052399277687073,4,1.4464035964035962,1,34.39605428660708,6
subject-02,1,207,0.649086952209473,chair,chair,0.03,0.03_chair_10_n04429376_33792.png,True,-0.944353981395032,0.0871167331933975,1.0,-0.01224135915068301,26.331680312752724,10,1.583272283272283,10,42.605737346934276,10
subject-02,1,208,0.965307950973511,truck,car,0.35,0.35_car_10_n02814533_81455.png,False,0.611201186024663,2.418173313140869,0.0666666666666666,-3.88738969903725,28.217371106147766,4,0.23489565989565947,7,49.40233973946761,6
subject-02,1,209,0.656856060028076,bottle,bottle,0.03,0.03_bottle_10_n04560804_11426.png,True,-0.9061361658144591,0.0158808138221502,1.0,-0.0016097262536574565,25.612063279375434,10,5.333333333333333,9,19.506907162634246,9
subject-02,1,210,1.26257801055908,elephant,dog,0.9,0.90_dog_10_n02095570_9488.png,False,2.073532843678263,2.5095901489257812,0.1428571428571428,-2.898345612294892,27.77004110813141,4,0.43814241314241276,9,43.922578934732904,6
subject-02,1,211,1.35436701774597,bear,airplane,0.6,0.60_airplane_10_n02690373_5729.png,False,2.5250615688418745,2.480902671813965,0.0714285714285714,-4.104095570422309,28.254078149795532,4,1.715873015873016,4,31.672329444682443,4
subject-02,1,212,1.14015913009644,bear,dog,0.9,0.90_dog_10_n02109047_6542.png,False,1.4713295654719007,2.551603078842163,0.1428571428571428,-2.6620626071549824,28.14335310459137,4,0.5118548118548116,9,42.965082186020254,6
subject-02,1,213,0.818169116973877,car,car,0.0,0.00_car_10_n03100240_11400.png,True,-0.11260455252791832,0.008103497326374,1.0,-0.000945418805823004,25.08768893033266,10,2.977380952380952,9,38.68312902999662,6
subject-02,1,214,0.640024900436401,bottle,bottle,0.1,0.10_bottle_10_n04591713_1978.png,True,-0.9889320502713044,0.0254219807684421,1.0,-0.00284647366506171,26.767662171274424,10,4.130952380952381,10,23.35258303938189,10
subject-02,1,215,0.629513025283813,knife,knife,0.03,0.03_knife_10_n03041632_29580.png,True,-1.0406420941228847,0.2167398631572723,1.0,-0.03940790356202218,27.097179383039474,10,2.294877344877345,10,33.72573078510654,10
subject-02,1,216,0.687557935714722,car,car,0.0,0.00_car_10_n04285008_14349.png,True,-0.7551074183229731,0.0292953941971063,1.0,-0.0044400171315857285,26.022289464250207,10,3.1642857142857137,8,40.166578258905844,6
subject-02,1,217,0.749488830566406,elephant,cat,0.6,0.60_cat_10_n02125311_3616.png,False,-0.45045679775697833,2.473942995071411,1.0,-1.6307462235777335,28.217394590377808,4,4.37979797979798,7,35.96393481757236,5
subject-02,1,218,0.771071910858154,clock,clock,0.03,0.03_clock_10_n03196217_3007.png,True,-0.34428525251524333,0.0125055806711316,1.0,-0.001396140070402903,25.9987199800089,10,9.25,2,18.87007502356593,10
subject-02,1,219,0.831066846847534,car,clock,0.0,0.00_clock_10_n04548280_4181.png,False,-0.04915800586793037,0.0028967945836484,1.0,-0.0002631295175738939,25.285577782895416,10,9.5,2,17.20612339731046,10
subject-02,1,220,0.68673300743103,chair,chair,0.03,0.03_chair_10_n03376595_5112.png,True,-0.75916540770212,0.0414895229041576,1.0,-0.00552323061397396,26.697198312729597,10,1.1718614718614715,10,44.65826175095855,10
subject-02,1,221,0.660425186157227,bear,bear,0.0,0.00_bear_10_n02133161_16147.png,True,-0.8885789111885055,0.0113661121577024,1.0,-0.0013757270103412415,26.51870988123119,10,2.3690476190476186,10,30.10886980798906,10
subject-02,1,222,1.08267402648926,knife,knife,0.6,0.60_knife_10_n03041632_13645.png,True,1.1885486928691584,2.468383312225342,0.125,-2.9098850789795705,28.009956121444702,4,1.2039682539682537,6,37.47588281983502,6
subject-02,1,223,1.23247194290161,elephant,elephant,0.1,0.10_elephant_10_n02504013_7553.png,True,1.9254349966083093,0.0079843020066618,1.0,-0.0008018250340859749,27.124307773075998,10,4.083766233766234,8,31.579790991890885,10
subject-02,1,224,0.76829981803894,bear,chair,0.9,0.90_chair_10_n03376595_4887.png,False,-0.35792173879018874,2.447572708129883,0.1666666666666666,-2.8496935997277046,27.906391382217407,4,0.192399267399267,10,49.92741700793889,5
subject-02,1,225,0.881694078445435,elephant,elephant,0.1,0.10_elephant_10_n02504458_2054.png,True,0.1998876047400924,0.0012322895927354,1.0,-0.0001040155145592458,27.091761254589073,10,5.069877344877344,6,30.746797515412478,10
subject-02,1,226,,na,knife,0.35,0.35_knife_10_n03041632_84012.png,False,,2.4176743030548096,0.2,-2.5768131803178655,28.10563039779663,4,1.0119047619047614,10,36.86497859304809,0
subject-02,1,227,0.855586051940918,knife,knife,0.0,0.00_knife_10_n03041632_1607.png,True,0.07145693220737863,0.0009502010070718,1.0,-7.325679164219433e-05,26.47158704564208,10,2.7774891774891772,8,37.25195871500249,10
subject-02,1,228,0.773154020309448,elephant,airplane,0.6,0.60_airplane_10_n02690373_9001.png,False,-0.33404293423545495,2.5001425743103027,0.0769230769230769,-3.9335505767129786,28.212636590003967,4,1.7872766122766122,4,31.617282150277873,4
subject-02,1,229,1.50014996528625,elephant,chair,0.6,0.60_chair_10_n02791124_5089.png,False,3.242197427163459,2.4948339462280273,0.125,-2.9802470873252958,28.211605668067932,4,0.13347069597069547,10,49.81256656458138,5
subject-02,1,230,0.696797132492065,car,boat,0.2,0.20_boat_10_n03662601_11739.png,False,-0.7096579372765623,2.549452304840088,0.5,-1.9911334424835312,29.287780284881592,4,2.965151515151515,0,28.602225285804423,10
subject-02,1,231,0.880546092987061,bear,bottle,0.35,0.35_bottle_10_n04591713_6138.png,False,0.19424043165900015,2.4825375080108643,0.0625,-4.3697305404389954,28.35586452484131,4,3.895833333333333,1,28.96057641849248,4
subject-02,1,232,1.33646416664124,dog,bicycle,0.6,0.60_bicycle_10_n02835271_5821.png,False,2.436993816680075,2.434075355529785,0.0833333333333333,-3.940924823648994,28.11371660232544,4,1.5575757575757572,1,33.59978508354821,6
subject-02,1,233,0.762221097946167,car,truck,0.1,0.10_truck_10_n03417042_5380.png,False,-0.3878241946314177,1.5581384897232056,1.0,-0.6892692020643345,28.43837058544159,10,1.8569347319347318,10,40.01939315853842,10
subject-02,1,234,1.07996296882629,bear,clock,0.9,0.90_clock_10_n02708093_6967.png,False,1.1752124508950677,2.526667356491089,0.5,-1.9279976094614282,27.883497714996338,4,7.416666666666666,2,20.781571945663675,10
subject-02,1,235,0.755769968032837,elephant,oven,0.9,0.90_oven_10_n04111531_845.png,False,-0.4195586098397648,2.568110704421997,0.0666666666666666,-3.949236677527926,28.11563766002655,4,0.813690476190476,6,55.154581111294995,5
subject-02,1,236,0.6680748462677,cat,cat,0.2,0.20_cat_10_n02123159_4876.png,True,-0.8509486830873988,1.3235700130462646,0.5,-1.1867424418788954,27.738569974899292,10,3.477020202020202,7,33.31145747946246,10
subject-02,1,237,0.787485122680664,dog,bicycle,0.9,0.90_bicycle_10_n02835271_30318.png,False,-0.2635453378218773,2.5777196884155273,0.0769230769230769,-3.4684627747437586,28.03114676475525,4,1.4940226440226438,1,34.23744178944425,6
subject-02,1,238,0.755440950393677,cat,cat,0.2,0.20_cat_10_n02123597_30864.png,True,-0.4211771142742206,0.3747097253799438,1.0,-0.07258779759144089,26.6932715177536,10,4.403968253968253,7,32.0548404140255,10
subject-02,1,239,0.775169134140015,elephant,bottle,0.1,0.10_bottle_10_n03937543_1290.png,False,-0.32413018098905727,2.1325626373291016,0.3333333333333333,-1.754975405157979,29.06647253036499,10,3.4935897435897436,10,25.191728382077347,10
subject-02,1,240,0.718935966491699,bicycle,bicycle,0.03,0.03_bicycle_10_n02835271_25268.png,True,-0.6007525269357549,0.0215970147401094,1.0,-0.002601248758437608,26.15400372631848,10,4.226190476190476,8,28.618051684312512,10
subject-02,1,241,0.602967977523804,cat,cat,0.03,0.03_cat_10_n02123394_6828.png,True,-1.1712225627630986,0.0441716015338897,1.0,-0.006000725005892992,25.862912207841873,10,5.387301587301587,6,28.024454179090675,9
subject-02,1,242,0.85060715675354,boat,boat,0.05,0.05_boat_10_n03344393_2937.png,True,0.04696473792857295,0.0121209463104605,1.0,-0.0012916319848229072,26.288059695623815,10,6.366666666666666,0,22.37088067007739,10
subject-02,1,243,0.542670011520386,chair,chair,0.03,0.03_chair_10_n03376595_524.png,True,-1.4678404754511318,0.002639508806169,1.0,-0.00022950421646330863,26.362280822359025,10,1.4435897435897431,10,43.957877540615506,10
subject-02,1,244,0.718313932418823,boat,bottle,0.2,0.20_bottle_10_n02823428_7570.png,False,-0.6038124385803176,2.482460021972656,0.0909090909090909,-3.334035496660001,29.11579942703247,4,3.743686868686868,1,27.44573147210127,4
subject-02,1,245,0.826189041137695,bottle,keyboard,0.03,0.03_keyboard_10_n04505470_6051.png,False,-0.07315292052339639,0.2808310091495514,1.0,-0.05360399187142079,26.89364257454872,10,2.7126123876123875,9,36.485186984310445,10
subject-02,1,246,0.60016918182373,bicycle,bicycle,0.2,0.20_bicycle_10_n03792782_31101.png,True,-1.1849904059196843,1.4060652256011963,0.25,-3.2075359696498746,28.044745683670044,10,1.9277777777777776,3,30.965292934270362,6
subject-02,1,247,0.791669845581055,elephant,elephant,0.1,0.10_elephant_10_n02504013_1719.png,True,-0.24295983794247092,0.0013299355050548,1.0,-0.0001128975698954113,26.827118910267018,10,3.694047619047619,8,32.47126528109947,10
subject-02,1,248,0.655885934829712,chair,chair,0.05,0.05_chair_10_n02791124_2470.png,True,-0.9109084082375031,0.0034979458432644,1.0,-0.00032090328677850094,26.75788818555884,10,1.2940226440226437,10,42.8627743265614,10
subject-02,1,249,0.729708909988403,keyboard,keyboard,0.03,0.03_keyboard_10_n04505470_1651.png,True,-0.5477582350003134,0.0003921542956959,1.0,-2.902788331054344e-05,24.14146442755009,9,3.402319902319902,8,35.48695785927797,9
subject-02,1,250,1.22749304771423,bear,keyboard,0.35,0.35_keyboard_10_n04505470_8620.png,False,1.9009428023294939,2.4262518882751465,0.1428571428571428,-3.05567907946438,28.24967885017395,4,0.8836802086802085,8,41.09675280302047,7
subject-02,1,251,0.660943984985352,clock,clock,0.05,0.05_clock_10_n04548280_2045.png,True,-0.886026834630986,0.002504916395992,1.0,-0.00021513630314939228,25.59290084382519,10,8.583333333333332,2,18.69357581361982,10
subject-02,1,252,0.897154092788696,bird,bird,0.05,0.05_bird_10_n01833805_7361.png,True,0.27593854789073147,0.2521913051605224,1.0,-0.039226940665958346,27.365814447402954,10,2.624603174603174,9,32.30680160614321,10
subject-02,1,253,1.08871006965637,cat,bicycle,0.2,0.20_bicycle_10_n03792782_7050.png,False,1.2182412122656097,2.242356777191162,0.0909090909090909,-3.9678846436618427,29.06218647956848,10,1.5948773448773448,3,32.398019223733804,6
subject-02,1,254,0.616411924362183,clock,clock,0.05,0.05_clock_10_n04548280_7800.png,True,-1.105089064176052,0.0129855517297983,1.0,-0.0014710512149272283,26.026568258181214,10,9.25,2,18.676085778123063,10
subject-02,1,255,0.888334035873413,airplane,boat,0.05,0.05_boat_10_n03662601_33184.png,False,0.23255090075429924,0.7335026264190674,1.0,-0.17110690573241222,27.324269771575928,10,5.509523809523809,0,23.626555833066153,10
subject-02,1,256,0.62611198425293,bottle,bottle,0.03,0.03_bottle_10_n03937543_1602.png,True,-1.057372504092098,0.0060320263728499,1.0,-0.0005953295515592533,26.507692254148424,10,3.9602564102564104,10,23.123666090121294,10
subject-02,1,257,0.692229032516479,cat,cat,0.35,0.35_cat_10_n02123597_7615.png,True,-0.7321293466708982,2.312992572784424,0.5,-1.7214032368258347,27.981080293655396,4,2.452453102453102,7,35.72351479475402,5
subject-02,1,258,0.757992029190063,bear,oven,0.9,0.90_oven_10_n04111531_22466.png,False,-0.40862784076068553,2.4938559532165527,0.0625,-4.326409299478543,28.074983954429626,4,0.7277777777777777,6,55.76886315644513,5
subject-02,1,259,0.935405969619751,oven,knife,0.9,0.90_knife_10_n03041632_19620.png,False,0.4641072808357881,2.5131354331970215,0.0833333333333333,-3.6339274138722852,28.108049035072327,4,0.9654761904761902,8,38.458637545365725,6
subject-02,1,260,0.861268997192383,bear,bear,0.0,0.00_bear_10_n02133161_5434.png,True,0.09941249141006192,1.170678973197937,1.0,-0.7148691765804026,27.616400361061096,10,1.9130702630702627,10,33.20532788261461,10
subject-02,1,261,0.535316944122314,chair,chair,0.03,0.03_chair_10_n04099969_5453.png,True,-1.5040117039026337,0.0013164239935576,1.0,-0.00010932089382912508,26.71478998241946,10,2.1690226440226437,9,42.20844152638732,10
subject-02,1,262,0.609281063079834,keyboard,keyboard,0.05,0.05_keyboard_10_n04505470_1043.png,True,-1.140167215719644,0.0005098456167615,1.0,-3.7730451927371576e-05,24.585111009480897,10,3.135353535353535,9,33.922005699153715,9
subject-02,1,263,0.958632946014404,bicycle,clock,0.0,0.00_clock_10_n04548280_1032.png,False,0.5783654841033021,0.9554203152656556,1.0,-0.3742196722539601,27.517951786518097,10,7.642857142857142,10,21.403528222619503,10
subject-02,1,264,0.736547946929932,bird,knife,0.1,0.10_knife_10_n03041632_31849.png,False,-0.5141156265203245,2.496201515197754,0.1428571428571428,-2.807700248229774,29.741535663604736,10,0.5920995670995668,10,37.2801633345742,0
subject-02,1,265,0.656677007675171,elephant,bear,0.2,0.20_bear_10_n02132136_17615.png,False,-0.9070169606190058,2.0361599922180176,1.0,-0.8579028442129303,28.642507195472717,10,2.175,10,33.234853048755504,10
subject-02,1,266,0.878187894821167,bear,cat,0.9,0.90_cat_10_n02124075_9291.png,False,0.18263997704942717,2.5479211807250977,0.5,-2.064402151959781,28.020129799842834,4,2.2853535353535355,7,37.0822966041574,6
subject-02,1,267,0.869905948638916,cat,chair,0.9,0.90_chair_10_n03376595_3120.png,False,0.14189940564384018,2.5702972412109375,0.1,-3.120115892979615,28.10415267944336,4,0.11323260073260027,10,50.008343440941445,5
subject-02,1,268,0.66375994682312,airplane,airplane,0.0,0.00_airplane_10_n02690373_5967.png,True,-0.872174547764783,0.0004602948320098,1.0,-3.3915618005267644e-05,24.08750143443467,9,8.916666666666666,0,16.162932139379404,9
subject-02,1,269,0.69153094291687,bird,bird,0.03,0.03_bird_10_n02018207_4180.png,True,-0.7355633908622649,0.0077815749682486,1.0,-0.0007243991430917097,26.74120099330321,10,2.8996031746031745,9,32.4285407106532,10
subject-02,1,270,0.65366005897522,elephant,elephant,0.35,0.35_elephant_10_n02504458_8064.png,True,-0.9218579425853898,2.063422918319702,1.0,-1.2123018379144275,27.751185178756714,10,3.528210678210678,8,36.863229673532466,5
subject-02,1,271,0.627226829528809,cat,cat,0.03,0.03_cat_10_n02124075_14924.png,True,-1.0518883542837514,0.0037889638915657,1.0,-0.00033813470626290696,25.93446017894894,10,5.252777777777777,6,28.18299410388197,9
subject-02,1,272,0.88112998008728,bear,clock,0.6,0.60_clock_10_n03196217_3362.png,False,0.19711269061550674,2.4653913974761963,0.3333333333333333,-2.098074029090642,28.1451895236969,4,7.257575757575757,2,21.568140217963663,10
subject-02,1,273,0.788737058639526,bottle,oven,0.03,0.03_oven_10_n04111531_6415.png,False,-0.25738681116584194,0.8246524930000305,1.0,-0.2821031715410015,27.49859195947647,10,0.988095238095238,10,59.14279988788826,10
subject-02,1,274,0.582961082458496,keyboard,keyboard,0.2,0.20_keyboard_10_n04505470_4684.png,True,-1.2696405335003502,0.8116543292999268,1.0,-0.21097691956546613,27.259563446044922,10,1.7555666555666554,10,38.70030592001136,10
subject-02,1,275,0.724661827087402,bicycle,bicycle,0.0,0.00_bicycle_10_n02835271_15038.png,True,-0.5725858584590137,0.0001611444458831,1.0,-1.1026920079707023e-05,24.712557766149985,9,5.083333333333333,7,25.92326671447714,9
subject-02,1,276,0.682207822799683,bird,bird,0.1,0.10_bird_10_n02007558_7446.png,True,-0.7814257078223937,0.7950934171676636,1.0,-0.19290921571277428,27.75130045413971,10,1.6979908979908978,10,34.788961763998365,10
subject-02,1,277,0.774040937423706,bear,dog,0.05,0.05_dog_10_n02096051_1308.png,False,-0.3296800092382237,0.2293364852666854,1.0,-0.03505991717149078,27.279257759451866,10,1.8755050505050503,10,36.6534458413183,10
subject-02,1,278,0.573955774307251,keyboard,keyboard,0.03,0.03_keyboard_10_n03085013_20877.png,True,-1.3139394690031398,0.0045397030189633,1.0,-0.0004327041147039491,26.01747176516801,10,3.4781135531135527,8,35.43484440004177,10
subject-02,1,279,1.43586802482605,elephant,elephant,0.0,0.00_elephant_10_n02504013_8534.png,True,2.9259815368669253,0.0004132671747356,1.0,-3.0220011521182542e-05,26.827251283684745,10,3.2857142857142856,9,33.286121215689626,10
subject-02,1,280,0.753515005111694,bird,bird,0.35,0.35_bird_10_n02018795_248.png,True,-0.4306512293622946,2.3862757682800293,0.1,-3.6935134684690962,27.96053647994995,4,0.5209457209457208,1,41.280754999261994,6
subject-02,1,281,0.679571151733398,boat,boat,0.05,0.05_boat_10_n03662601_19809.png,True,-0.7943960270547545,1.0248866081237793,1.0,-0.40867582454456436,27.755683422088623,10,6.309523809523809,0,22.964566554921102,10
subject-02,1,282,0.917568922042847,clock,chair,0.9,0.90_chair_10_n02791124_5400.png,False,0.37636322956084994,2.5360445976257324,0.125,-2.784788810522876,27.967698216438293,4,0.17914169164169128,10,49.46629076284286,5
subject-02,1,283,0.512978076934814,car,car,0.1,0.10_car_10_n04285008_14554.png,True,-1.6139011180264176,0.4562341868877411,1.0,-0.1357126431573425,27.065719336271286,10,2.3476190476190473,9,43.62188972433747,10
subject-02,1,284,1.26084995269775,chair,bear,0.1,0.10_bear_10_n02134418_1749.png,False,2.0650321769094564,1.2141821384429932,1.0,-0.5859478842745072,28.34824848175049,10,3.235714285714285,10,29.112922197173045,10
subject-02,1,285,0.674854040145874,truck,truck,0.2,0.20_truck_10_n04467665_40307.png,True,-0.817600454761795,2.582185745239258,0.1,-2.928050082636722,29.03824555873871,4,0.257209457209457,7,46.270640317140085,6
subject-02,1,286,0.762349128723145,bird,bear,0.6,0.60_bear_10_n02133161_97.png,False,-0.38719438529713796,2.4899473190307617,0.2,-2.5050510119425042,27.904613375663757,4,0.824242424242424,8,39.09962421504893,6
subject-02,1,287,0.734143972396851,cat,truck,0.9,0.90_truck_10_n04467665_37811.png,False,-0.5259412643555582,2.5153846740722656,0.0714285714285714,-3.9347794522980695,28.012122988700867,4,0.09432234432234377,1,50.173734574356246,5
subject-02,1,288,0.735905885696411,bear,knife,0.9,0.90_knife_10_n03041632_29285.png,False,-0.5172740558261172,2.4954798221588135,0.0909090909090909,-3.4800781099750244,27.740415930747986,4,1.3615440115440112,8,37.987689407893086,6
subject-02,1,289,0.59992504119873,airplane,airplane,0.0,0.00_airplane_10_n02690373_6031.png,True,-1.186191383123223,0.0005341584328562,1.0,-4.029355164241292e-05,26.1801732594613,10,9.25,0,20.362187338161547,10
subject-02,1,290,0.925626993179321,bird,oven,0.35,0.35_oven_10_n04111531_2458.png,False,0.4160025142534231,2.4131553173065186,0.0833333333333333,-3.8639288392030395,28.144106030464172,4,0.1422008547008546,9,57.96950393581364,6
subject-02,1,291,0.631816148757935,car,car,0.35,0.35_car_10_n03100240_1702.png,True,-1.029312563081686,2.3200325965881348,0.125,-3.356541666965661,28.0616774559021,4,0.3444444444444441,7,48.863583764920605,6
subject-02,1,292,1.20958089828491,dog,dog,0.0,0.00_dog_10_n02110958_16337.png,True,1.8128293098249564,0.0381159335374832,1.0,-0.0044624087169486265,26.682200863957405,10,3.230988455988456,9,33.21893865692962,10
subject-02,1,293,0.689221143722534,bear,elephant,0.6,0.60_elephant_10_n02504458_5288.png,False,-0.746925761123869,2.5141003131866455,0.25,-2.417551229929829,28.265185713768005,4,2.868290043290043,8,38.795137773006026,5
subject-02,1,294,0.66893196105957,airplane,airplane,0.05,0.05_airplane_10_n02690373_1161.png,True,-0.8467323617527105,0.0005124136223457,1.0,-3.8266914114819405e-05,26.354020886064973,10,7.583333333333333,6,19.718247165652592,10
subject-02,1,295,1.42279410362244,airplane,oven,0.05,0.05_oven_10_n04111531_22872.png,False,2.8616682693540083,0.0634870082139968,1.0,-0.008469885262494653,26.785682395100594,10,1.126923076923077,10,56.26894846809002,10
subject-02,1,296,0.8488609790802,airplane,airplane,0.05,0.05_airplane_10_n02690373_466.png,True,0.03837493613294992,0.0037205154076218,1.0,-0.00033944645278016723,26.485586875118315,10,7.416666666666666,6,19.84427193893741,10
subject-02,1,297,1.0724618434906,bicycle,bottle,0.2,0.20_bottle_10_n03937543_2105.png,False,1.1383128954480801,2.3574976921081543,0.25,-2.2144642299721635,28.842893838882446,4,3.6095238095238087,10,25.99775581088312,10
subject-02,1,298,0.654175043106079,dog,dog,0.0,0.00_dog_10_n02091244_13118.png,True,-0.9193246312966771,0.0340331643819808,1.0,-0.003764015391150397,26.646235808730125,10,2.929040404040404,9,35.45685247360428,10
subject-02,1,299,0.75817608833313,cat,cat,0.0,0.00_cat_10_n02123597_3896.png,True,-0.4077224165408275,0.0033962319139391,1.0,-0.0003158949022059926,25.55860932567157,10,5.230555555555555,6,29.751955048628528,9
subject-02,1,300,1.09210085868835,cat,bottle,0.0,0.00_bottle_10_n03937543_9745.png,False,1.2349211905749007,0.0006330737960524,1.0,-4.911543343796492e-05,26.179179264057893,10,5.266666666666666,4,21.66756615794016,10
subject-02,1,301,0.729926824569702,car,car,0.35,0.35_car_10_n02814533_73210.png,True,-0.5466862690198101,2.4179816246032715,0.0909090909090909,-3.37303175798946,28.547141909599304,4,0.28211788211788175,7,48.4817174078871,6
subject-02,1,302,0.617552042007446,cat,cat,0.1,0.10_cat_10_n02123045_2721.png,True,-1.099480594461874,0.076474443078041,1.0,-0.01092804349883846,26.748765006661415,10,4.544444444444444,7,30.93996230543332,10
subject-02,1,303,0.895429849624634,knife,knife,0.0,0.00_knife_10_n03041632_289.png,True,0.2674566463907427,0.0002414238551864,1.0,-1.7583524798117344e-05,25.67080190301931,10,3.8373737373737375,8,34.51184561901068,10
subject-02,1,304,0.78490686416626,bicycle,bicycle,0.0,0.00_bicycle_10_n03792782_7092.png,True,-0.27622831387565167,0.0039377054199576,1.0,-0.00037522202119515775,25.106906636618078,9,4.3,8,27.690930441434563,9
subject-02,1,305,0.756808996200562,dog,dog,0.2,0.20_dog_10_n02094433_6402.png,True,-0.414447419748922,1.9462751150131223,0.25,-2.633240594270913,28.46753454208374,10,0.7281857031857031,8,41.13043020704977,5
subject-02,1,306,0.738701820373535,knife,knife,0.0,0.00_knife_10_n03041632_52929.png,True,-0.5035202866211392,1.6405963897705078,1.0,-0.6214826181327947,28.345667362213135,10,1.3344849594849593,10,38.97298015736708,10
subject-02,1,307,0.844626903533936,cat,knife,0.9,0.90_knife_10_n03041632_99460.png,False,0.017546660588380576,2.5349817276000977,0.0833333333333333,-3.455547309225595,27.995750427246094,4,0.8253357753357751,8,38.403510796535336,6
subject-02,1,308,0.724416017532349,elephant,elephant,0.2,0.20_elephant_10_n02504458_309.png,True,-0.5737950454676514,1.451443791389465,1.0,-0.5466004407620533,28.089832544326782,10,3.7377344877344876,8,33.799092559787105,10
subject-02,1,309,0.6561439037323,clock,clock,0.1,0.10_clock_10_n04548280_8668.png,True,-0.9096394069345447,0.0142239741981029,1.0,-0.0014771995500787436,26.192644637078047,10,9.083333333333334,2,18.86387933897019,10
subject-02,1,310,0.738137006759644,boat,keyboard,0.6,0.60_keyboard_10_n03085013_23718.png,False,-0.5062987192336199,2.4871644973754883,0.1111111111111111,-2.9266652665711512,28.31886327266693,4,0.4738206238206236,4,41.62275518575419,6
subject-02,1,311,0.71994686126709,bicycle,bottle,0.35,0.35_bottle_10_n04557648_310.png,False,-0.5957797307023511,2.367002248764038,0.0833333333333333,-3.97905676689286,27.775527119636536,4,4.438690476190476,0,28.606710335452448,3
subject-02,1,312,0.655421018600464,oven,oven,0.03,0.03_oven_10_n04111531_1723.png,True,-0.9131954253731479,0.0001508900604676,1.0,-1.078849889999068e-05,26.51737520188908,10,1.1483516483516483,10,58.189452959621136,6
subject-02,1,313,0.913677930831909,elephant,elephant,0.2,0.20_elephant_10_n02504013_18217.png,True,0.3572226553794504,0.1583827435970306,1.0,-0.028152069323649737,26.458076685667038,10,3.415079365079365,8,33.8022681835379,10
subject-02,1,314,0.617393016815186,cat,cat,0.03,0.03_cat_10_n02123394_9542.png,True,-1.1002628716051908,0.0059043122455477,1.0,-0.000585906453876737,26.044614191167057,10,5.153968253968253,6,29.672342198334775,9
subject-02,1,315,0.787102937698364,elephant,oven,0.05,0.05_oven_10_n04111531_9314.png,False,-0.2654253831903079,1.7675998210906982,0.3333333333333333,-1.7120691604499019,28.466795444488525,10,0.3194444444444444,10,60.59873721578174,6
subject-02,1,316,0.820799112319946,keyboard,keyboard,0.05,0.05_keyboard_10_n04505470_4592.png,True,-0.09966707251597218,0.0010279203997924,1.0,-8.005224202846658e-05,25.777194717084058,10,2.480133755133755,9,36.11245795951038,9
subject-02,1,317,0.80249810218811,bear,bear,0.35,0.35_bear_10_n02133161_1500.png,True,-0.1896934496093555,2.3101797103881836,0.1666666666666666,-2.6692227060235307,28.029756546020508,4,1.0206349206349203,6,38.00175246908737,5
subject-02,1,318,0.82443904876709,car,truck,0.35,0.35_truck_10_n03417042_8928.png,False,-0.08176148758782142,2.4797377586364746,0.0833333333333333,-3.715704291635696,28.285239934921265,4,0.2200299700299697,3,48.49793937644304,6
subject-02,1,319,1.00256395339966,bottle,truck,0.2,0.20_truck_10_n03796401_28656.png,False,0.7944710109822444,2.397256851196289,1.0,-1.5187878774330332,28.885965943336487,10,1.2377899877899874,10,44.47869769552806,10
subject-02,1,320,0.898120880126953,car,car,0.35,0.35_car_10_n04285008_10631.png,True,0.2806943707035735,2.3793764114379883,0.0833333333333333,-3.990255711495779,28.02683675289154,4,0.2856532356532353,7,49.55083427242031,6
subject-02,1,321,0.79656720161438,keyboard,keyboard,0.2,0.20_keyboard_10_n04505470_1351.png,True,-0.2188687512843794,0.20431450009346,1.0,-0.033863475309246806,26.561233550310135,10,2.3905844155844154,9,37.7300997572003,10
subject-02,1,322,0.560876846313477,keyboard,keyboard,0.0,0.00_keyboard_10_n04505470_4682.png,True,-1.378277365931378,0.0002435721980873,1.0,-1.710667936883126e-05,24.307749418221647,10,3.3237845487845483,8,37.271032038996005,9
subject-02,1,323,0.800565958023071,keyboard,bicycle,0.6,0.60_bicycle_10_n03792782_988.png,False,-0.19919805825923537,2.495602607727051,0.0714285714285714,-4.141408113418521,28.18910539150238,4,1.628388278388278,2,34.12412104392231,6
subject-02,1,324,0.664119005203247,bicycle,bicycle,0.03,0.03_bicycle_10_n03792782_1004.png,True,-0.8704082668384849,0.0033967248164117,1.0,-0.0002978887743982494,26.483322834130377,10,3.776190476190476,9,27.883343994945935,9
subject-02,1,325,0.674138784408569,boat,boat,0.1,0.10_boat_10_n03344393_7075.png,True,-0.8211189426627887,2.521118640899658,0.2,-2.816317332902265,29.09746503829956,4,2.3928571428571432,0,28.333457739062105,0
subject-02,1,326,0.721611976623535,bicycle,bicycle,0.1,0.10_bicycle_10_n03792782_11921.png,True,-0.5875886908688427,1.158300280570984,1.0,-0.3020301045032619,28.197453141212463,10,4.359523809523809,7,27.69610601537761,10
subject-02,1,327,0.625570058822632,bicycle,bicycle,0.05,0.05_bicycle_10_n02835271_5963.png,True,-1.0600383450917508,0.0065754880197346,1.0,-0.0006797239104041176,26.99134983913973,10,4.95,7,26.39211226580683,10
subject-02,1,328,0.80941104888916,bear,chair,0.6,0.60_chair_10_n04429376_21362.png,False,-0.1556872640462662,2.462296485900879,0.1111111111111111,-3.23454235462974,28.14410936832428,4,0.12507631257631208,10,49.858056027888246,5
subject-02,1,329,0.753055095672607,cat,oven,0.6,0.60_oven_10_n04111531_9429.png,False,-0.43291361708263304,2.515113353729248,0.0769230769230769,-3.862807375196337,28.045319080352783,4,0.6394230769230769,9,55.13408162582799,5
subject-02,1,330,0.676934957504272,cat,dog,0.05,0.05_dog_10_n02098105_146.png,False,-0.807364000628511,1.5335453748703003,1.0,-0.46336364017440257,28.39042580127716,10,2.362373737373737,10,36.36765148168191,10
subject-02,1,331,0.595079898834229,car,car,0.05,0.05_car_10_n03100240_17364.png,True,-1.2100256201645387,0.0256617963314056,1.0,-0.003776699308702949,26.365789502859116,10,2.502380952380952,9,41.907340048281924,6
subject-02,1,332,0.738626003265381,cat,cat,0.6,0.60_cat_10_n02123597_5514.png,True,-0.5038932463386433,2.4249467849731445,1.0,-1.6495124808475214,28.11199414730072,4,3.963131313131313,8,35.8093934174926,5
subject-02,1,333,0.79041600227356,car,car,0.03,0.03_car_10_n03100240_8683.png,True,-0.24912774723290945,0.3265707790851593,1.0,-0.08092165139425128,26.556807070970535,10,2.327197802197802,9,41.84973455688004,10
subject-02,1,334,1.10830783843994,cat,clock,0.6,0.60_clock_10_n03196217_2346.png,False,1.3146466079234949,2.37406063079834,0.1666666666666666,-2.6961489867282613,27.93401610851288,4,6.8809523809523805,2,22.609934467873757,10
subject-02,1,335,0.70612096786499,elephant,clock,0.1,0.10_clock_10_n03196217_958.png,False,-0.6637921018285291,2.163022994995117,0.3333333333333333,-2.0369577969177612,28.76287317276001,10,7.041666666666666,2,22.016497173756015,10
subject-02,1,336,0.859778165817261,bear,elephant,0.6,0.60_elephant_10_n02504013_1110.png,False,0.09207878979509415,2.5105090141296387,0.5,-1.8483318151087746,28.343712329864502,4,3.136147186147186,8,37.5811817799695,5
subject-02,1,337,0.707660913467407,elephant,elephant,0.2,0.20_elephant_10_n02504458_5827.png,True,-0.6562167973776932,2.5093252658843994,1.0,-1.8875631512119124,29.098530173301697,4,3.4797979797979797,8,35.69380953018646,0
subject-02,1,338,0.829468011856079,bicycle,truck,0.2,0.20_truck_10_n03417042_6654.png,False,-0.0570229991559474,2.5193467140197754,0.3333333333333333,-2.281737465789576,29.207228422164917,4,0.5329670329670327,10,44.977876066865264,6
subject-02,1,339,0.653366804122925,chair,chair,0.0,0.00_chair_10_n04099969_8021.png,True,-0.9233005226247964,0.0002790259313769,1.0,-1.99081495208741e-05,26.32489521970274,10,2.329304029304029,9,42.31078507663815,10
subject-02,1,340,0.740997076034546,cat,bird,0.9,0.90_bird_10_n01820546_654.png,False,-0.49222945894685466,2.470322608947754,0.3333333333333333,-2.1129357559729565,27.86145305633545,4,0.8382936507936505,10,39.60334432334457,10
subject-02,1,341,1.27496600151062,bicycle,oven,0.2,0.20_oven_10_n04111531_8144.png,False,2.1344718812941537,2.1211469173431396,0.2,-3.1252041725562596,28.350064992904663,10,0.16666666666666652,10,59.457179000924825,6
subject-02,1,342,1.179034948349,cat,bear,0.6,0.60_bear_10_n02132136_11183.png,False,1.6625675926959036,2.456977605819702,0.25,-2.492922524794878,28.056381583213806,4,0.977020202020202,8,38.75347645802095,5
subject-02,1,343,1.23047089576721,bird,bottle,0.9,0.90_bottle_10_n04591713_5279.png,False,1.9155914402906307,2.480769157409668,0.1666666666666666,-2.726231158712344,28.027395248413086,4,5.2020202020202015,0,25.705038094768867,3
subject-02,1,344,0.828495025634766,truck,truck,0.03,0.03_truck_10_n03796401_6444.png,True,-0.06180931553059473,0.094715267419815,1.0,-0.016566974783142323,26.749871879816055,10,3.4859029859029858,7,37.88733314814693,10
subject-02,1,345,0.746295928955078,boat,airplane,0.2,0.20_airplane_10_n02690373_2024.png,False,-0.4661633277470063,1.6540169715881348,1.0,-0.8418793553125483,28.081339120864868,10,6.199999999999999,7,24.77780899574101,10
subject-02,1,346,0.555965900421143,cat,airplane,0.6,0.60_airplane_10_n02690373_6674.png,False,-1.4024353038595896,2.45456600189209,0.0769230769230769,-4.286644327722702,28.04816246032715,4,1.7963675213675214,4,32.051224370096556,4
subject-02,1,347,0.885860204696655,dog,dog,0.0,0.00_dog_10_n02107683_6800.png,True,0.22038162393406752,0.1560662984848022,1.0,-0.024471877741130212,26.39289367198944,10,2.3679292929292926,10,35.70940739805516,10
subject-02,1,348,0.779529094696045,bird,oven,0.1,0.10_oven_10_n04111531_16198.png,False,-0.3026826515739111,2.2378666400909424,0.0714285714285714,-4.154150603967154,29.348006010055542,10,0.030952380952380787,8,59.7909168802987,6
subject-02,1,349,0.619449853897095,elephant,bird,0.35,0.35_bird_10_n01824575_2959.png,False,-1.090144873231239,2.2017884254455566,0.0833333333333333,-4.067404338097765,28.02596080303192,4,0.5218614718614717,1,41.10396022125278,5
subject-02,1,350,0.905300140380859,elephant,elephant,0.6,0.60_elephant_10_n02504013_1132.png,True,0.31601060659513,2.4847803115844727,0.5,-2.005961463124178,28.09957981109619,4,2.586147186147186,9,38.46357755437668,0
subject-02,1,351,0.619117021560669,cat,bird,0.0,0.00_bird_10_n01818515_7370.png,False,-1.0917821429345018,2.439945697784424,0.1111111111111111,-3.125813169673755,29.285766124725342,10,0.6722943722943722,9,38.87258702570729,0
subject-02,1,352,0.660808086395264,cat,bicycle,0.9,0.90_bicycle_10_n03792782_3754.png,False,-0.8866953473321749,2.5522260665893555,0.0769230769230769,-3.6756202407612695,28.050867676734924,4,1.4697802197802197,1,34.27731710411172,6
subject-02,1,353,0.605059146881104,bear,bear,0.0,0.00_bear_10_n02132136_2263.png,True,-1.1609356769698977,0.0063696955330669,1.0,-0.0006357067413152032,26.80194388376549,10,3.211111111111111,9,28.269617305258897,10
subject-02,1,354,0.764388084411621,oven,truck,0.9,0.90_truck_10_n03417042_12908.png,False,-0.37716434912071267,2.536543846130371,0.0714285714285714,-3.7222269419645504,28.031831979751587,4,0.14072594072594027,8,49.869512493914335,5
subject-02,1,355,0.706604957580566,airplane,chair,0.6,0.60_chair_10_n02791124_7167.png,False,-0.6614112583488589,2.361645221710205,0.1666666666666666,-2.6589166198841707,28.08744239807129,4,0.19432234432234377,10,49.0999244352668,5
subject-02,1,356,0.922502040863037,car,truck,0.6,0.60_truck_10_n04467665_1840.png,False,0.40063024061398994,2.4363481998443604,0.0625,-4.721683307591572,28.101358294487,4,0.07912087912087878,3,51.44766111847986,5
subject-02,1,357,0.721940994262695,airplane,airplane,0.1,0.10_airplane_10_n02690373_2579.png,True,-0.5859701864343875,0.6086204051971436,0.2,-4.075932709242325,27.515250205993652,10,4.116666666666666,0,27.90854302386596,5
subject-02,1,358,0.827712059020996,airplane,boat,0.2,0.20_boat_10_n04612504_40672.png,False,-0.06566088695288289,2.287395477294922,0.5,-1.7354970015145876,28.764954924583435,10,3.0344988344988346,1,28.867803677256635,10
subject-02,1,359,0.843571901321411,bear,bottle,0.6,0.60_bottle_10_n02823428_3929.png,False,0.012356890934414567,2.4433233737945557,0.1,-3.3833105662586633,28.307289481163025,4,4.647619047619046,0,26.66405185111422,3
subject-02,1,360,0.639331102371216,cat,bicycle,0.9,0.90_bicycle_10_n03792782_37794.png,False,-0.9923449835352639,2.532590389251709,0.0769230769230769,-3.751083722827372,28.09928321838379,4,1.3633699633699632,2,34.49953894968524,6
subject-02,1,361,0.627115964889526,elephant,elephant,0.2,0.20_elephant_10_n02504013_3939.png,True,-1.0524337199084088,0.0071932049468159,1.0,-0.0007385357806127821,26.428447005338967,10,4.377777777777777,7,32.550641781912546,10
subject-02,1,362,0.930999040603638,elephant,boat,0.6,0.60_boat_10_n03344393_382.png,False,0.4424287040484774,2.4652204513549805,0.0714285714285714,-4.31437724000325,28.158428072929382,4,1.5629329004329005,0,34.02090709735201,0
subject-02,1,363,0.90278697013855,bear,cat,0.9,0.90_cat_10_n02123597_7138.png,False,0.303647812940347,2.4972105026245117,1.0,-1.7935192643735263,28.104795455932617,4,2.8575757575757574,10,36.8211527471792,5
subject-02,1,364,0.704671144485474,bird,bird,0.0,0.00_bird_10_n01560419_2432.png,True,-0.6709240768038373,0.0639825314283371,1.0,-0.008006291599258886,26.11897449195385,10,3.1269841269841265,9,33.254079902432416,10
subject-02,1,365,0.570463895797729,clock,clock,0.1,0.10_clock_10_n02708093_527.png,True,-1.3311167269357853,0.0008228080114349,1.0,-6.383861219528658e-05,26.089724327786826,10,9.25,2,18.80712777446634,10
subject-02,1,366,0.748255014419556,elephant,bicycle,0.35,0.35_bicycle_10_n03792782_12504.png,False,-0.4565261893861869,2.3974709510803223,0.0833333333333333,-3.6971212417442465,28.129423141479492,4,1.5626373626373624,2,32.740337851093784,6
subject-02,1,367,0.84586501121521,knife,knife,0.2,0.20_knife_10_n03041632_10540.png,True,0.023637163144995636,2.3797965049743652,0.3333333333333333,-2.153087675330425,28.942036151885986,10,1.3758658008658002,10,34.3977210521045,10
subject-02,1,368,0.63998007774353,cat,cat,0.1,0.10_cat_10_n02123045_3098.png,True,-0.9891525421797659,0.0111578721553087,1.0,-0.0012298036739060033,26.632504107430577,10,5.225,6,29.081468108726117,10
subject-02,1,369,0.633692026138306,keyboard,keyboard,0.0,0.00_keyboard_10_n03085013_19547.png,True,-1.0200847421466848,0.0004935951437801,1.0,-3.737281062895722e-05,23.97858107998036,9,3.6329115329115327,8,33.98799746784247,9
subject-02,1,370,0.623346090316772,elephant,elephant,0.03,0.03_elephant_10_n02504013_104.png,True,-1.0709784968052383,0.1732304245233535,1.0,-0.03286789206039831,27.10017468035221,10,2.382081807081807,10,34.910550934734665,10
subject-02,1,371,0.89134407043457,bear,bird,0.6,0.60_bird_10_n01530575_280.png,False,0.24735787067097303,2.528308629989624,0.3333333333333333,-2.12415305167521,28.39531636238098,4,1.3138278388278384,8,38.029298391248574,5
subject-02,1,372,0.551112174987793,chair,keyboard,0.0,0.00_keyboard_10_n03085013_23369.png,False,-1.4263117627557238,0.4304732382297516,1.0,-0.1204543179918599,26.838405281305313,10,1.4718614718614715,10,40.59139686159259,10
subject-02,1,373,0.642920970916748,car,car,0.35,0.35_car_10_n03100240_319.png,True,-0.9746856927601859,2.3705267906188965,0.0909090909090909,-3.8238808576008347,28.158177256584167,4,0.32973692973692936,7,49.177854010742,6
subject-02,1,374,0.856882095336914,bottle,bottle,0.05,0.05_bottle_10_n04591713_6662.png,True,0.07783243228397568,0.1518706977367401,1.0,-0.02388402111248576,26.570636719465256,10,3.689285714285714,10,25.947825990583187,10
subject-02,1,375,0.776407957077026,elephant,bicycle,0.35,0.35_bicycle_10_n03792782_565.png,False,-0.3180361599445423,2.347982406616211,0.1,-3.812245786188353,27.959914565086365,4,1.6119769119769118,2,32.83345374789467,6
subject-02,1,376,0.666343927383423,clock,clock,0.03,0.03_clock_10_n02708093_3213.png,True,-0.8594634238077979,0.0860684514045715,1.0,-0.013765712317482642,26.08816295862198,10,7.916666666666666,2,19.437794658623364,10
subject-02,1,377,0.716156959533691,elephant,chair,0.6,0.60_chair_10_n02791124_1635.png,False,-0.6144230252604104,2.452275276184082,0.125,-3.363145388172405,28.117253065109253,4,0.12037545787545748,10,50.543662000437614,5
subject-02,1,378,1.05609512329102,bottle,bottle,0.35,0.35_bottle_10_n03983396_11434.png,True,1.0578016824683047,2.35584020614624,0.0833333333333333,-3.8132536236831984,28.10067331790924,4,3.920833333333333,1,28.01878613882684,3
subject-02,1,379,1.20779800415039,cat,cat,0.1,0.10_cat_10_n02123159_3472.png,True,1.8040588923170902,2.1578941345214844,0.0666666666666666,-4.700882884315143,29.063940048217773,10,0.8583333333333332,7,38.969734636090884,0
subject-02,1,380,0.781553983688354,car,car,0.05,0.05_car_10_n03100240_9305.png,True,-0.29272181232620537,0.2354011237621307,1.0,-0.04327993936351542,26.73002216219902,10,2.2078504828504824,9,42.840875329589466,10
subject-02,1,381,0.645508766174316,keyboard,bottle,0.2,0.20_bottle_10_n02823428_13937.png,False,-0.9619558035343988,1.2326287031173706,0.0714285714285714,-6.60016299031119,27.594386219978333,10,3.704004329004328,1,31.463215698656423,4
subject-02,1,382,0.649645090103149,bird,bird,0.03,0.03_bird_10_n01855672_12414.png,True,-0.9416083880029618,0.0045235389843583,1.0,-0.00042000291131842464,26.350941442884505,10,2.6345238095238095,9,33.40822540148459,9
subject-02,1,383,1.08311796188354,bicycle,bicycle,0.0,0.00_bicycle_10_n03792782_7101.png,True,1.1907325010263392,0.0009336830116808,1.0,-7.349522771603067e-05,25.86010698089376,10,4.866666666666667,7,25.872204930485534,9
subject-02,1,384,0.83685302734375,dog,dog,0.05,0.05_dog_10_n02102480_10015.png,True,-0.020694611578203903,0.0879482105374336,1.0,-0.012229231131292512,27.156161673367023,10,2.9218975468975468,9,35.14206438232668,10
subject-02,1,385,0.684733867645264,elephant,bear,0.0,0.00_bear_10_n02132136_5138.png,False,-0.7689995813853902,0.0161973033100366,1.0,-0.0018636654396025128,26.94182906486094,10,3.0166666666666666,10,28.037115031935443,10
subject-02,1,386,0.626544952392578,keyboard,bottle,0.2,0.20_bottle_10_n04557648_2075.png,False,-1.0552426460826998,2.5883171558380127,0.0714285714285714,-3.5866731489609873,29.24289381504059,4,3.8950396825396822,1,27.556977717755647,4
subject-02,1,387,0.814608097076416,keyboard,knife,0.6,0.60_knife_10_n03041632_4269.png,False,-0.13012193095765742,2.4663867950439453,0.1111111111111111,-3.144224775449302,28.00846791267395,4,1.140079365079365,6,37.655795684651295,6
subject-02,1,388,0.70213508605957,clock,clock,0.05,0.05_clock_10_n02708093_2898.png,True,-0.6833994620714581,0.002684844424948,1.0,-0.000235704541575102,25.869464887073264,10,8.583333333333332,2,18.983368336800442,10
subject-02,1,389,0.601923942565918,elephant,elephant,0.05,0.05_elephant_10_n02504458_8212.png,True,-1.1763583822692483,0.2381527423858642,1.0,-0.03942768189649424,27.28303599357605,10,3.6015984015984013,8,33.183336549898385,10
subject-02,1,390,0.514031887054443,cat,cat,0.2,0.20_cat_10_n02123159_1413.png,True,-1.6087172125189555,0.6781637072563171,1.0,-0.170872753003723,27.330261647701263,10,3.939321789321789,7,32.275342502518306,10
subject-02,1,391,0.885544061660767,dog,dog,0.03,0.03_dog_10_n02094114_1589.png,True,0.21882645228183228,0.902641236782074,1.0,-0.3739046384865971,27.80639761686325,10,2.3047979797979794,10,35.73523188743205,10
subject-02,1,392,0.713420867919922,bottle,bottle,0.05,0.05_bottle_10_n03983396_23516.png,True,-0.6278824143110027,0.005178996361792,1.0,-0.0005401043070959809,26.07301337365061,10,5.208333333333334,9,21.14372990029219,10
subject-02,1,393,0.533094167709351,keyboard,keyboard,0.05,0.05_keyboard_10_n03085013_5611.png,True,-1.5149459914696124,0.0046344925649464,1.0,-0.00045828590133195537,25.572087400127202,10,2.627417027417027,9,37.675858431454316,10
subject-02,1,394,0.545471906661987,keyboard,knife,0.2,0.20_knife_10_n03041632_46103.png,False,-1.4540573855136485,2.2850770950317383,0.25,-2.4224751862480467,28.832709431648254,10,1.3067821067821064,10,34.470786510408715,0
subject-02,1,395,0.956718921661377,bicycle,chair,0.0,0.00_chair_10_n04429376_6915.png,False,0.568950010480249,0.0106383105739951,1.0,-0.0010657026615476896,26.77640302386135,10,1.429304029304029,10,42.88016177235249,10
subject-02,1,396,1.14891004562378,cat,oven,0.9,0.90_oven_10_n04111531_6211.png,False,1.5143770921112196,2.493448257446289,0.0625,-4.304621735690934,28.094667196273804,4,1.0833333333333333,9,55.575344590496975,5
subject-02,1,397,1.47472214698792,cat,keyboard,0.35,0.35_keyboard_10_n03085013_20798.png,False,3.1171128366246386,2.3238136768341064,0.2,-2.721088281444684,28.225022077560425,4,1.0377095127095124,8,40.40221502764548,7
subject-02,1,398,0.780324935913086,boat,bear,0.9,0.90_bear_10_n02133161_10190.png,False,-0.2987677473694073,2.5396618843078613,0.125,-3.0340569344246333,27.93488347530365,4,0.6984848484848485,5,39.878831202817544,6
subject-02,1,399,0.654384851455688,cat,keyboard,0.0,0.00_keyboard_10_n03085013_23289.png,False,-0.9182925415123877,0.0912822186946868,1.0,-0.012786547855876303,26.163476794958115,10,2.516183816183816,9,39.867767212936926,10
subject-02,1,400,0.969826221466064,cat,dog,0.05,0.05_dog_10_n02091635_8296.png,False,0.6334274740952265,0.1001205444335937,1.0,-0.015991134393937817,26.909916162490845,10,2.1595959595959595,10,36.573099359146035,10
subject-02,1,401,0.712120771408081,bird,elephant,0.05,0.05_elephant_10_n02504013_13766.png,False,-0.6342778524857063,0.0830269008874893,1.0,-0.01213492722303155,26.827787652611732,10,3.5368797868797865,8,32.94561379132518,10
subject-02,1,402,0.653874158859253,bottle,bottle,0.1,0.10_bottle_10_n03983396_11859.png,True,-0.9208047418736933,1.371318817138672,1.0,-0.44603476840139955,28.23832368850708,10,3.9400183150183152,10,24.795353343410092,10
subject-02,1,403,0.781548023223877,airplane,airplane,0.35,0.35_airplane_10_n02690373_8524.png,True,-0.2927511330587114,2.3576555252075195,0.0714285714285714,-4.362957958407453,28.154468536376953,4,2.038095238095238,4,31.33110915677377,6
subject-02,1,404,0.669601917266846,elephant,bear,0.35,0.35_bear_10_n02134418_2432.png,False,-0.843436711418778,2.3300535678863525,0.1666666666666666,-2.7637656227162712,28.114312410354614,4,0.9694444444444442,5,37.8121386776201,5
subject-02,1,405,0.673389911651611,bottle,oven,0.35,0.35_oven_10_n04111531_9411.png,False,-0.8248027994951274,2.1878890991210938,0.1,-3.565025369470002,28.065804481506348,10,0.12467948717948711,9,57.37324761543406,6
subject-02,1,406,0.607445001602173,bicycle,bicycle,0.2,0.20_bicycle_10_n02835271_1075.png,True,-1.1491991741614902,2.295246124267578,0.5,-1.7841388011015675,29.032397270202637,10,2.5,6,28.886669437094294,10
subject-02,1,407,1.00295996665955,boat,truck,0.03,0.03_truck_10_n04467665_51949.png,False,0.7964190804501046,1.4311192035675049,0.5,-1.3438998502948096,27.798542976379395,10,1.4884421134421133,8,39.79342232123792,10
subject-02,1,408,0.738958120346069,truck,truck,0.03,0.03_truck_10_n03796401_9207.png,True,-0.5022594951232848,0.0055116461589932,1.0,-0.0005739189705984237,26.398787622340024,10,3.0097125097125095,9,37.376339685309674,10
subject-02,1,409,0.732475996017456,keyboard,clock,0.35,0.35_clock_10_n04548280_5088.png,False,-0.5341463781406739,2.432509422302246,0.5,-1.7691221816543405,28.305123686790466,4,7.904761904761904,2,21.200521919349075,10
subject-02,1,410,0.806267023086548,keyboard,keyboard,0.05,0.05_keyboard_10_n04505470_4994.png,True,-0.17115336402972586,0.0010389315430074,1.0,-8.130404055756548e-05,26.192433260614052,10,2.874145299145299,9,35.72714185777374,10
subject-02,1,411,1.10621213912964,elephant,boat,0.35,0.35_boat_10_n03662601_5419.png,False,1.3043374383736013,2.366359233856201,0.0769230769230769,-4.184496916537811,28.129579544067383,4,2.3467032967032964,0,32.748405872419255,5
subject-02,1,412,1.05999708175659,elephant,elephant,0.35,0.35_elephant_10_n02504458_485.png,True,1.076996206797486,2.3657052516937256,1.0,-1.403374024968352,28.055291891098022,4,3.4143217893217894,8,37.145204082916415,0
subject-02,1,413,0.671634912490845,cat,bird,0.9,0.90_bird_10_n02018795_5868.png,False,-0.8334359959748588,2.4957261085510254,0.5,-1.990997471294372,28.09873926639557,4,1.1115440115440114,10,38.64598401781378,6
subject-02,1,414,1.03357601165771,bird,keyboard,0.6,0.60_keyboard_10_n04505470_3309.png,False,0.9470256093934251,2.47339129447937,0.1428571428571428,-2.8376354265780597,28.306100368499756,4,0.5519341769341767,1,41.18022024107594,6
subject-02,1,415,1.13344812393188,elephant,truck,0.9,0.90_truck_10_n04467665_61522.png,False,1.4383167663261478,2.523313522338867,0.0714285714285714,-3.795924682877383,27.94590437412262,4,0.11410256410256367,3,49.83911172333621,5
subject-02,1,416,1.02714681625366,bear,dog,0.2,0.20_dog_10_n02096437_4384.png,False,0.915399094480722,1.3486557006835938,0.5,-1.1687288342837074,27.893325567245483,10,0.9960789210789209,10,40.05253481440901,10
subject-02,1,417,0.647467851638794,cat,cat,0.05,0.05_cat_10_n02123045_5381.png,True,-0.9523186651735793,0.0025405711494386,1.0,-0.0002307562020902671,25.218708974774927,10,5.322222222222222,6,28.392215854161634,9
subject-02,1,418,0.686926126480103,keyboard,clock,0.05,0.05_clock_10_n03196217_3987.png,False,-0.7582154159688489,1.2519248723983765,0.5,-1.4848593401837324,27.169801712036133,10,7.483766233766233,2,21.07551599328091,10
subject-02,1,419,0.84666895866394,bird,knife,0.05,0.05_knife_10_n03041632_52702.png,False,0.02759194354570852,1.028975248336792,1.0,-0.31461609061163387,28.1856951713562,10,1.2782467532467532,10,37.10155207924523,10
subject-02,1,420,0.874383926391602,bear,bird,0.9,0.90_bird_10_n01530575_310.png,False,0.1639274855626533,2.483109951019287,0.25,-2.077999196282358,27.969194173812866,4,0.79527417027417,10,39.0107789485893,6
subject-02,1,421,0.796586990356445,clock,clock,0.03,0.03_clock_10_n04548280_4872.png,True,-0.21877140645245416,0.6800487041473389,1.0,-0.3871078751619661,27.012859344482422,10,7.999999999999999,2,20.14912387894586,10
subject-02,1,422,0.86232590675354,chair,airplane,0.0,0.00_airplane_10_n02690373_10455.png,False,0.10461164369842675,0.0288217086344957,1.0,-0.003382496135951374,26.16927600093186,10,8.416666666666666,0,19.986834620631406,10
subject-02,1,423,1.13798308372498,dog,dog,0.6,0.60_dog_10_n02109525_50916.png,True,1.4606251524477825,2.4401650428771973,0.1666666666666666,-2.6344016026013826,28.200035333633423,4,0.7599317349317347,8,42.19168127311028,5
subject-02,1,424,0.697781801223755,cat,cat,0.35,0.35_cat_10_n02123159_5950.png,True,-0.7048141522661938,2.425500869750977,0.5,-1.8370078792843074,28.14513599872589,4,2.4024531024531024,7,35.63656817653834,5
subject-02,1,425,0.645542144775391,airplane,airplane,0.03,0.03_airplane_10_n02690373_1306.png,True,-0.9617916074323487,0.0010816564317792,1.0,-8.803993573466316e-05,25.028314899420366,9,8.916666666666666,0,17.528496922123935,9
subject-02,1,426,0.907773017883301,bear,bottle,0.6,0.60_bottle_10_n04591713_5290.png,False,0.32817519209816254,2.425600528717041,0.1111111111111111,-3.447869981926955,27.885358333587646,4,4.624206349206348,0,26.792083610571545,3
subject-02,1,427,1.02910709381104,airplane,elephant,0.35,0.35_elephant_10_n02504458_130.png,False,0.9250420969880747,2.369741201400757,1.0,-1.454290964829329,28.11983871459961,4,3.4905122655122653,8,37.69540529693043,5
subject-02,1,428,0.829102993011475,truck,truck,0.05,0.05_truck_10_n04467665_3612.png,True,-0.058818600814750946,0.1393767595291137,1.0,-0.02230151259702726,26.541247963905334,10,2.5494560994560995,10,38.04443219203938,10
subject-02,1,429,1.24469804763794,bird,oven,0.2,0.20_oven_10_n04111531_6024.png,False,1.9855776831292755,2.5199544429779053,0.0625,-4.879378070484969,29.209799766540527,4,0.03644688644688629,9,59.19459764359602,6
subject-02,1,430,1.1467490196228,bear,dog,0.6,0.60_dog_10_n02096294_5451.png,False,1.503746567333006,2.4486541748046875,0.2,-2.5116848654314112,28.254762172698975,4,0.7781857031857029,7,41.9572543557067,5
subject-02,1,431,1.47861385345459,elephant,oven,0.35,0.35_oven_10_n04111531_20493.png,False,3.1362569292939133,2.4792447090148926,0.0833333333333333,-3.6300982156362664,28.27728521823883,4,0.12467948717948711,7,57.7642144141036,6
subject-02,1,432,0.708223819732666,dog,dog,0.03,0.03_dog_10_n02102480_6569.png,True,-0.6534477473996114,0.0389149636030197,1.0,-0.0049810878389508935,26.95058684051037,10,2.985353535353535,9,33.504705631577316,10
subject-02,1,433,0.946040868759155,bird,bicycle,0.9,0.90_bicycle_10_n03792782_30942.png,False,0.5164225046063375,2.528940200805664,0.0833333333333333,-3.5598752211554694,28.07319748401642,4,1.6428571428571428,6,33.601681775868926,6
subject-02,1,434,0.801733016967773,dog,dog,0.03,0.03_dog_10_n02108915_3733.png,True,-0.1934570588341172,0.0243459772318601,1.0,-0.002658440611572327,26.44361506216228,10,2.4623737373737375,10,34.97417771097969,10
subject-02,1,435,0.735605955123901,chair,boat,0.03,0.03_boat_10_n02951358_4397.png,False,-0.5187494750859343,0.9803144931793212,1.0,-0.4607465671639469,27.727806329727173,10,6.027777777777778,10,23.04400817969251,10
subject-02,1,436,1.16565704345703,elephant,elephant,0.6,0.60_elephant_10_n02504013_5876.png,True,1.5967589678250376,2.468095302581787,0.5,-1.9126261883581364,28.332991003990173,4,3.3679653679653674,8,37.41158948152605,5
subject-02,1,437,1.22931098937988,cat,car,0.6,0.60_car_10_n04285008_2363.png,False,1.9098856257445174,2.489551067352295,0.1,-3.579122544574382,28.138574838638306,4,0.2230269730269727,7,49.67468433539996,5
subject-02,1,438,0.725208044052124,car,car,0.1,0.10_car_10_n03100240_1438.png,True,-0.5698989065319544,0.0872063934803009,1.0,-0.01533028089290907,26.35121515393257,10,2.285714285714285,9,44.06020132220125,6
subject-02,1,439,0.846761226654053,bear,clock,0.9,0.90_clock_10_n03196217_12701.png,False,0.02804582848493977,2.437800884246826,1.0,-1.691134921366889,27.650774717330933,4,7.840909090909091,10,20.478562657103495,10
subject-02,1,440,0.75656795501709,bird,bird,0.05,0.05_bird_10_n02017213_7721.png,True,-0.415633150171558,1.2686703205108645,0.3333333333333333,-1.9467770719513064,28.369919538497925,10,1.0595238095238093,9,34.82488572905613,0
subject-02,1,441,0.650505065917969,chair,chair,0.05,0.05_chair_10_n03376595_830.png,True,-0.9373779927166657,0.6244243383407593,1.0,-0.11940063496678434,27.222758889198303,10,1.09047619047619,10,45.25365331790493,10
subject-02,1,442,1.28423500061035,bear,bird,0.9,0.90_bird_10_n01843383_4896.png,False,2.180067966003103,2.475707769393921,0.3333333333333333,-1.8827121954163177,27.81043243408203,4,0.9164682539682538,10,39.26476013182182,10
subject-02,1,443,0.984195947647095,clock,clock,0.05,0.05_clock_10_n03196217_3868.png,True,0.7041150688554605,0.0072609521448612,1.0,-0.0006861059643070344,26.069596204906702,10,9.75,2,18.42426535170641,10
subject-02,1,444,0.7499098777771,cat,truck,0.9,0.90_truck_10_n03417042_6554.png,False,-0.44838558121259103,2.473294258117676,0.0714285714285714,-3.8610307076375814,27.88845205307007,4,0.11556776556776507,1,50.03644691081135,5
subject-02,1,445,0.663760900497437,bicycle,bicycle,0.03,0.03_bicycle_10_n02835271_6167.png,True,-0.8721698564475789,0.0007321329903788,1.0,-5.6149151712533575e-05,26.22556109150173,10,4.166666666666666,7,27.486568125503496,9
subject-02,1,446,0.677737951278687,bird,bird,0.05,0.05_bird_10_n02033041_6728.png,True,-0.8034139115449929,0.2027307897806167,1.0,-0.032520241526295735,27.238460436463356,10,1.915079365079365,10,34.40934431004406,10
subject-02,1,447,0.58739185333252,airplane,airplane,0.0,0.00_airplane_10_n02690373_1381.png,True,-1.247844673783002,0.0004241365240886,1.0,-3.135253463754414e-05,24.301785458927043,9,9.083333333333332,0,16.00510023953321,9
subject-02,1,448,0.621118068695068,boat,boat,0.05,0.05_boat_10_n03662601_10811.png,True,-1.0819385866168278,0.5481072664260864,1.0,-0.19420102121802732,27.020676255226135,10,6.916666666666666,0,22.0142195415057,10
subject-02,1,449,0.649194002151489,oven,oven,0.1,0.10_oven_10_n04111531_538.png,True,-0.9438273810391863,0.1130439043045044,1.0,-0.01586013990057621,26.94099247455597,10,1.0476190476190474,10,54.96777573085977,10
subject-02,1,450,0.914763927459717,knife,knife,0.2,0.20_knife_10_n03041632_36789.png,True,0.3625648928424589,2.4541385173797607,1.0,-1.4657195616552419,28.987627625465393,4,3.4337662337662334,10,32.1888707215008,10
subject-02,1,451,0.862679004669189,chair,truck,0.35,0.35_truck_10_n03417042_6847.png,False,0.1063486038922143,2.1606411933898926,0.0769230769230769,-4.453092858000084,27.824076652526855,10,0.20079920079920052,7,49.518248917993844,6
subject-02,1,452,0.678627014160156,bottle,bottle,0.2,0.20_bottle_10_n04560804_21519.png,True,-0.799040431084063,2.0223517417907715,1.0,-0.9161341925275753,28.651979207992554,10,4.679761904761904,10,25.334463795471404,10
subject-02,1,453,0.658444881439209,bird,bird,0.03,0.03_bird_10_n01818515_1617.png,True,-0.8983204313570543,0.0972898975014686,1.0,-0.013376492740105252,26.816372014582157,10,2.094047619047619,10,32.89280480793539,10
subject-02,1,454,0.850260019302368,bear,bird,0.9,0.90_bird_10_n01828970_11546.png,False,0.045257098467290924,2.5337119102478027,1.0,-1.765343001115212,27.963735818862915,4,1.494678932178932,10,38.997437665817834,10
