subject_id,Session,trial,rt,object_response,category,condition,item_id,response_correct,rt_zscore,output_entropy,output_rank_correct,output_logprob_correct,auc_entropy,layer_biggest_change_entropy,auc_rank_correct,layer_biggest_change_rank_correct,auc_logprob_correct,layer_biggest_change_logprob_correct
subject-03,1,1,1.02795696258545,boat,bottle,60,60_bottle_10_n02823428_889.png,False,1.0785328641467875,2.679940700531006,0.3333333333333333,-2.3632767480681447,31.289042472839355,4,0.9229908979908976,10,35.935297804960484,0
subject-03,1,2,0.91179895401001,airplane,airplane,90,90_airplane_10_n02690373_1696.png,True,0.472583919724143,0.2899185121059418,1.0,-0.045355400550493315,26.75676879286766,9,3.9634670884670884,8,27.07891583333,9
subject-03,1,3,0.539807081222534,knife,knife,30,30_knife_10_n03041632_20770.png,True,-1.4679459276258133,0.0372276976704597,1.0,-0.004173811216477287,25.846232898533344,9,5.116666666666667,8,22.685406344729678,9
subject-03,1,4,0.937772989273071,bottle,truck,150,150_truck_10_n03417042_1279.png,False,0.6080798656608065,2.608323097229004,0.0666666666666666,-3.5807501012616276,31.01542067527771,5,0.889285714285714,0,36.34233694500103,0
subject-03,1,5,0.601234912872314,bicycle,bicycle,30,30_bicycle_10_n03792782_8374.png,True,-1.147501989210824,0.0503869764506816,1.0,-0.005850348128057055,25.162142921239138,9,7.833333333333333,6,18.95356371369277,9
subject-03,1,6,0.961323976516724,elephant,elephant,30,30_elephant_10_n02504458_7033.png,True,0.7309357585554789,0.0407449752092361,1.0,-0.004493961347352666,24.43916804715991,9,7.583333333333333,1,19.545439873227302,0
subject-03,1,7,0.928899765014648,boat,car,180,180_car_10_n04285008_11770.png,False,0.5617918745101591,2.626685380935669,0.0909090909090909,-3.169212209083567,30.96378254890442,5,0.10665584415584388,7,46.234762212410374,7
subject-03,1,8,0.857043981552124,bottle,bottle,30,30_bottle_10_n04591713_5558.png,True,0.18694956554012923,0.0091247893869876,1.0,-0.0009298474001141502,24.594131588935852,9,4.521367521367521,7,25.736221010190558,8
subject-03,1,9,0.71644401550293,boat,airplane,150,150_airplane_10_n02690373_9432.png,False,-0.5465030999989584,2.6533610820770264,0.0625,-3.7911402477749645,30.91329002380371,9,0.5626373626373624,4,39.26755399739266,3
subject-03,1,10,0.708317995071411,airplane,airplane,60,60_airplane_10_n02690373_10399.png,True,-0.5888932336042351,0.0354230031371116,1.0,-0.0038839805744664093,25.481777392327785,9,5.468589743589743,6,25.942283124194955,9
subject-03,1,11,0.704149007797241,clock,bear,120,120_bear_10_n02132136_3616.png,False,-0.6106411394875741,2.6527297496795654,1.0,-1.8146724552452178,31.07199764251709,5,9.75,3,22.50141277611741,10
subject-03,1,12,0.930129051208496,knife,knife,0,0_knife_10_n03041632_62810.png,True,0.5682045590998037,1.42641282081604,1.0,-0.3909328504164832,29.743244647979736,10,3.3289682539682537,9,28.81608728230388,9
subject-03,1,13,0.789925098419189,boat,bird,180,180_bird_10_n01534433_10801.png,False,-0.16318226681488932,2.576695442199707,0.2,-2.7520646902288712,30.71181631088257,10,0.6230158730158728,7,38.47350114036708,3
subject-03,1,14,0.875602006912231,keyboard,keyboard,0,0_keyboard_10_n04505470_9514.png,True,0.28375921315234837,0.001602109754458,1.0,-0.00012762168776517003,22.350005146610783,8,5.913636363636364,5,22.863448813201018,6
subject-03,1,15,0.805247068405151,boat,bottle,60,60_bottle_10_n03983396_2205.png,False,-0.0832537999503828,2.0832979679107666,0.125,-3.4757870117077103,30.318702459335327,10,0.6209706959706958,0,37.984821771424826,0
subject-03,1,16,0.687397956848145,bird,bird,90,90_bird_10_n01530575_35115.png,True,-0.6980245387474061,0.5543153882026672,1.0,-0.09815217038822094,27.194752395153046,9,3.545177045177045,8,31.315794917976458,9
subject-03,1,17,0.668954849243164,cat,cat,90,90_cat_10_n02123394_702.png,True,-0.7942347073114909,0.0896848142147064,1.0,-0.011005118470557289,25.693343248218298,9,4.706060606060606,7,26.58909312137909,9
subject-03,1,18,0.766785144805908,clock,dog,150,150_dog_10_n02109525_40708.png,False,-0.2838939649398627,2.473524570465088,0.5,-1.8710832308602219,30.769692420959473,10,2.1146825396825397,7,31.78670107442432,10
subject-03,1,19,0.626622915267944,bear,bear,0,0_bear_10_n02134418_2324.png,True,-1.015063137673176,0.0179741457104682,1.0,-0.0018061010349303495,23.580440806457773,9,9.333333333333334,4,14.97130952659052,9
subject-03,1,20,0.664427042007446,cat,cat,0,0_cat_10_n02123394_6517.png,True,-0.8178544305546855,0.0329488106071949,1.0,-0.003581253214036882,25.11575474217534,9,4.212179487179487,8,27.534198101697186,9
subject-03,1,21,0.914345979690552,car,car,0,0_car_10_n04285008_1867.png,True,0.4858707136479509,0.0525641292333602,1.0,-0.006077601028233535,24.051136940717697,9,4.9842032967032965,6,29.484697215909176,8
subject-03,1,22,0.870031833648682,cat,knife,30,30_knife_10_n03041632_3063.png,False,0.2547018915720918,2.1313018798828125,1.0,-0.8703972475588828,29.48524045944214,9,4.19563492063492,8,28.30199304397357,9
subject-03,1,23,1.29394793510437,boat,keyboard,150,150_keyboard_10_n04505470_1076.png,False,2.466099257548874,2.7043535709381104,1.0,-2.011061720974987,31.335877895355225,5,4.905769230769231,6,33.1815040595189,6
subject-03,1,24,0.97188401222229,oven,oven,150,150_oven_10_n04111531_15296.png,True,0.78602315689614,2.5845258235931396,0.0625,-4.100003074752679,30.937950611114502,10,0.3027930402930401,6,43.170732396868786,6
subject-03,1,25,1.04346299171448,elephant,knife,90,90_knife_10_n03041632_25498.png,False,1.159421492474297,2.3458309173583984,0.5,-2.3076914593260147,30.857892990112305,10,2.269047619047619,9,31.476103816544175,5
subject-03,1,26,0.701529979705811,truck,truck,60,60_truck_10_n03417042_18374.png,True,-0.6243035406158146,0.0729310289025306,1.0,-0.00886249128769716,26.81955573707819,9,3.901190476190476,8,26.1444886144115,9
subject-03,1,27,1.16704797744751,bird,boat,150,150_boat_10_n04273569_62.png,False,1.8041139469147622,2.617011308670044,1.0,-1.9940277021315185,30.68452477455139,5,5.17063492063492,7,28.7760024333179,0
subject-03,1,28,0.948935985565186,bear,bear,180,180_bear_10_n02132136_20883.png,True,0.6663126634055089,2.631306409835815,0.3333333333333333,-2.3337730034993345,30.98482918739319,4,7.726190476190475,3,23.515313150130602,10
subject-03,1,29,0.798708915710449,car,car,60,60_car_10_n02814533_38071.png,True,-0.11736067533862382,0.0317782647907733,1.0,-0.003486624845350372,25.38438694551587,9,3.408928571428571,8,33.66763852352633,8
subject-03,1,30,0.876748085021973,knife,cat,180,180_cat_10_n02123597_3944.png,False,0.28973783511170326,2.631657838821411,0.1666666666666666,-2.690501886934217,30.945577383041382,9,0.9884670884670882,4,35.403571718410255,4
subject-03,1,31,0.976285219192505,knife,knife,60,60_knife_10_n03041632_4714.png,True,0.8089824582004086,0.0103730726987123,1.0,-0.000983184946370567,25.392563462257385,9,6.652777777777778,5,21.746839640582607,9
subject-03,1,32,0.898185014724731,clock,car,150,150_car_10_n02814533_85659.png,False,0.40156555223903634,2.485367774963379,0.1428571428571428,-2.8616868336062806,30.85364317893982,10,0.1639652014652012,10,44.43546664089317,0
subject-03,1,33,0.632050037384033,boat,clock,180,180_clock_10_n03196217_4492.png,False,-0.9867520555719268,2.141557455062866,1.0,-1.2009565546503134,30.2103168964386,10,2.447619047619047,10,36.345772865113844,10
subject-03,1,34,0.639739036560059,boat,elephant,180,180_elephant_10_n02504013_698.png,False,-0.9466416835750304,2.667535305023194,0.0625,-3.6635545140868064,31.106095552444458,9,2.6839285714285714,1,34.05012989594926,0
subject-03,1,35,0.771675825119019,elephant,elephant,90,90_elephant_10_n02504013_3081.png,True,-0.25838128088490536,0.2372616678476333,1.0,-0.03511177292854101,28.19497813284397,10,5.091666666666666,9,26.279394684644632,9
subject-03,1,36,0.621587991714478,bird,bird,90,90_bird_10_n01601694_2723.png,True,-1.041328279869463,0.494157999753952,1.0,-0.08465697131079968,26.368811160326004,9,3.0527528027528024,8,33.58231470243513,9
subject-03,1,37,0.74352502822876,bear,bear,150,150_bear_10_n02133161_2340.png,True,-0.40523250422720497,2.596072196960449,1.0,-2.0316350994264023,30.800710439682007,4,8.25,10,23.409862648757738,10
subject-03,1,38,0.883117914199829,bicycle,keyboard,150,150_keyboard_10_n03085013_15162.png,False,0.3229666353796385,2.5614867210388184,0.25,-2.4914423913387864,30.814029455184937,10,2.1178321678321677,8,35.50545370104095,6
subject-03,1,39,0.654864072799683,airplane,airplane,90,90_airplane_10_n02690373_19118.png,True,-0.8677405397266316,0.0204814411699771,1.0,-0.002080636591860714,24.81638339534402,9,5.712276612276613,6,23.18755815244922,3
subject-03,1,40,0.802574872970581,boat,boat,90,90_boat_10_n03344393_3072.png,True,-0.09719355341832446,1.518726110458374,1.0,-0.43792288388535044,29.24491548538208,10,6.994047619047619,5,23.976715091794482,9
subject-03,1,41,0.924504995346069,airplane,truck,60,60_truck_10_n04467665_67115.png,False,0.5388661539824473,0.1912745535373687,1.0,-0.02805251255349576,27.883544713258743,10,3.2947802197802196,9,27.529686358908954,9
subject-03,1,42,1.03223991394043,bear,dog,150,150_dog_10_n02089973_2756.png,False,1.100875274148402,1.9616341590881348,0.1111111111111111,-3.2300229057937995,29.97324824333191,10,0.8031746031746028,2,35.004426079797575,0
subject-03,1,43,0.738069772720337,elephant,elephant,90,90_elephant_10_n02504458_3153.png,True,-0.4336903467593266,0.0784712433815002,1.0,-0.009438933385591297,24.780672408640385,9,8.0,1,19.765052655023027,0
subject-03,1,44,1.03589916229248,knife,bottle,120,120_bottle_10_n04557648_1136.png,False,1.1199640800215245,1.9874674081802368,0.5,-2.173570119997862,30.11286771297455,10,1.583272283272283,10,33.58221143967007,0
subject-03,1,45,0.799916982650757,keyboard,keyboard,30,30_keyboard_10_n04505470_6963.png,True,-0.11105868293836609,0.0237891878932714,1.0,-0.0025016937322726823,25.38593222759664,9,5.1314935064935066,6,24.92928054445036,6
subject-03,1,46,0.655588150024414,truck,truck,90,90_truck_10_n03417042_5228.png,True,-0.8639633242303684,0.8828528523445129,1.0,-0.21870169417641425,28.429504811763763,10,3.076190476190476,9,28.906675043007866,9
subject-03,1,47,0.545460939407349,clock,clock,60,60_clock_10_n04548280_5734.png,True,-1.4384520559503278,0.0673546195030212,1.0,-0.008252665413636952,25.713091731071472,9,4.915018315018315,6,28.866986484183972,9
subject-03,1,48,0.78703784942627,car,truck,120,120_truck_10_n03796401_28190.png,False,-0.17824386696627606,2.6269922256469727,0.0769230769230769,-3.303362651703902,30.95310068130493,9,1.0222985347985345,3,35.923472441401834,0
subject-03,1,49,0.842911958694458,bicycle,bicycle,60,60_bicycle_10_n02835271_4730.png,True,0.11322856740853778,0.0295742191374301,1.0,-0.003199923257814207,25.394753586500883,9,6.666666666666666,6,20.77094480471488,8
subject-03,1,50,1.23869204521179,bear,bear,60,60_bear_10_n02134084_21921.png,True,2.177851821455845,0.0365837402641773,1.0,-0.004223610937213986,24.717949140816927,9,10.25,3,15.802361953998124,9
subject-03,1,51,0.742652893066406,car,dog,180,180_dog_10_n02105162_9615.png,False,-0.40978207758425017,2.598932981491089,0.1666666666666666,-2.6949895234391916,30.918158292770386,4,1.1900793650793648,9,34.212178130721824,0
subject-03,1,52,0.764412879943848,clock,chair,120,120_chair_10_n02791124_4319.png,False,-0.29626910296680814,2.59794282913208,0.2,-2.701598500370608,31.14811062812805,9,1.411446886446886,0,35.80967527619619,6
subject-03,1,53,0.652318954467773,boat,oven,120,120_oven_10_n04111531_2922.png,False,-0.8810173837907234,2.6640467643737793,0.0666666666666666,-3.485854417843298,30.979942560195923,9,0.3371753246753245,6,41.89722136960509,6
subject-03,1,54,0.651999950408936,cat,cat,0,0_cat_10_n02123045_10887.png,True,-0.8826814978289155,0.1019999459385871,1.0,-0.012823978995413154,26.28883034735918,9,3.9689976689976687,7,31.065063261876094,9
subject-03,1,55,0.636057138442993,airplane,airplane,60,60_airplane_10_n02690373_243.png,True,-0.9658486440323362,0.0196662656962871,1.0,-0.0020025741109578033,25.30702076666057,9,5.632478632478632,6,24.75944446995351,8
subject-03,1,56,0.910104990005493,bird,dog,150,150_dog_10_n02110806_2269.png,False,0.46374720056017465,2.4230763912200928,0.3333333333333333,-2.3727306969984503,30.519977807998657,10,1.6912698412698408,9,33.40932684968516,0
subject-03,1,57,0.673888921737671,bicycle,bicycle,60,60_bicycle_10_n03792782_1477.png,True,-0.7684956639479023,0.0490324050188064,1.0,-0.005573996649181676,25.578015165403485,9,5.783333333333333,7,21.981984995970745,9
subject-03,1,58,1.16133499145508,airplane,car,180,180_car_10_n03100240_4619.png,False,1.7743116295879626,2.314495325088501,0.3333333333333333,-2.7010265858846507,30.444793939590454,9,0.3800366300366298,10,43.90436260089887,10
subject-03,1,59,0.687126874923706,airplane,elephant,180,180_elephant_10_n02504013_5021.png,False,-0.6994386625601361,2.361439943313598,0.0666666666666666,-4.339578422574129,30.702123880386353,10,2.6027777777777774,1,35.78851617748976,1
subject-03,1,60,0.907013893127441,clock,chair,120,120_chair_10_n04429376_16869.png,False,0.44762220915118944,2.6814706325531006,0.1666666666666666,-2.6043373745816525,31.21779727935791,9,1.3401154401154398,0,37.476228225699316,6
subject-03,1,61,0.976883172988892,knife,bottle,0,0_bottle_10_n03937543_3079.png,False,0.8121017392226803,0.1489971429109573,1.0,-0.021474839416438987,25.810257963836193,9,4.4869047619047615,7,26.348182351769033,9
subject-03,1,62,1.01073598861694,cat,elephant,180,180_elephant_10_n02504013_3029.png,False,0.9886980681983757,2.285675525665283,0.0909090909090909,-4.016260915985464,30.529736518859863,10,2.314393939393939,1,33.42799639987689,0
subject-03,1,63,0.788789033889771,airplane,truck,120,120_truck_10_n04467665_51397.png,False,-0.16910865201070466,2.693517684936523,0.25,-2.5107410792000597,31.13734197616577,5,1.3303571428571428,2,33.518300541271365,0
subject-03,1,64,0.752145051956177,bicycle,knife,120,120_knife_10_n03041632_36280.png,False,-0.3602653569544093,0.2444910109043121,1.0,-0.036642976057222804,27.297012239694595,9,5.684523809523809,5,23.51438650627181,9
subject-03,1,65,0.572016000747681,clock,clock,90,90_clock_10_n04548280_6022.png,True,-1.2999251339964077,0.0586990937590599,1.0,-0.006813919289192177,25.336144469678402,9,5.31025641025641,6,27.821192891258384,9
subject-03,1,66,0.875952005386353,bicycle,bicycle,120,120_bicycle_10_n02835271_19213.png,True,0.28558501241100226,2.6221117973327637,0.1428571428571428,-2.9146885623003977,31.045005798339844,10,2.628210678210678,0,29.835984682002753,1
subject-03,1,67,0.937669992446899,bird,bird,60,60_bird_10_n01560419_6863.png,True,0.6075425732359173,0.5061103105545044,1.0,-0.08668005173337005,27.025439739227295,9,4.148153235653235,7,31.57756983516581,9
subject-03,1,68,0.823467016220093,bird,bird,0,0_bird_10_n01817953_2257.png,True,0.011792235026443306,0.3922770023345947,1.0,-0.06325404776144988,25.663867071270943,9,3.3064865689865686,8,32.012460190402756,9
subject-03,1,69,0.745253086090088,bicycle,bird,90,90_bird_10_n01582220_261.png,False,-0.39621793132074107,2.3984289169311523,0.0666666666666666,-4.2481710211326815,30.84604263305664,10,0.15549450549450508,4,42.750732147288915,1
subject-03,1,70,0.877120018005371,clock,oven,0,0_oven_10_n04111531_22886.png,False,0.291678057757132,1.5434561967849731,0.5,-1.0036679098611543,29.348663687705994,10,1.3839646464646465,9,35.035839423051556,9
subject-03,1,71,0.924815893173218,bicycle,bicycle,0,0_bicycle_10_n02835271_4963.png,True,0.5404879811168363,0.0544623285531997,1.0,-0.006295188606592466,24.5606227517128,9,8.75,6,17.61665382229314,8
subject-03,1,72,0.806611776351929,dog,dog,60,60_dog_10_n02090721_1105.png,True,-0.07613467532060524,0.8741785287857056,1.0,-0.17647155403028456,26.680388689041138,9,3.5484126984126982,9,26.642716728279865,9
subject-03,1,73,0.750670909881592,truck,truck,30,30_truck_10_n04467665_6523.png,True,-0.3679553547856276,0.1063546165823936,1.0,-0.013669208956846016,26.15757914632559,9,3.8952380952380947,8,25.859547422290998,9
subject-03,1,74,1.14062905311584,car,car,120,120_car_10_n04285008_13247.png,True,1.666297196198343,2.5261807441711426,0.1111111111111111,-2.992222273415798,30.607975244522095,8,0.08862942612942579,10,46.90072165428453,0
subject-03,1,75,0.692528009414673,cat,cat,90,90_cat_10_n02123597_13823.png,True,-0.671263147297574,0.270398199558258,1.0,-0.04066631185669599,27.154985010623932,9,4.484523809523809,7,27.737738983142762,9
subject-03,1,76,0.595971822738647,keyboard,keyboard,0,0_keyboard_10_n04505470_1342.png,True,-1.174957383376139,0.0170677471905946,1.0,-0.0016974900885179103,23.330407427623868,9,5.940909090909091,5,21.796931191097002,5
subject-03,1,77,0.622269868850708,car,car,120,120_car_10_n04285008_3884.png,True,-1.0377712050195083,2.4426002502441406,0.1111111111111111,-3.1162077370474277,30.69095802307129,10,0.14366605616605588,10,44.78292212277795,0
subject-03,1,78,0.767457962036133,elephant,elephant,60,60_elephant_10_n02504458_6715.png,True,-0.28038415192357413,0.0377811454236507,1.0,-0.00415980549184638,25.266019459813833,9,7.791666666666666,1,21.068462215680253,9
subject-03,1,79,0.707731008529663,bear,bird,150,150_bird_10_n01833805_30804.png,False,-0.5919553029331142,2.5098297595977783,0.25,-2.687339180476698,30.824486017227173,10,0.9959706959706958,7,37.909962604954735,6
subject-03,1,80,0.559151172637939,cat,cat,30,30_cat_10_n02123045_11826.png,True,-1.3670356940764223,0.0828981548547744,1.0,-0.010241199710479753,24.583556704223156,9,5.281818181818181,6,23.910508812718774,5
subject-03,1,81,0.88870096206665,airplane,airplane,90,90_airplane_10_n02690373_1854.png,True,0.3520911185130085,2.5325722694396973,0.5,-2.052530980883617,30.738208532333374,9,1.5098346098346096,9,35.62771666113268,3
subject-03,1,82,0.814389944076538,truck,truck,90,90_truck_10_n03796401_6772.png,True,-0.03555914738179729,2.1323800086975098,1.0,-0.9348458122731691,30.46577215194702,10,2.4670995670995666,10,30.81105435052134,10
subject-03,1,83,0.616265058517456,boat,bear,150,150_bear_10_n02134084_3860.png,False,-1.0690958508835002,2.5472869873046875,0.25,-2.4569157801477113,30.968847036361694,5,7.583333333333333,3,24.327304728138206,5
subject-03,1,84,0.710241079330444,bird,bird,0,0_bird_10_n02011460_5925.png,True,-0.5788612875413854,0.4710332155227661,1.0,-0.07997115982414583,26.010396987199783,9,3.2738095238095237,8,32.742908805699216,9
subject-03,1,85,0.815810203552246,bicycle,bicycle,90,90_bicycle_10_n02835271_22739.png,True,-0.028150233087673553,0.1434469223022461,1.0,-0.019223826308860513,26.259964048862457,9,6.866666666666666,6,21.027117231849427,9
subject-03,1,86,0.821799993515015,airplane,boat,120,120_boat_10_n03662601_7885.png,False,0.0030960576310245184,0.8138002157211304,1.0,-0.1693858797731343,28.18510067462921,10,5.837301587301587,7,23.83464219856136,9
subject-03,1,87,0.92209005355835,cat,cat,90,90_cat_10_n02123045_12691.png,True,0.5262683878442644,0.0755669027566909,1.0,-0.009085798358067936,25.147753570228815,9,4.576165501165502,7,26.521612465635634,9
subject-03,1,88,0.857363939285278,bottle,knife,60,60_knife_10_n03041632_105581.png,False,0.18861865450818424,1.8005428314208984,1.0,-1.0366534133209606,30.03834080696106,10,3.3777777777777778,10,28.88752858136428,10
subject-03,1,89,0.849536895751953,knife,car,120,120_car_10_n03100240_14794.png,False,0.14778816141404605,1.3023512363433838,0.1111111111111111,-4.717896941270972,29.332205295562744,10,0.2581349206349204,8,46.548329582393166,7
subject-03,1,90,0.628738880157471,truck,truck,60,60_truck_10_n03796401_8037.png,True,-1.0040250120461207,0.1505350470542907,1.0,-0.02043127954181276,26.328302204608917,9,4.026190476190476,8,24.585556743377985,9
subject-03,1,91,0.754711151123047,knife,knife,90,90_knife_10_n03041632_24100.png,True,-0.3468790644334004,0.8786322474479675,1.0,-0.1907122300834191,27.577030956745148,9,5.847222222222222,5,23.529569089521786,5
subject-03,1,92,0.612522840499878,boat,boat,60,60_boat_10_n03344393_3499.png,True,-1.0886174756544524,0.4417596161365509,1.0,-0.0786600167087654,26.633185535669327,9,6.701190476190476,5,22.580911272922794,9
subject-03,1,93,0.680482864379883,clock,clock,180,180_clock_10_n02708093_960.png,True,-0.7340977551628454,2.6541872024536133,1.0,-1.9427129612674514,31.294891119003296,9,4.876190476190477,6,35.60338057973488,6
subject-03,1,94,1.17817711830139,bear,boat,0,0_boat_10_n02951358_12713.png,False,1.8621701346494184,0.1632034033536911,1.0,-0.02408048444349348,25.7960252314806,9,5.208333333333333,8,23.43085107598053,9
subject-03,1,95,0.965921878814697,clock,chair,60,60_chair_10_n04429376_6141.png,False,0.7549211391433854,0.4884211421012878,1.0,-0.09419092453589355,28.537181556224823,10,3.8995421245421245,8,30.153503957922222,6
subject-03,1,96,0.750214099884033,dog,dog,30,30_dog_10_n02110958_1335.png,True,-0.37033834618860806,1.1564794778823853,1.0,-0.3222216877805167,29.408865809440613,10,3.5706349206349204,9,29.30778891817776,10
subject-03,1,97,1.39957499504089,truck,truck,90,90_truck_10_n03417042_12711.png,True,3.017112538991567,0.1651755571365356,1.0,-0.02289411098752825,26.710939407348633,9,3.801190476190476,8,26.435948739702166,9
subject-03,1,98,0.773399114608765,elephant,elephant,30,30_elephant_10_n02504458_8644.png,True,-0.24939158262774186,0.0683367922902107,1.0,-0.00810489393081824,24.93890807032585,9,7.809523809523809,1,20.855688881711522,9
subject-03,1,99,1.05328702926636,cat,elephant,120,120_elephant_10_n02504013_1784.png,False,1.2106694886954443,0.9506716728210448,1.0,-0.2507735176939442,29.036251068115234,10,4.578210678210678,1,27.982086529078128,9
subject-03,1,100,0.66100811958313,clock,bird,120,120_bird_10_n02009229_5172.png,False,-0.8356895541030691,2.473015308380127,0.3333333333333333,-2.1873548287178544,30.779160737991333,10,0.8321178821178818,10,38.283162092652844,4
subject-03,1,101,1.34080791473389,bear,clock,180,180_clock_10_n02708093_1352.png,False,2.7105486548862348,2.4113879203796387,1.0,-1.3001685846064015,30.767178535461426,9,4.88015873015873,6,33.843976526663624,6
subject-03,1,102,0.874842882156372,cat,dog,180,180_dog_10_n02108000_5623.png,False,0.27979916898372664,2.370788812637329,0.3333333333333333,-2.541465939472392,30.632907152175903,9,1.1417027417027412,10,34.48584114252318,0
subject-03,1,103,0.550506114959717,boat,chair,150,150_chair_10_n04429376_6242.png,False,-1.4121334332580415,2.662306070327759,0.3333333333333333,-2.384522977901494,31.051925659179688,9,1.5400183150183147,9,34.92393948413334,6
subject-03,1,104,0.784378051757812,bear,bear,60,60_bear_10_n02134084_9253.png,True,-0.19211894634604365,0.9832196831703186,0.5,-1.6003421466834258,27.89139610528946,9,9.083333333333332,3,21.033950103978015,9
subject-03,1,105,0.538234949111938,boat,elephant,180,180_elephant_10_n02504458_4207.png,False,-1.476147099500156,2.606898307800293,0.0714285714285714,-3.664056237376923,30.858846426010132,4,2.9976190476190476,1,32.06567671794002,0
subject-03,1,106,1.11595797538757,truck,car,90,90_car_10_n04285008_17056.png,False,1.5375982481830175,1.6930932998657229,1.0,-0.5620058974030043,29.865148782730103,10,2.0928571428571425,9,41.44755685551085,10
subject-03,1,107,0.635994911193848,boat,boat,60,60_boat_10_n04612504_14699.png,True,-0.9661732582057041,1.6394894123077393,1.0,-0.4779652315336651,29.31235384941101,10,6.686111111111111,4,24.194113979749357,10
subject-03,1,108,0.72967004776001,car,keyboard,150,150_keyboard_10_n03085013_4999.png,False,-0.4775082852344433,2.684612989425659,0.5,-2.257543160769434,30.914979934692383,5,3.392832167832168,6,33.95724899686061,6
subject-03,1,109,0.815478086471558,keyboard,keyboard,0,0_keyboard_10_n03085013_2166.png,True,-0.029882752411444002,0.4040474891662597,1.0,-0.06522292124049137,26.1174498796463,9,5.907575757575758,5,24.346818537408815,9
subject-03,1,110,0.595286130905151,boat,boat,90,90_boat_10_n04273569_7733.png,True,-1.1785343579455358,2.4009621143341064,1.0,-1.1673291819030316,29.886463165283203,9,6.569444444444445,3,24.240466986035095,9
subject-03,1,111,0.9291090965271,cat,dog,120,120_dog_10_n02100583_13688.png,False,0.5628838716144513,2.521544933319092,0.0909090909090909,-3.547132751026426,30.89740490913391,10,0.5288822288822287,2,38.178467819943634,0
subject-03,1,112,0.732649803161621,cat,dog,0,0_dog_10_n02097047_705.png,False,-0.46196411688662586,1.063136100769043,1.0,-0.23414192021449468,27.750808238983154,9,4.213492063492064,8,27.483799706095226,9
subject-03,1,113,0.880681991577148,knife,knife,0,0_knife_10_n03041632_22051.png,True,0.31025942078452806,1.163571834564209,0.5,-1.1760426393317502,28.840126991271973,10,2.2896825396825395,9,29.28405510565956,5
subject-03,1,114,0.738384008407593,bear,bottle,150,150_bottle_10_n03937543_964.png,False,-0.43205110737042973,2.67305326461792,0.125,-2.8966845660916505,30.92161726951599,4,0.4919774669774669,0,37.52290240148551,0
subject-03,1,115,0.824268102645874,bottle,bottle,60,60_bottle_10_n04579145_4385.png,True,0.015971176108909118,0.0598933510482311,1.0,-0.006962040301208722,24.750398663803935,9,4.540811965811965,7,25.633403636824227,0
subject-03,1,116,0.658054828643799,boat,cat,120,120_cat_10_n02123159_1108.png,False,-0.8510956681472704,2.6119303703308105,0.125,-2.8412311755615973,30.85244345664978,5,0.798063048063048,5,35.49965862434613,4
subject-03,1,117,0.720178842544556,bicycle,bear,150,150_bear_10_n02134084_17572.png,False,-0.5270200309344212,2.555227518081665,0.1428571428571428,-2.7846153587596643,30.814292669296265,9,6.902380952380952,2,25.225968623736847,5
subject-03,1,118,1.07170009613037,car,car,90,90_car_10_n02814533_52627.png,True,1.3067229469689141,0.9725415110588074,0.5,-0.8107482374432291,27.410780251026154,9,2.505753968253968,8,37.125282213178,9
subject-03,1,119,0.951822996139526,bear,truck,150,150_truck_10_n03417042_6250.png,False,0.6813730198244311,2.715359926223755,0.0909090909090909,-2.9141915308099935,31.07948112487793,5,0.9065226440226438,3,35.628833675661646,0
subject-03,1,120,0.939450979232788,bicycle,bicycle,0,0_bicycle_10_n03792782_23912.png,True,0.616833254749618,0.021289937198162,1.0,-0.002193590111786492,25.269502777955495,9,7.5,6,19.54594532131186,8
subject-03,1,121,0.835327863693237,clock,dog,180,180_dog_10_n02099601_6318.png,False,0.07366543769625199,2.4996469020843506,0.125,-2.90526830163892,30.59529733657837,10,0.9234126984126982,4,34.476445285597784,0
subject-03,1,122,0.924787044525146,airplane,cat,150,150_cat_10_n02125311_5570.png,False,0.5403374894885653,2.406435966491699,0.25,-2.5937348696793823,30.580243349075317,10,1.7068181818181813,4,32.54045187656266,4
subject-03,1,123,0.884646892547607,airplane,airplane,90,90_airplane_10_n02690373_21731.png,True,0.33094269167780954,0.1546162664890289,1.0,-0.020844251742398595,25.63123992085457,9,6.382478632478632,5,24.311588553904922,9
subject-03,1,124,0.66476583480835,boat,boat,120,120_boat_10_n04612504_2024.png,True,-0.8160870867218882,2.4340152740478516,0.0833333333333333,-3.3108169588433127,30.308987379074097,9,1.762301587301587,4,32.153490718192955,2
subject-03,1,125,0.834262847900391,bicycle,elephant,180,180_elephant_10_n02504013_17589.png,False,0.06810968477501143,2.57620620727539,0.0666666666666666,-3.9843476754281673,31.110299110412598,10,2.034523809523809,1,35.186488299997386,0
subject-03,1,126,0.810659170150757,truck,airplane,150,150_airplane_10_n02690373_16250.png,False,-0.05502107299442803,2.4164669513702393,0.1428571428571428,-3.0005800876981437,30.81544518470764,10,0.7233266733266728,2,36.247099582462404,2
subject-03,1,127,0.730080127716064,airplane,airplane,60,60_airplane_10_n02690373_1706.png,True,-0.47536906539461243,0.1372421830892563,1.0,-0.018403456531621235,25.98793439567089,9,4.5621794871794865,8,26.013583185281153,8
subject-03,1,128,0.696324110031128,chair,chair,30,30_chair_10_n04429376_21089.png,True,-0.6514604389895267,0.0473383106291294,1.0,-0.0058388369543645804,26.662732545286417,9,4.65261544011544,0,29.641096416322576,6
subject-03,1,129,0.507446050643921,boat,boat,60,60_boat_10_n04273569_4978.png,True,-1.636760222567897,0.1993318498134613,1.0,-0.02810130884523248,25.285116583108902,9,6.184523809523809,6,20.788229784192094,9
subject-03,1,130,1.09736013412476,car,truck,120,120_truck_10_n03796401_2007.png,False,1.440580897249177,2.6643404960632324,0.1111111111111111,-2.8193842287505233,31.068492889404297,9,0.9430708180708178,0,35.26937055978277,0
subject-03,1,131,0.609210014343262,boat,truck,150,150_truck_10_n04467665_48953.png,False,-1.1058991382559034,2.684567928314209,0.0909090909090909,-2.9539090885739725,31.22623634338379,4,0.8289432789432786,2,35.79110295645173,0
subject-03,1,132,0.614976167678833,truck,boat,150,150_boat_10_n02951358_30995.png,False,-1.075819468589398,2.41994309425354,1.0,-1.2964592309871699,30.35597538948059,10,5.091666666666667,7,26.83991678033371,10
subject-03,1,133,0.906996011734009,bicycle,elephant,150,150_elephant_10_n02504013_6776.png,False,0.44752892921631643,2.292604923248291,0.0909090909090909,-4.1136258630218725,30.51372528076172,10,3.606060606060606,1,33.113219250422745,0
subject-03,1,134,0.700501918792725,elephant,elephant,120,120_elephant_10_n02504013_2340.png,True,-0.6296665150049806,1.6878750324249268,1.0,-0.5986547639684884,29.801764011383057,10,4.891666666666667,1,26.973537604658564,10
subject-03,1,135,1.12851595878601,car,chair,90,90_chair_10_n02791124_1941.png,False,1.6031081245805612,0.2860487103462219,1.0,-0.043477262701101214,27.838864386081696,10,3.430927405927406,9,29.423391279314394,9
subject-03,1,136,0.580421924591064,cat,cat,60,60_cat_10_n02123045_7483.png,True,-1.2560748584772041,0.0899863168597221,1.0,-0.011074424729398225,25.572502054274082,9,4.4754329004329,7,26.686668024756976,9
subject-03,1,137,0.958089828491211,bear,bottle,120,120_bottle_10_n03983396_8143.png,False,0.7140645276674824,0.1688461005687713,1.0,-0.023047926937716057,27.317292541265488,9,3.3424353424353423,8,29.507537321112018,9
subject-03,1,138,0.746088981628418,boat,boat,0,0_boat_10_n03662601_23248.png,True,-0.39185740529838176,0.0552631542086601,1.0,-0.0063737068845512185,23.97077540308237,9,6.333333333333333,6,19.571793437169294,0
subject-03,1,139,0.952019929885864,bicycle,bicycle,30,30_bicycle_10_n02835271_2505.png,True,0.6824003428405382,0.0243270341306924,1.0,-0.002537247961005266,24.360542790964246,9,7.75,6,17.78358782573089,8
subject-03,1,140,0.957544088363647,airplane,keyboard,180,180_keyboard_10_n03085013_23014.png,False,0.7112176240550488,2.5611391067504883,0.5,-2.102390479667913,30.928767442703247,5,2.9266705516705516,7,33.859710547199164,6
subject-03,1,141,1.12531590461731,bird,bird,0,0_bird_10_n02027492_15639.png,True,1.5864147474350694,0.5085462331771851,1.0,-0.09614730778527199,27.64290702342987,10,3.0785714285714283,8,35.39252620322973,9
subject-03,1,142,0.567091941833496,clock,clock,0,0_clock_10_n02708093_340.png,True,-1.3256119405964668,0.0365360639989376,1.0,-0.004067217024981617,24.459518861025572,9,3.96025641025641,8,28.936746660605895,8
subject-03,1,143,1.09913492202759,bird,clock,30,30_clock_10_n03196217_6348.png,False,1.4498392417187738,0.1918440759181976,1.0,-0.026948550625135684,28.63794383406639,10,2.294816294816295,9,35.25909926937048,10
subject-03,1,144,0.674916982650757,boat,car,150,150_car_10_n04285008_12696.png,False,-0.7631326895587363,2.6890201568603516,0.0909090909090909,-3.0493060172954727,31.061904430389404,5,0.07735597735597698,10,46.06149053433714,1
subject-03,1,145,0.978721141815186,car,car,0,0_car_10_n02814533_95144.png,True,0.821689672795519,0.0348159745335578,1.0,-0.004109829398065137,25.43218357115984,9,4.217261904761905,7,31.95687109412766,9
subject-03,1,146,1.02226614952087,knife,knife,90,90_knife_10_n03041632_12242.png,True,1.0488462139392012,2.0737736225128174,1.0,-0.8337382124960785,30.369033813476562,10,5.541666666666666,7,26.194324874168917,5
subject-03,1,147,0.802233934402466,boat,boat,0,0_boat_10_n02951358_15218.png,True,-0.09897209084330182,0.3158833682537079,1.0,-0.049653516639861464,25.493487030267715,9,6.625,5,20.925585596146373,9
subject-03,1,148,1.06798481941223,truck,truck,30,30_truck_10_n04467665_20622.png,True,1.2873418639665062,0.073797583580017,1.0,-0.008884921983088557,25.563807589933276,9,5.026190476190476,7,23.366987012282618,9
subject-03,1,149,0.712073087692261,bottle,bottle,0,0_bottle_10_n03937543_4850.png,True,-0.5693044472801694,0.0804785266518592,1.0,-0.009747773063184209,25.31243587192148,9,5.285714285714285,6,23.916721409185737,0
subject-03,1,150,0.749779939651489,knife,knife,30,30_knife_10_n03041632_3717.png,True,-0.37260318300740936,0.0093037104234099,1.0,-0.0008700697728694107,22.338742059160722,8,6.833333333333333,5,17.198576428147295,5
subject-03,1,151,0.5816969871521,boat,knife,150,150_knife_10_n03041632_14132.png,False,-1.2494233772542729,2.6574366092681885,0.5,-2.234879019287378,31.042351484298706,4,3.333333333333333,9,30.55942188123187,5
subject-03,1,152,0.70133900642395,bottle,bottle,90,90_bottle_10_n02823428_4386.png,True,-0.625299770320299,2.673168182373047,1.0,-1.9351803286789395,30.981769800186157,4,1.434077034077034,10,37.37173360449501,0
subject-03,1,153,0.577542781829834,cat,cat,60,60_cat_10_n02123045_568.png,True,-1.2710941717247826,0.0608736872673034,1.0,-0.007132154461185574,24.75043076276779,9,3.9773559773559772,8,28.667498245640495,9
subject-03,1,154,0.688911914825439,boat,boat,60,60_boat_10_n02951358_1911.png,True,-0.6901268375945342,0.0754341334104538,1.0,-0.009347599629299526,25.894506081938744,9,6.174242424242424,6,22.496102411353903,9
subject-03,1,155,0.88057017326355,car,car,30,30_car_10_n03100240_12777.png,True,0.3096761102584372,0.1113395765423774,1.0,-0.016390582755859192,26.05671764165163,9,3.9672619047619047,7,33.8809912719615,9
subject-03,1,156,0.98275899887085,airplane,airplane,0,0_airplane_10_n02690373_1952.png,True,0.8427535258230965,0.0126078594475984,1.0,-0.0012167342790896263,24.058499108068645,9,7.680891330891331,3,20.647445870028935,8
subject-03,1,157,0.840413808822632,airplane,airplane,30,30_airplane_10_n02690373_3639.png,True,0.1001967386400595,0.0210319962352514,1.0,-0.0021479532033231033,24.453028758987784,9,6.91978021978022,3,22.801776702133314,8
subject-03,1,158,0.67206597328186,boat,truck,180,180_truck_10_n04467665_670.png,False,-0.778005242375447,2.6404337882995605,0.0909090909090909,-3.1037929222422926,31.255029439926147,5,0.8589035964035961,2,35.75299645549211,0
subject-03,1,159,0.997977018356323,clock,car,150,150_car_10_n04285008_13076.png,False,0.9221397253328503,1.7775176763534546,0.1,-4.059248230494902,29.75477707386017,10,0.11068931068931039,10,46.86906705354765,0
subject-03,1,160,0.661776065826416,car,car,60,60_car_10_n03100240_17349.png,True,-0.8316834918332404,0.0876838341355323,1.0,-0.012218792705019731,26.33850137144327,9,3.9386904761904757,7,34.1200842476561,9
subject-03,1,161,0.783493041992188,oven,oven,0,0_oven_10_n04111531_2342.png,True,-0.19673568125619184,0.0580742917954921,1.0,-0.006754689028716618,22.744114127010107,8,4.635714285714285,7,24.7894085374699,6
subject-03,1,162,0.721204042434692,oven,oven,60,60_oven_10_n04111531_21980.png,True,-0.5216719813348389,0.0769555047154426,1.0,-0.01075631844432758,27.874432511627674,10,4.158134920634921,7,30.868253120233746,6
subject-03,1,163,0.732071161270142,truck,truck,30,30_truck_10_n03417042_10401.png,True,-0.46498265557922636,0.063024878501892,1.0,-0.007387079740820933,25.304439388215542,9,4.359523809523809,8,23.558623730544635,9
subject-03,1,164,0.859203100204468,bicycle,bicycle,120,120_bicycle_10_n03792782_11272.png,True,0.1982128067433509,2.63564133644104,0.0769230769230769,-3.1622278818528207,31.046854972839355,5,1.6396575646575644,3,31.690255406348406,6
subject-03,1,165,0.650737047195435,chair,chair,60,60_chair_10_n04429376_10449.png,True,-0.8892695486961261,0.0831146985292434,1.0,-0.01026016862473561,26.36651660501957,9,4.676129426129426,7,26.530911819140602,6
subject-03,1,166,0.58244800567627,cat,chair,150,150_chair_10_n04099969_3768.png,False,-1.24550561998946,2.69761323928833,1.0,-2.256507951903951,31.019320726394653,5,1.8839285714285712,10,36.650531986680114,6
subject-03,1,167,0.546220064163208,truck,truck,30,30_truck_10_n04467665_23914.png,True,-1.4344920117817062,0.1262716650962829,1.0,-0.016723093440911687,25.53294864296913,9,3.9345238095238093,8,25.293793002386224,9
subject-03,1,168,0.508028984069824,boat,airplane,180,180_airplane_10_n02690373_9959.png,False,-1.633719296690925,2.719034194946289,0.0769230769230769,-3.2787464519256377,31.327099323272705,5,0.4995171495171491,3,38.43257972313236,3
subject-03,1,169,0.755845069885254,bicycle,keyboard,180,180_keyboard_10_n04505470_5062.png,False,-0.3409638728297656,2.699368476867676,0.5,-2.335651144503869,31.198697805404663,3,2.9254079254079253,8,33.78463559328092,6
subject-03,1,170,0.781682014465332,airplane,knife,150,150_knife_10_n03041632_19614.png,False,-0.20618307306048614,2.6427001953125,0.25,-2.5775121627332727,31.076430559158325,5,1.863131313131313,5,32.455853372701505,5
subject-03,1,171,0.915343999862671,clock,truck,90,90_truck_10_n03796401_7104.png,False,0.49107697774652376,2.3159942626953125,0.1666666666666666,-2.977532238892244,30.657086610794067,10,1.1820818070818067,0,34.01757501986346,0
subject-03,1,172,0.695436954498291,airplane,airplane,90,90_airplane_10_n02690373_19133.png,True,-0.6560883674918664,0.0594496056437492,1.0,-0.007159949327271488,26.16225128620863,9,4.878846153846154,7,26.862938063797557,9
subject-03,1,173,0.725197076797485,chair,chair,30,30_chair_10_n03376595_10332.png,True,-0.5008419500106851,0.18406742811203,1.0,-0.02556662566748652,25.19592936336994,9,4.658008658008658,7,25.310308433404344,8
subject-03,1,174,0.590970039367676,cat,cat,0,0_cat_10_n02123045_12297.png,True,-1.2010496467597889,0.1982113271951675,1.0,-0.028537884122740637,25.594128131866455,9,4.420512820512821,7,26.854331679388846,9
subject-03,1,175,0.762883901596069,boat,chair,30,30_chair_10_n04099969_8401.png,False,-0.3042451592649844,0.0836213305592536,1.0,-0.010594863537669606,26.694808550179005,9,4.59047619047619,7,28.567616151144286,9
subject-03,1,176,0.816693782806396,bicycle,boat,150,150_boat_10_n04273569_1576.png,False,-0.023540960572311424,2.5666775703430176,0.1428571428571428,-2.978078396484541,30.975114822387695,5,2.169480519480519,2,31.105715885092273,0
subject-03,1,177,0.642365217208862,bicycle,boat,60,60_boat_10_n02951358_13017.png,False,-0.93294197047284,1.33217453956604,0.2,-3.698721577099084,29.2611026763916,10,2.665909090909091,2,31.078164350479753,0
subject-03,1,178,0.696435928344727,keyboard,keyboard,60,60_keyboard_10_n03085013_17795.png,True,-0.6508771284634305,0.4902583360671997,1.0,-0.09537768434291309,28.414565682411194,10,4.971212121212121,6,29.25705749267153,10
subject-03,1,179,0.89207911491394,boat,car,180,180_car_10_n03100240_18276.png,False,0.3697135638098759,2.021200180053711,0.1428571428571428,-3.459774052824494,29.837871313095093,9,0.21412337662337627,10,45.143431701431176,1
subject-03,1,180,0.769727230072021,keyboard,keyboard,0,0_keyboard_10_n04505470_1117.png,True,-0.2685463063215179,0.0995309948921203,1.0,-0.012710542804491859,25.6969151198864,9,5.433838383838384,6,24.577825984468742,9
subject-03,1,181,0.69179105758667,clock,cat,150,150_cat_10_n02123597_3280.png,False,-0.6751075243469505,2.553226947784424,0.25,-2.498916381305672,30.735371589660645,10,2.4901515151515152,9,31.87840467338442,4
subject-03,1,182,0.941514015197754,bear,bottle,150,150_bottle_10_n02823428_3711.png,False,0.6275952717694366,2.673579692840576,0.0833333333333333,-3.2701357223898406,31.069392681121826,5,0.5293761793761792,0,36.80580983291189,0
subject-03,1,183,0.805294036865234,keyboard,keyboard,90,90_keyboard_10_n04505470_986.png,True,-0.08300878465477388,0.134243831038475,1.0,-0.01859010181335263,28.281476601958275,10,4.233741258741258,6,31.632709401800696,10
subject-03,1,184,0.725187063217163,clock,clock,0,0_clock_10_n04548280_4426.png,True,-0.5008941867742148,0.0373360067605972,1.0,-0.004146637895457662,25.482171773910522,9,5.332850482850483,6,27.09597693593862,9
subject-03,1,185,0.639214038848877,clock,clock,120,120_clock_10_n02708093_4061.png,True,-0.9493803824630067,1.8844468593597412,1.0,-0.607805580550088,30.035523176193237,10,4.871067821067821,6,33.48778424591716,10
subject-03,1,186,0.636669158935547,bear,dog,60,60_dog_10_n02104365_1262.png,False,-0.9626559827946288,2.018881559371948,0.125,-3.4525597461013944,30.162139415740967,10,0.8571428571428568,6,36.314144102302734,2
subject-03,1,187,0.692384958267212,boat,keyboard,120,120_keyboard_10_n03085013_7752.png,False,-0.672009386776586,2.529430866241455,0.3333333333333333,-2.4304278678581817,30.835370302200317,10,1.2060606060606058,6,35.55813581268002,6
subject-03,1,188,0.770256996154785,car,cat,150,150_cat_10_n02123394_270.png,False,-0.26578273278424186,2.2778377532958984,0.125,-3.1339394273612413,30.418036460876465,10,0.718265068265068,4,36.344016162965325,4
subject-03,1,189,1.02855706214905,airplane,airplane,60,60_airplane_10_n02690373_4728.png,True,1.0816633387612495,0.0179640240967273,1.0,-0.0018013837669258433,24.73407583590597,9,6.351165501165501,4,23.262867314560157,8
subject-03,1,190,0.70213794708252,boat,boat,150,150_boat_10_n02951358_16728.png,True,-0.6211320228300138,2.6356024742126465,0.25,-2.4477128072751517,30.9771785736084,9,2.8845238095238095,7,29.53562900177226,0
subject-03,1,191,0.685857057571411,elephant,elephant,0,0_elephant_10_n02504013_3087.png,True,-0.7060627816688329,0.1563805043697357,1.0,-0.03202222490256218,24.698738992214203,9,6.366666666666667,1,20.9222303815953,0
subject-03,1,192,0.751688003540039,bicycle,chair,60,60_chair_10_n02791124_5898.png,False,-0.36264959208985426,1.3245253562927246,1.0,-0.36190932214130506,29.544846057891846,10,4.69563492063492,7,29.951330660623956,6
subject-03,1,193,0.575314044952393,car,car,60,60_car_10_n04285008_6410.png,True,-1.2827205828077866,0.0793291628360748,1.0,-0.009767755844287341,26.148781061172485,9,3.890613553113553,7,34.36406912690039,9
subject-03,1,194,0.591515064239502,boat,car,180,180_car_10_n04285008_15213.png,False,-1.1982064743447545,2.4417049884796143,0.1111111111111111,-3.122209633290937,30.834399461746216,10,0.0947191697191695,10,46.0555747226685,0
subject-03,1,195,0.737003087997437,keyboard,keyboard,0,0_keyboard_10_n03085013_2189.png,True,-0.43925480580782406,0.1210614144802093,1.0,-0.015569445506766415,25.55684606730938,9,4.948917748917749,6,27.50226536404166,9
subject-03,1,196,0.648952007293701,clock,clock,30,30_clock_10_n03196217_4537.png,True,-0.8985813736617337,0.0415088087320327,1.0,-0.004633355658937136,25.081745688803494,9,3.9178571428571427,8,29.143610972644037,9
subject-03,1,197,0.764724969863892,boat,airplane,180,180_airplane_10_n02690373_8382.png,False,-0.2946410571700965,2.685328483581543,0.0909090909090909,-2.8548705644308128,30.907004833221436,4,0.7468975468975468,3,35.27866087742178,2
subject-03,1,198,0.6943199634552,bear,clock,180,180_clock_10_n02708093_2482.png,False,-0.6619152540904859,2.6682214736938477,1.0,-2.2008453937845673,31.277947902679443,5,3.4810897435897434,8,36.5591020099166,6
subject-03,1,199,0.978102922439575,bicycle,bottle,150,150_bottle_10_n04557648_8320.png,False,0.8184646745137187,2.69095230102539,0.0769230769230769,-3.3060727778177292,31.080055952072144,4,0.44475524475524464,0,37.6521043069633,0
subject-03,1,200,1.01810908317566,oven,clock,150,150_clock_10_n04548280_8314.png,False,1.027160494679139,2.640350818634033,1.0,-1.732888536388077,31.030545949935913,4,2.811706349206349,9,37.74004262730603,6
subject-03,1,201,0.621818065643311,boat,bicycle,180,180_bicycle_10_n02835271_7350.png,False,-1.0401280780407187,2.652714252471924,0.0714285714285714,-3.7005116979052928,30.931281566619873,9,1.5087051837051833,0,34.00500141247729,6
subject-03,1,202,0.761751890182495,keyboard,keyboard,60,60_keyboard_10_n03085013_21490.png,True,-0.3101504010088979,0.0241016931831836,1.0,-0.002523085873039999,25.05628575757146,9,5.078282828282829,6,25.18780322297653,6
subject-03,1,203,0.777791976928711,bear,bear,90,90_bear_10_n02133161_4043.png,True,-0.22647581195975078,1.1556572914123535,1.0,-0.5020763585998302,29.208719730377197,10,10.25,3,19.836855320350384,10
subject-03,1,204,1.13547110557556,bottle,boat,30,30_boat_10_n03344393_8374.png,False,1.639390288050118,0.3755285739898681,1.0,-0.060366455273698445,26.47941917181015,9,4.545634920634921,8,25.245260159678825,9
subject-03,1,205,0.759242057800293,cat,bird,150,150_bird_10_n02007558_7783.png,False,-0.32324317266816216,2.59230899810791,0.2,-2.5750242708999607,30.915797233581543,5,0.6667388167388164,7,38.319969100153145,6
subject-03,1,206,0.664865016937256,boat,boat,30,30_boat_10_n03344393_5296.png,True,-0.8155696940164416,0.0523669049143791,1.0,-0.00602441082590401,24.97673401236534,9,7.184523809523809,4,20.85988018441497,9
subject-03,1,207,0.866855144500732,dog,dog,0,0_dog_10_n02106662_15515.png,True,0.23813040020816215,0.8794121742248535,1.0,-0.1800856178559204,27.064218521118164,9,3.2138888888888886,9,27.994214775995175,9
subject-03,1,208,1.03869700431824,dog,dog,30,30_dog_10_n02108915_1165.png,True,1.1345592804985496,0.606124758720398,1.0,-0.1099204127765166,27.540744185447693,9,3.7373015873015873,8,27.529744321833093,9
subject-03,1,209,1.00465703010559,car,dog,60,60_dog_10_n02097658_759.png,False,0.9569866215377753,2.421782970428467,1.0,-1.725026102216106,30.684213399887085,10,2.1424603174603174,10,33.35099170592902,10
subject-03,1,210,0.93864893913269,knife,knife,90,90_knife_10_n03041632_52371.png,True,0.6126493387372892,0.0317954421043396,1.0,-0.00424192732370042,24.71971114212647,9,6.551190476190476,5,21.258193191259966,5
subject-03,1,211,1.13203310966492,bear,bear,30,30_bear_10_n02133161_959.png,True,1.621455665904555,0.4212178289890289,1.0,-0.08270938569540115,25.921207040548325,9,9.75,3,17.303327524995765,9
subject-03,1,212,0.643874168395996,boat,keyboard,180,180_keyboard_10_n03085013_23254.png,False,-0.9250703877017277,2.3416242599487305,0.3333333333333333,-2.8565581746243502,30.601094484329224,10,1.0413170163170162,6,37.73661783377074,6
subject-03,1,213,1.20557308197021,cat,dog,60,60_dog_10_n02086240_7247.png,False,2.0050837010074463,2.0826163291931152,1.0,-0.9779300777013391,30.23321270942688,10,2.184559884559884,10,32.05807094896429,10
subject-03,1,214,0.915733814239502,dog,dog,60,60_dog_10_n02099429_3814.png,True,0.4931104803268308,0.4360277056694031,1.0,-0.08336863335121739,26.217590987682343,9,3.176190476190476,9,28.449431709977507,9
subject-03,1,215,0.651441097259521,bicycle,bicycle,0,0_bicycle_10_n02835271_7794.png,True,-0.8855968067269268,0.0337297283113002,1.0,-0.003641791355058384,23.349951808340847,8,10.083333333333332,0,15.342251019272615,8
subject-03,1,216,0.577256917953491,bicycle,bicycle,90,90_bicycle_10_n03792782_55532.png,True,-1.2725854069503426,0.0205611288547515,1.0,-0.0021327811845872724,25.328520476818085,9,7.25,7,20.105910762900876,9
subject-03,1,217,0.507004976272583,cat,cat,30,30_cat_10_n02124075_11776.png,True,-1.6390611276281846,0.085241250693798,1.0,-0.010384408854188804,24.782964669167995,9,5.444444444444445,6,24.679818541731784,5
subject-03,1,218,0.732808828353882,bottle,bottle,30,30_bottle_10_n03983396_11519.png,True,-0.46113454733245646,0.0566469579935073,1.0,-0.006576419314327788,25.33297388255596,9,4.764224664224664,7,25.613310109748223,0
subject-03,1,219,0.656425952911377,boat,boat,0,0_boat_10_n03662601_37095.png,True,-0.8595928483482878,0.1090380698442459,1.0,-0.014077100370917438,25.05785122513771,9,6.267857142857142,6,20.99984117706958,9
subject-03,1,220,0.848315000534058,truck,truck,90,90_truck_10_n03417042_3238.png,True,0.14141403253082122,0.8678951859474182,1.0,-0.18694939139797456,28.973510801792145,10,3.092099567099567,9,27.869590096060538,9
subject-03,1,221,0.816053152084351,knife,knife,60,60_knife_10_n03041632_24060.png,True,-0.026882869705815347,0.7699201107025146,0.5,-3.512358347166521,28.50964045524597,10,3.2083333333333335,5,31.40577913489574,5
subject-03,1,222,0.594025850296021,airplane,airplane,0,0_airplane_10_n02690373_1325.png,True,-1.1851087277556271,0.0196747835725545,1.0,-0.0019898529528018924,24.117268986068666,9,6.288034188034188,5,24.084468977258236,8
subject-03,1,223,1.39984488487244,airplane,keyboard,180,180_keyboard_10_n03085013_25675.png,False,3.018520444142007,2.2356953620910645,0.1666666666666666,-3.1586166006938057,30.59208059310913,10,1.2886002886002883,6,37.17720810335942,6
subject-03,1,224,0.521624088287354,boat,truck,180,180_truck_10_n04467665_23173.png,False,-1.562799184070555,2.6945927143096924,0.0909090909090909,-3.043495693853813,31.284770488739014,5,0.9383658008658008,2,35.19951432850716,0
subject-03,1,225,0.895397186279297,dog,bicycle,90,90_bicycle_10_n03792782_12561.png,False,0.3870225885255612,2.3253440856933594,1.0,-1.4617094091605776,30.12407088279724,10,4.366666666666667,10,26.065148998407334,6
subject-03,1,226,0.727085113525391,cat,knife,180,180_knife_10_n03041632_2973.png,False,-0.4909928326201888,2.6702733039855957,0.2,-2.5653487436220845,31.12510633468628,5,2.9825757575757574,5,29.95042575392053,5
subject-03,1,227,0.981121778488159,bear,bear,150,150_bear_10_n02134418_1642.png,True,0.8342128149858011,2.6760308742523193,0.1428571428571428,-2.7659960550652865,30.95918369293213,5,8.05952380952381,3,23.96304065111834,5
subject-03,1,228,1.05128717422485,bicycle,elephant,90,90_elephant_10_n02504013_8856.png,False,1.2002370607788246,0.398544043302536,1.0,-0.07818850304837494,27.539630860090256,10,6.366666666666666,1,23.57552655596252,0
subject-03,1,229,0.618636131286621,bird,cat,150,150_cat_10_n02125311_11409.png,False,-1.0567269315188776,2.244999885559082,0.3333333333333333,-2.270401635133233,30.48525333404541,10,1.7429292929292926,4,32.53751675229813,4
subject-03,1,230,0.800888776779175,car,oven,150,150_oven_10_n04111531_5643.png,False,-0.10598922941094427,2.684372663497925,0.0625,-3.5757183235171395,31.241904735565186,5,0.40757575757575754,6,39.40211519883303,6
subject-03,1,231,0.862208127975464,bird,bird,30,30_bird_10_n02056570_4808.png,True,0.21388881073246155,0.3435177206993103,1.0,-0.05419196832690457,26.1606083214283,9,2.368265068265068,9,33.853434366337055,9
subject-03,1,232,0.890294075012207,boat,dog,150,150_dog_10_n02110063_5687.png,False,0.360401738844274,2.5929203033447266,0.0909090909090909,-3.1031611814767963,31.246934175491333,10,0.5370490620490619,1,36.252918632681855,0
subject-03,1,233,0.788129091262817,airplane,airplane,30,30_airplane_10_n02690373_11799.png,True,-0.1725513034738839,0.0156579967588186,1.0,-0.0015459082746901863,24.434065776877105,9,4.693589743589744,7,25.100688712453994,8
subject-03,1,234,1.37372303009033,car,car,0,0_car_10_n03100240_2108.png,True,2.882253384076999,0.7560538053512573,1.0,-0.1609864837949578,28.89466893672943,10,2.4716991341991337,9,37.51739710914028,10
subject-03,1,235,1.1116418838501,airplane,airplane,120,120_airplane_10_n02690373_13610.png,True,1.5150829593687918,2.124159574508667,1.0,-0.9679942970282462,30.30170965194702,10,3.9519230769230766,7,30.678176338870948,10
subject-03,1,236,0.797269821166992,car,car,30,30_car_10_n02814533_40344.png,True,-0.12486784449748413,1.015518307685852,1.0,-0.6302150872194979,27.453176736831665,9,3.2629329004329,8,35.572845272197725,9
subject-03,1,237,0.723044157028198,car,car,0,0_car_10_n03100240_4343.png,True,-0.5120728541698145,0.0030850414186716,1.0,-0.00027332464607329244,23.63360016979277,8,3.6617424242424237,8,31.651426605308203,8
subject-03,1,238,0.777024030685425,boat,bottle,150,150_bottle_10_n03937543_793.png,False,-0.2304818742295794,2.652968406677246,0.0909090909090909,-3.1394369764695127,30.91643714904785,5,0.5210428460428459,0,36.90868144497007,0
subject-03,1,239,0.785155057907104,chair,oven,150,150_oven_10_n04111531_4900.png,False,-0.1880656222425431,2.595985174179077,0.0625,-3.9627815037061214,30.998958587646484,5,0.399206349206349,6,41.11322162819463,6
subject-03,1,240,0.648710012435913,bottle,boat,180,180_boat_10_n03662601_15915.png,False,-0.8998437621137284,2.7185769081115723,0.5,-2.3621116031869165,31.2988121509552,5,3.558766233766234,7,30.10114373284309,0
subject-03,1,241,0.754083871841431,truck,elephant,150,150_elephant_10_n02504013_7305.png,False,-0.35015132454886666,2.6413774490356445,0.0666666666666666,-3.61708121536628,31.28383493423462,5,2.967261904761904,1,33.72260226950489,0
subject-03,1,242,0.812373876571655,elephant,elephant,60,60_elephant_10_n02504458_3614.png,True,-0.046076149106006416,0.0536412894725799,1.0,-0.0061339725380872775,25.544347926974297,9,7.283333333333333,1,21.67814777730392,9
subject-03,1,243,0.831680059432983,cat,cat,0,0_cat_10_n02123159_6206.png,True,0.054636330981446456,0.0873788744211196,1.0,-0.010682937572446866,24.357486121356487,9,5.277777777777778,6,23.9683876070012,5
subject-03,1,244,0.821706056594849,car,oven,180,180_oven_10_n04111531_8330.png,False,0.0026060270398066653,2.5904879570007324,0.0769230769230769,-3.492970512475929,30.91014266014099,9,0.383817571317571,6,40.99673780783658,6
subject-03,1,245,1.12952518463135,bottle,oven,0,0_oven_10_n04111531_6428.png,False,1.6083728441050067,0.0142614906653761,1.0,-0.0014565460691668235,24.806927702389657,9,4.355753968253968,7,27.31548447998178,8
subject-03,1,246,1.06340289115906,bicycle,bird,180,180_bird_10_n02028035_14461.png,False,1.2634398134537739,2.5563979148864746,0.1,-3.1203943663331173,30.874124765396118,9,0.30461482961482944,7,40.74738954603784,7
subject-03,1,247,0.835134983062744,boat,cat,180,180_cat_10_n02123394_6362.png,False,0.07265925813205203,2.513608932495117,0.2,-2.6394598909960663,30.737924575805664,10,1.0567460317460315,7,35.493050962699165,7
subject-03,1,248,0.840945959091187,bear,knife,180,180_knife_10_n03041632_24277.png,False,0.10297274950198573,2.648702621459961,0.1666666666666666,-2.680601413170217,31.077993392944336,5,2.4830086580086577,5,30.357336489774426,5
subject-03,1,249,0.886773109436035,car,airplane,180,180_airplane_10_n02690373_1592.png,False,0.34203429780085903,2.5249710083007812,0.1,-3.1920534977294164,31.00102949142456,9,1.01505439005439,3,35.01925642602774,3
subject-03,1,250,0.636615037918091,clock,bear,120,120_bear_10_n02134084_825.png,False,-0.9629383100641878,2.59317398071289,0.5,-2.0158060510898026,30.837674140930176,5,9.083333333333334,3,22.64745020471035,10
subject-03,1,251,0.870207071304321,elephant,elephant,30,30_elephant_10_n02504458_4696.png,True,0.25561603493387797,0.0754728615283966,1.0,-0.009087602819743787,24.602649852633476,9,7.991666666666666,1,20.326644213992132,9
subject-03,1,252,0.686052083969116,bear,oven,180,180_oven_10_n04111531_6695.png,False,-0.7050454085124471,2.702645778656006,0.0714285714285714,-3.196455465529263,31.292337894439697,5,0.5617063492063489,6,37.66958724635553,6
subject-03,1,253,0.563816070556641,clock,clock,90,90_clock_10_n02708093_204.png,True,-1.3427008246658383,0.1295748054981231,1.0,-0.017274370277896304,26.543381720781326,9,5.0504329004329005,6,29.056285352551,9
subject-03,1,254,1.02424311637878,clock,chair,90,90_chair_10_n04099969_36004.png,False,1.0591592435391453,2.240492105484009,1.0,-1.2159895474609148,30.436402559280396,9,3.2034090909090907,8,33.325129167416534,6
subject-03,1,255,1.01938199996948,cat,oven,30,30_oven_10_n04111531_6903.png,False,1.0338007823098632,0.0485599413514137,1.0,-0.006627898856171235,27.405039109289646,10,3.2351551226551223,8,31.550359811960348,9
subject-03,1,256,1.1052520275116,bird,bear,60,60_bear_10_n02134418_5807.png,False,1.481749685573797,2.195441246032715,0.1666666666666666,-2.618168461399584,30.155353784561157,10,8.75,3,22.425066680385804,5
subject-03,1,257,0.779065847396851,truck,truck,0,0_truck_10_n03796401_4017.png,True,-0.21983054939914753,0.0829952210187912,1.0,-0.010479270608611544,26.015862330794334,9,3.9285714285714284,8,25.57966290183583,9
subject-03,1,258,0.707195043563843,bottle,bottle,0,0_bottle_10_n04560804_2165.png,True,-0.5947512135144772,0.1934869438409805,1.0,-0.027617803469096352,26.250940307974815,9,3.7868797868797865,8,28.574067151855438,9
subject-03,1,259,0.902743101119995,car,oven,150,150_oven_10_n04111531_7965.png,False,0.4253432295052892,2.521561861038208,0.0625,-4.27396234827046,30.724304914474487,9,0.3059523809523808,6,44.66648679105558,6
subject-03,1,260,1.30856513977051,boat,boat,30,30_boat_10_n04273569_15583.png,True,2.5423512512467936,1.3432724475860596,0.5,-1.5359309047760177,28.29184317588806,9,5.48015873015873,5,26.634429070825497,0
subject-03,1,261,0.692466974258423,bicycle,bicycle,150,150_bicycle_10_n02835271_3529.png,True,-0.671581542808619,2.57903790473938,0.0714285714285714,-3.687476287692089,30.85091781616211,10,1.862337662337662,0,32.02908536896015,6
subject-03,1,262,0.668391942977905,bear,truck,180,180_truck_10_n03417042_6780.png,False,-0.7971711596614035,2.5620765686035156,0.1111111111111111,-3.121023833026108,31.085474491119385,5,0.9521825396825394,2,36.12299880118964,0
subject-03,1,263,1.29402303695679,cat,cat,30,30_cat_10_n02123597_4442.png,True,2.4664910332753713,0.037336342036724,1.0,-0.004626888482700761,24.3508335724473,9,3.7047619047619045,8,28.380104469000074,9
subject-03,1,264,1.0076789855957,knife,knife,30,30_knife_10_n03041632_15444.png,True,0.9727509305318913,0.0070133488625288,1.0,-0.000645368880752714,25.512178329750896,9,4.535714285714286,9,25.22547934127227,9
subject-03,1,265,0.675734043121338,clock,knife,180,180_knife_10_n03041632_44230.png,False,-0.7588704184011129,2.6841635704040527,0.2,-2.607755770745051,30.879307508468628,4,1.7436868686868685,5,32.40635228178601,5
subject-03,1,266,0.557583808898926,cat,clock,180,180_clock_10_n02708093_2721.png,False,-1.37521199130146,2.58264422416687,1.0,-1.4233834728573773,30.27018904685974,9,4.447619047619047,7,33.139294812651066,6
subject-03,1,267,0.703752040863037,bicycle,bicycle,30,30_bicycle_10_n03792782_4277.png,True,-0.6127119540418318,0.0276761744171381,1.0,-0.002986714591551306,24.252870412543416,9,8.0,3,17.722899230822815,8
subject-03,1,268,0.545026779174805,bear,bicycle,180,180_bicycle_10_n03792782_34197.png,False,-1.4407168927691292,2.5299909114837646,0.0714285714285714,-3.8813416211674174,30.750662326812744,5,1.3737845487845484,1,33.49460792284777,3
subject-03,1,269,0.818964004516602,cat,elephant,90,90_elephant_10_n02504013_3567.png,False,-0.011698140040386995,1.4376468658447266,0.3333333333333333,-3.3837459286970777,29.05732274055481,10,3.9222222222222225,1,30.22241102311211,0
subject-03,1,270,0.914618968963623,boat,boat,180,180_boat_10_n03344393_2969.png,True,0.4872947873203976,2.6825246810913086,0.25,-2.4706841715996872,31.160531282424927,5,2.5825757575757575,2,30.240341735856713,0
subject-03,1,271,0.796437978744507,bear,bear,60,60_bear_10_n02132136_686.png,True,-0.12920722706793694,0.1459341943264007,1.0,-0.02296101374920734,25.799013823270798,9,9.583333333333332,4,16.40873578346475,9
subject-03,1,272,0.636380910873413,car,elephant,150,150_elephant_10_n02504013_6659.png,False,-0.964159655344839,2.683235883712769,0.0666666666666666,-3.6082349344082814,31.1468505859375,4,3.2047619047619045,1,32.59115107875899,0
subject-03,1,273,0.87447190284729,truck,truck,90,90_truck_10_n03796401_27268.png,True,0.27786392126815623,1.431834101676941,1.0,-0.4439397827076347,29.36644184589386,10,3.451190476190476,9,27.9007596249662,9
subject-03,1,274,0.896000146865845,elephant,elephant,30,30_elephant_10_n02504458_9835.png,True,0.39016798792959717,0.0666992217302322,1.0,-0.007901210602531725,25.339733123779297,9,5.783333333333333,1,23.383342707086566,9
subject-03,1,275,0.500190019607544,clock,clock,60,60_clock_10_n04548280_4709.png,True,-1.6746119764083143,0.0245401002466678,1.0,-0.0025728632120811256,22.72602479532361,8,5.798351648351648,5,25.423188467098676,6
subject-03,1,276,0.635879993438721,cat,cat,60,60_cat_10_n02123597_14647.png,True,-0.9667727372538437,0.0575907938182354,1.0,-0.006674100701481267,25.36529778689146,9,4.315873015873016,7,28.163666277079802,9
subject-03,1,277,0.791521072387695,chair,chair,30,30_chair_10_n02791124_1292.png,True,-0.15485672169404532,0.1275470405817031,1.0,-0.018890786908169123,26.46703578531742,9,3.366941391941392,9,29.25594699737422,9
subject-03,1,278,0.717222929000854,keyboard,keyboard,30,30_keyboard_10_n03085013_19471.png,True,-0.5424398260357424,0.1324587315320968,1.0,-0.019799403882185353,27.60943154990673,10,4.928282828282828,6,29.03325627938319,9
subject-03,1,279,0.799037933349609,bicycle,knife,120,120_knife_10_n03041632_102828.png,False,-0.1156443245368969,2.2342207431793213,0.5,-1.5469554647253911,30.263857126235962,10,3.826190476190476,7,28.973022586311025,5
subject-03,1,280,1.06313991546631,bear,bird,120,120_bird_10_n01798484_2289.png,False,1.262067976544851,2.6433372497558594,0.5,-2.367090077147194,30.85217022895813,4,1.6134310134310133,7,37.340606391760446,7
subject-03,1,281,1.50015807151794,bird,car,180,180_car_10_n02814533_8490.png,False,3.5418134164043114,2.4339513778686523,0.1428571428571428,-2.979065280673426,30.95708990097046,10,0.1458333333333331,10,44.53853451226109,0
subject-03,1,282,1.05648183822632,truck,car,60,60_car_10_n03100240_7753.png,False,1.2273355037267055,1.6938722133636477,1.0,-0.9332672518464044,30.201619386672974,10,1.601724664224664,10,39.82951935652058,10
subject-03,1,283,0.578088998794556,clock,chair,150,150_chair_10_n03376595_10700.png,False,-1.26824478064742,2.5094246864318848,0.1428571428571428,-2.61152618361322,30.8797664642334,10,1.0663059163059159,0,37.38375792095057,7
subject-03,1,284,0.686434030532837,boat,bird,180,180_bird_10_n01796340_5016.png,False,-0.7030529491034835,2.520604372024536,1.0,-1.8439889758259793,30.786717176437378,10,2.0878357753357752,10,37.06058564550737,10
subject-03,1,285,0.775909900665283,bear,elephant,30,30_elephant_10_n02504013_4386.png,False,-0.23629383603861986,0.307709276676178,1.0,-0.056225594584806735,26.047734439373016,9,6.083333333333333,1,23.63139368139225,9
subject-03,1,286,1.00165700912476,chair,chair,90,90_chair_10_n02791124_15407.png,True,0.9413367359304561,0.0451233722269535,1.0,-0.005188730702599689,25.88819530978799,9,3.3964285714285714,9,29.49299599939221,9
subject-03,1,287,1.1257529258728,knife,knife,60,60_knife_10_n03041632_15299.png,True,1.5886945090434348,1.4197365045547483,0.5,-1.7010186338559505,29.91349160671234,10,2.8209706959706957,9,30.520711108260176,9
subject-03,1,288,0.873295068740845,clock,cat,180,180_cat_10_n02125311_11440.png,False,0.271724857820819,2.6320528984069824,0.1428571428571428,-2.745249238478547,31.03902006149292,9,0.9544122544122541,9,35.174484784127436,4
subject-03,1,289,0.933072090148926,keyboard,keyboard,30,30_keyboard_10_n04505470_494.png,True,0.5835571926480114,0.043676171451807,1.0,-0.004865183641576867,24.62988955527544,9,4.93576146076146,6,25.57808055282646,6
subject-03,1,290,0.876883983612061,clock,truck,120,120_truck_10_n03796401_8254.png,False,0.2904467626167652,1.6568315029144287,1.0,-0.6104609370038586,29.903328895568848,10,2.863492063492063,9,30.368703703764265,9
subject-03,1,291,0.777006149291992,bottle,bottle,90,90_bottle_10_n03983396_12757.png,True,-0.2305751541644582,0.1209285110235214,1.0,-0.015632772266084755,26.006266817450523,9,3.4836691086691083,8,28.35170699359311,9
subject-03,1,292,0.936944961547852,car,car,60,60_car_10_n03100240_8107.png,True,0.6037603828097964,0.2164725065231323,1.0,-0.03742709274070235,27.17238986492157,10,3.064855977355977,8,36.09687631501854,9
subject-03,1,293,0.520550012588501,boat,bear,150,150_bear_10_n02133161_4820.png,False,-1.5684021988254722,1.9520728588104248,0.1111111111111111,-3.4224455293174865,29.96293306350708,10,8.503968253968253,2,24.324173636770674,5
subject-03,1,294,0.730520009994507,keyboard,keyboard,120,120_keyboard_10_n04505470_2909.png,True,-0.4730743789966478,2.608499526977539,0.1666666666666666,-2.781694008956264,31.083248138427734,9,1.4409090909090905,6,36.1018718409454,6
subject-03,1,295,0.804164171218872,knife,knife,0,0_knife_10_n03041632_42526.png,True,-0.08890283280650217,0.2967028319835663,1.0,-0.060537733195148685,27.987693518400192,10,3.051190476190476,9,29.249202368200365,9
subject-03,1,296,0.881828784942627,bear,bear,60,60_bear_10_n02134418_2185.png,True,0.3162417739412763,1.2627893686294556,1.0,-0.39010137098178094,28.774104952812195,10,7.416666666666666,5,20.144762813857678,10
subject-03,1,297,0.770004987716675,clock,clock,30,30_clock_10_n03196217_2536.png,True,-0.2670973579997662,0.7287694215774536,1.0,-0.21429433830301647,26.282060623168945,9,4.242099567099567,6,29.469685046085058,8
subject-03,1,298,0.917324066162109,bicycle,bicycle,0,0_bicycle_10_n03792782_11824.png,True,0.501406175868512,0.0299292933195829,1.0,-0.003284956330767773,24.784511534497142,9,9.416666666666666,2,17.370759499608127,8
subject-03,1,299,0.673233985900879,bear,chair,180,180_chair_10_n04099969_19484.png,False,-0.771912197029312,2.6498570442199707,0.1428571428571428,-2.8386703976407235,30.957114458084106,4,0.8948773448773446,0,38.60517559845615,6
subject-03,1,300,1.05310297012329,boat,dog,180,180_dog_10_n02091032_6523.png,False,1.2097093272324293,2.709911823272705,0.3333333333333333,-2.4722407781841738,31.22976565361023,4,1.5567460317460315,9,34.16256748354148,0
subject-03,1,301,0.941255807876587,car,bicycle,120,120_bicycle_10_n02835271_9669.png,False,0.62624830950982,1.9741493463516235,1.0,-0.953753884521365,30.22030770778656,10,3.175,10,28.00536881096718,10
subject-03,1,302,0.870735883712769,knife,knife,60,60_knife_10_n03041632_1671.png,True,0.2583746335412962,0.0320371128618717,1.0,-0.0035541558066619237,25.634460154920816,9,6.583333333333333,5,22.72236754720819,5
subject-03,1,303,0.896420001983643,bottle,bottle,0,0_bottle_10_n04579145_5621.png,True,0.39235820080049844,0.0372059494256973,1.0,-0.004112462806538393,25.19308589398861,9,4.553113553113553,7,24.975063341508545,0
subject-03,1,304,0.934379816055298,knife,knife,0,0_knife_10_n03041632_33424.png,True,0.5903790652186452,1.598543405532837,1.0,-0.494658877574443,28.701693296432495,9,2.093986568986568,10,33.50528532811704,10
subject-03,1,305,1.3744421005249,elephant,elephant,60,60_elephant_10_n02504458_2103.png,True,2.8860044811914967,0.2001232951879501,1.0,-0.03184450102678086,26.01459001004696,9,5.0095238095238095,1,23.90345118510551,9
subject-03,1,306,0.874083995819092,bicycle,bicycle,90,90_bicycle_10_n03792782_17503.png,True,0.27584036854756994,0.0690580606460571,1.0,-0.008167208888239831,25.83332885801792,9,5.616666666666667,8,21.082169564392522,9
subject-03,1,307,0.731642007827759,bear,clock,120,120_clock_10_n02708093_1539.png,False,-0.4672213740162634,2.6302847862243652,0.3333333333333333,-2.511914475464578,31.182825803756714,5,2.656782106782107,9,36.57846007177865,6
subject-03,1,308,0.985733985900879,dog,dog,0,0_dog_10_n02101388_1383.png,True,0.8582728195216135,0.3329865336418152,1.0,-0.0520415937631178,26.639046132564545,9,4.277380952380952,8,26.41965482140644,9
subject-03,1,309,0.857777118682861,boat,keyboard,150,150_keyboard_10_n03085013_3148.png,False,0.19077404287006378,1.5142899751663208,0.1428571428571428,-3.6846852257722005,29.537006974220276,10,0.6032217782217779,9,40.01487081125482,6
subject-03,1,310,0.933222770690918,bottle,bottle,90,90_bottle_10_n04579145_4594.png,True,0.5843432315659028,1.4014239311218262,1.0,-0.38252063643100964,29.60652756690979,10,3.642002442002442,8,31.798801449139305,10
subject-03,1,311,0.914911031723022,knife,elephant,180,180_elephant_10_n02504458_4395.png,False,0.48881835959004466,1.9709153175354004,0.0625,-5.118505991694625,30.130219221115112,10,3.2867424242424237,1,35.2663795469134,0
subject-03,1,312,0.95878791809082,boat,airplane,0,0_airplane_10_n02690373_4119.png,False,0.7177061763250584,0.0420946329832077,1.0,-0.004939816018754059,25.572819098830223,9,7.184498834498834,3,22.472673283253286,9
subject-03,1,313,0.760463953018188,airplane,airplane,120,120_airplane_10_n02690373_10395.png,True,-0.3168690437849373,0.9555708765983582,1.0,-0.22177237797828586,28.676989018917084,10,3.4994810744810745,8,30.22387529826798,9
subject-03,1,314,0.694529056549072,airplane,airplane,120,120_airplane_10_n02690373_8446.png,True,-0.6608245007186634,2.6314477920532227,0.0833333333333333,-3.0981073750529173,30.99351930618286,5,0.9194555444555442,4,35.74124018491472,3
subject-03,1,315,0.918583154678345,bear,dog,120,120_dog_10_n02092002_9876.png,False,0.5079743270162852,2.6285593509674072,0.0833333333333333,-3.2298167752989078,30.837341785430908,4,0.5809884559884557,2,37.439963703832206,2
subject-03,1,316,0.902243137359619,boat,elephant,180,180_elephant_10_n02504458_1929.png,False,0.42273512252614237,2.6043734550476074,0.0714285714285714,-3.462880510087943,30.761659383773804,9,3.1234487734487733,1,32.49225445799512,0
subject-03,1,317,,na,airplane,180,180_airplane_10_n02690373_6144.png,False,,2.425980567932129,0.1111111111111111,-3.1251253922517184,31.0298330783844,10,0.8040043290043286,4,36.24812318777588,2
subject-03,1,318,0.945773839950562,airplane,airplane,150,150_airplane_10_n02690373_8252.png,True,0.6498170397219495,2.5879273414611816,0.0769230769230769,-3.415638742329899,31.106082916259766,5,1.0198523698523696,3,35.06608959871638,3
subject-03,1,319,0.747564077377319,car,car,120,120_car_10_n04285008_3268.png,True,-0.3841624325373052,2.040053367614746,0.25,-2.879895261495236,30.395952224731445,10,0.4700396825396823,9,42.48769819678779,0
subject-03,1,320,0.957350015640259,airplane,bear,180,180_bear_10_n02132136_110.png,False,0.7102052258285261,2.462083101272583,0.25,-2.557133802012575,30.501615524291992,10,8.125,3,23.19163470416296,5
subject-03,1,321,0.672854900360107,bear,elephant,120,120_elephant_10_n02504013_25336.png,False,-0.7738897316486966,2.5353214740753174,0.1666666666666666,-3.0402543334689063,30.84352731704712,5,3.3658730158730163,1,32.064256296486306,1
subject-03,1,322,0.872335910797119,bicycle,cat,120,120_cat_10_n02123597_5217.png,False,0.2667213221140421,2.144203186035156,0.1666666666666666,-3.093144189367655,30.210776805877686,10,0.8857864357864356,4,36.14002763115368,4
subject-03,1,323,0.742236137390137,bird,bird,30,30_bird_10_n01796340_2973.png,True,-0.41195612193310216,0.5837126970291138,1.0,-0.10540034559921446,25.958050072193146,9,4.096230158730158,7,31.209553234693654,9
subject-03,1,324,0.686317920684814,oven,oven,0,0_oven_10_n04111531_3202.png,True,-0.7036586468139511,0.0090518631041049,1.0,-0.0008518150420600761,26.32769614830613,9,3.1484848484848484,8,33.19491555207701,9
subject-03,1,325,0.688052892684937,boat,bird,150,150_bird_10_n01582220_1150.png,False,-0.6946080056659963,2.4643101692199707,0.2,-2.642911900934158,30.605823278427124,10,0.78015873015873,7,38.022304786848714,6
subject-03,1,326,0.91581916809082,cat,chair,180,180_chair_10_n03376595_208.png,False,0.4935557365493062,2.691248893737793,0.1428571428571428,-2.8910059586642802,31.22000026702881,5,1.0828102453102453,0,37.34999870431868,6
subject-03,1,327,0.7655189037323,clock,truck,150,150_truck_10_n03796401_7261.png,False,-0.29049942806158124,2.5114285945892334,0.0769230769230769,-3.4481705016198165,30.910989999771118,10,0.8602564102564099,2,35.96415519484322,0
subject-03,1,328,0.965496063232422,clock,clock,60,60_clock_10_n04548280_1304.png,True,0.7526998329608615,0.7550020813941956,1.0,-0.1491051710690925,26.961494743824005,9,4.431684981684981,7,29.412509947693096,4
subject-03,1,329,0.915542840957642,bear,car,150,150_car_10_n02814533_39485.png,False,0.49211425062235215,2.5636420249938965,0.3333333333333333,-2.2517180514736155,31.13923478126526,10,0.3998015873015871,10,42.939358945204,10
subject-03,1,330,0.881049871444702,bird,keyboard,120,120_keyboard_10_n04505470_4724.png,False,0.3121784999780556,2.711691379547119,0.5,-2.334525575144787,31.282005786895752,9,2.972557997557997,6,33.56207701387316,6
subject-03,1,331,0.798898935317993,cat,chair,180,180_chair_10_n04099969_9960.png,False,-0.11636942056400236,2.636507987976074,0.0833333333333333,-3.0433516722748664,30.865178108215332,4,0.5417429792429788,7,39.448849618958405,7
subject-03,1,332,0.844696998596191,bottle,bottle,30,30_bottle_10_n04579145_3769.png,True,0.12254039237413969,0.4662039279937744,1.0,-0.07811619042890193,26.372611939907074,9,4.521800421800421,7,27.09556413712073,9
subject-03,1,333,0.614421129226685,oven,oven,120,120_oven_10_n04111531_5888.png,True,-1.078714877767962,2.682666540145874,0.0769230769230769,-3.051412286546153,30.95070791244507,9,0.7877747252747247,6,36.800108054024534,6
subject-03,1,334,0.508210897445679,clock,knife,180,180_knife_10_n03041632_20697.png,False,-1.632770328820112,2.5488405227661133,0.5,-2.0597553442259344,30.715235710144043,9,3.3083333333333336,5,29.41873119341396,5
subject-03,1,335,0.772066831588745,cat,cat,60,60_cat_10_n02125311_17002.png,True,-0.25634155964227556,0.0517222061753273,1.0,-0.005887400618069563,24.68875416368246,9,4.099650349650349,8,26.85363047162994,9
subject-03,1,336,0.748265027999878,clock,chair,150,150_chair_10_n02791124_7987.png,False,-0.3805058590901443,2.575678586959839,0.3333333333333333,-2.5606783190567395,30.77863621711731,9,1.3831349206349204,7,36.552358787694004,6
subject-03,1,337,0.851659059524536,clock,clock,120,120_clock_10_n02708093_118.png,True,0.15885862408518847,2.4514427185058594,1.0,-1.5538744216789422,30.683470726013184,9,4.866666666666666,6,33.06817779235831,6
subject-03,1,338,0.783861875534058,cat,knife,90,90_knife_10_n03041632_32896.png,False,-0.19481162713280717,1.9211199283599856,1.0,-0.6891592475599778,30.100544691085815,10,5.091666666666667,7,25.791508697920722,5
subject-03,1,339,0.701401948928833,chair,chair,0,0_chair_10_n02791124_1693.png,True,-0.6249714249495326,0.0653974711894989,1.0,-0.0077190723348143,25.44528253097087,9,5.028210678210678,7,25.54614938890318,9
subject-03,1,340,1.2392840385437,airplane,bottle,180,180_bottle_10_n03983396_5532.png,False,2.1809400091664943,2.3852670192718506,0.3333333333333333,-2.3279993031470445,30.832826852798462,10,1.1968004218004213,9,34.51649283883734,0
subject-03,1,341,0.823069095611572,elephant,elephant,0,0_elephant_10_n02504458_4316.png,True,0.009716445542322722,0.0293119810521602,1.0,-0.003124762911970901,23.208053804934025,9,7.375,1,18.98258299815987,0
subject-03,1,342,0.91867995262146,boat,bear,90,90_bear_10_n02133161_8856.png,False,0.5084792823970821,1.3623955249786377,0.5,-2.7561840857993527,29.094027757644653,10,9.083333333333334,3,22.674752888561343,5
subject-03,1,343,0.760684967041016,cat,cat,90,90_cat_10_n02124075_81.png,True,-0.3157161037898598,0.4964828491210937,1.0,-0.08647590220668483,27.351481199264526,10,3.216666666666667,9,30.55895434366044,9
subject-03,1,344,0.668500185012817,oven,oven,180,180_oven_10_n04111531_10336.png,True,-0.796606505122285,2.3354036808013916,0.0666666666666666,-3.9530781012989205,30.785086393356323,10,0.5572552447552446,6,38.25691905566084,6
subject-03,1,345,0.73829197883606,clock,knife,150,150_knife_10_n03041632_27879.png,False,-0.4325311881019263,2.5897421836853027,0.5,-2.1208119474573914,31.059804439544678,5,3.311111111111111,9,29.88171400037773,5
subject-03,1,346,0.632348775863647,cat,dog,120,120_dog_10_n02111500_3041.png,False,-0.9851936587932579,2.581742763519287,1.0,-1.648378689835612,30.985600233078003,10,1.9769841269841266,10,33.538072659439315,10
subject-03,1,347,1.06776213645935,elephant,elephant,60,60_elephant_10_n02504013_4229.png,True,1.2861802178441821,0.0463222041726112,1.0,-0.005285317897214031,25.1888075619936,9,7.059523809523809,1,22.35340741551038,9
subject-03,1,348,1.08963990211487,bird,bird,30,30_bird_10_n01843383_13894.png,True,1.4003075962993539,0.7855513691902161,1.0,-0.1627998540888193,28.095270693302155,10,2.8740440115440116,9,34.24939061093001,9
subject-03,1,349,,na,clock,150,150_clock_10_n04548280_3299.png,False,,2.560720443725586,1.0,-1.6753813875970045,30.725944995880127,10,2.716305916305916,9,36.97078570079164,6
subject-03,1,350,1.04329395294189,clock,clock,0,0_clock_10_n03196217_5493.png,True,1.1585396861565618,0.0484087876975536,1.0,-0.005718457201661725,24.64919151365757,9,5.269047619047619,6,25.705235138116464,8
subject-03,1,351,0.687199115753174,chair,chair,60,60_chair_10_n04099969_246.png,True,-0.6990618116232339,0.0379078537225723,1.0,-0.004217625262728825,26.62472213804722,9,4.700396825396825,7,28.08398041040569,9
subject-03,1,352,0.932762145996094,knife,knife,60,60_knife_10_n03041632_8321.png,True,0.5819403404434855,1.4837887287139893,0.5,-1.005792976326442,29.533629655838013,10,2.978210678210678,9,29.06726237382168,9
subject-03,1,353,0.946686983108521,dog,dog,90,90_dog_10_n02101388_11601.png,True,0.6545805350629759,1.5691306591033936,1.0,-0.4919542355498129,29.304011821746826,10,3.0107142857142852,9,30.679108205910413,9
subject-03,1,354,0.914574146270752,bottle,keyboard,60,60_keyboard_10_n03085013_30073.png,False,0.4870609656169738,1.7689752578735352,0.3333333333333333,-1.7732678530976165,28.99285364151001,10,2.573135198135198,6,33.258718096412785,6
subject-03,1,355,0.778478145599365,elephant,elephant,120,120_elephant_10_n02504013_1908.png,True,-0.22289634992542515,2.5209269523620605,0.5,-2.073714232084458,30.968497037887573,10,3.8666666666666667,1,29.48276387088154,0
subject-03,1,356,0.626286029815674,cat,cat,30,30_cat_10_n02123045_13172.png,True,-1.0168205316462464,0.1171092316508293,1.0,-0.01625269022009202,25.45906689018011,9,4.477777777777778,7,27.264532496057637,9
subject-03,1,357,0.968057870864868,knife,knife,60,60_knife_10_n03041632_87380.png,True,0.7660637382974995,0.2185529768466949,1.0,-0.03278209213044527,26.74745002388954,9,4.490079365079366,8,25.82789660403349,9
subject-03,1,358,0.723835945129395,dog,dog,30,30_dog_10_n02109525_72594.png,True,-0.5079424186534799,0.7779954671859741,1.0,-0.15553454415760032,26.87344717979431,9,3.8773809523809524,8,28.80970884738958,9
subject-03,1,359,0.639600038528442,clock,clock,90,90_clock_10_n03196217_5827.png,True,-0.9473667796021411,0.8695952892303467,1.0,-0.322007737383043,27.23021149635315,9,2.7837051837051834,10,32.464759808488594,6
subject-03,1,360,0.767306804656982,boat,keyboard,180,180_keyboard_10_n04505470_4579.png,False,-0.28117267830640025,2.133702039718628,0.5,-2.296151677015643,30.418901205062866,10,3.4484848484848483,7,33.241380751196296,6
subject-03,1,361,0.73526406288147,truck,truck,60,60_truck_10_n03417042_13055.png,True,-0.4483265904076806,0.1381682008504867,1.0,-0.019235188784878825,28.263686284422874,10,3.08015873015873,9,27.730194274264793,9
subject-03,1,362,0.731328010559082,bicycle,bicycle,120,120_bicycle_10_n02835271_4138.png,True,-0.4688593696726958,1.884687900543213,0.3333333333333333,-2.524021055363525,30.0525860786438,10,3.416666666666667,0,27.494461219505343,9
subject-03,1,363,0.866737842559814,airplane,airplane,30,30_airplane_10_n02690373_190.png,True,0.23751848383537233,0.0170661285519599,1.0,-0.0017046548232637498,24.414431996643543,9,4.801923076923076,7,25.90142140927381,8
subject-03,1,364,0.738718032836914,oven,oven,30,30_oven_10_n04111531_21855.png,True,-0.4303086381869386,0.4266292154788971,1.0,-0.14436192366203832,27.835025936365128,10,2.300992063492063,10,32.37497884016912,6
subject-03,1,365,0.546364784240723,clock,boat,150,150_boat_10_n03344393_5265.png,False,-1.4337370661754372,2.545372009277344,1.0,-1.5228784879540296,30.985371112823486,10,5.517857142857142,7,28.145278224500835,0
subject-03,1,366,0.67623496055603,airplane,chair,150,150_chair_10_n04099969_16178.png,False,-0.7562573364921078,2.6387834548950195,0.0909090909090909,-3.0043677049287276,30.93153977394104,5,1.0010031635031633,0,38.65526320311826,6
subject-03,1,367,0.98009991645813,dog,bear,90,90_bear_10_n02132136_8358.png,False,0.8288821776407275,0.8965330123901367,1.0,-0.1866945458556612,27.96008574962616,10,10.75,2,17.06339599803281,9
subject-03,1,368,0.613908052444458,cat,cat,60,60_cat_10_n02124075_13587.png,True,-1.0813913900326872,0.6178077459335327,1.0,-0.12497751953012534,27.77810037136078,10,4.087301587301587,8,28.56380918452312,9
subject-03,1,369,0.716121912002563,chair,chair,30,30_chair_10_n04099969_15882.png,True,-0.5481833825592044,0.0449673049151897,1.0,-0.005053871759547424,25.4672736460343,9,4.227355977355977,8,25.66373312834832,8
subject-03,1,370,0.771568059921265,keyboard,keyboard,60,60_keyboard_10_n04505470_4479.png,True,-0.25894344795909496,0.1124138757586479,1.0,-0.016288252072986932,25.729056112468243,9,4.962287712287712,6,27.791805990881077,6
subject-03,1,371,0.689481973648071,keyboard,keyboard,120,120_keyboard_10_n04505470_1157.png,True,-0.687153073270671,2.5788145065307617,0.3333333333333333,-2.3274393515438914,30.866703033447266,9,1.7527639027639024,6,34.32431680944271,6
subject-03,1,372,0.989104986190796,knife,oven,120,120_oven_10_n04111531_924.png,False,0.8758579528445303,2.5726261138916016,0.1111111111111111,-3.1311207287751226,31.149259567260742,9,0.7297619047619046,9,37.69011032423436,6
subject-03,1,373,0.862825870513916,bear,bear,30,30_bear_10_n02133161_7032.png,True,0.2171113215493276,0.7129898071289062,1.0,-0.1913969615161613,28.209725737571716,10,9.583333333333332,4,19.963095727348417,9
subject-03,1,374,0.91482400894165,boat,chair,150,150_chair_10_n04429376_20628.png,False,0.4883643972403124,2.49520206451416,0.3333333333333333,-2.566092311049591,30.84438920021057,9,1.8190476190476184,0,34.12029378072572,6
subject-03,1,375,1.14651203155518,cat,cat,0,0_cat_10_n02123597_13755.png,True,1.696986294772756,0.0904383808374404,1.0,-0.011993518195253131,26.75759567320347,9,3.7669413919413914,7,29.829334098136822,9
subject-03,1,376,0.620508193969727,bicycle,bicycle,0,0_bicycle_10_n02835271_22549.png,True,-1.0469611442035383,0.0306145455688238,1.0,-0.00329751457035141,24.639333935454488,9,9.083333333333332,2,17.218701758614937,8
subject-03,1,377,1.11859202384949,elephant,bear,180,180_bear_10_n02134084_1503.png,False,1.551339004456589,2.5998411178588867,0.125,-2.712804023048992,31.056609392166138,5,8.48611111111111,2,24.20183914515918,5
subject-03,1,378,0.911990165710449,boat,bear,120,120_bear_10_n02133161_2270.png,False,0.47358139316108666,2.555746078491211,0.3333333333333333,-1.9375089477481964,30.749452590942383,5,7.749999999999999,3,23.306710953817145,10
subject-03,1,379,0.856218099594116,truck,truck,30,30_truck_10_n03796401_22643.png,True,0.18264127628129903,0.0691679418087005,1.0,-0.008710721464261575,26.264353960752487,9,4.094047619047619,8,24.99749572145058,9
subject-03,1,380,0.887953996658325,truck,truck,0,0_truck_10_n03796401_24543.png,True,0.3481945047001022,0.0770760998129844,1.0,-0.009572820403621536,26.047395519912243,9,4.609523809523809,8,23.73226322953806,9
subject-03,1,381,0.721498966217041,bicycle,truck,180,180_truck_10_n03417042_1149.png,False,-0.5201334842756076,2.5674619674682617,0.0769230769230769,-3.3203685364676807,30.75295329093933,10,0.9364468864468862,3,36.24600760027015,0
subject-03,1,382,0.907446146011353,boat,dog,120,120_dog_10_n02086646_8144.png,False,0.44987709611027527,2.5236828327178955,0.0769230769230769,-3.375406946975913,30.700926065444946,10,0.653449328449328,2,36.573587217259046,6
subject-03,1,383,0.757200002670288,bottle,bottle,0,0_bottle_10_n02823428_685.png,True,-0.3338957412310585,0.1249861717224121,1.0,-0.017051106859486086,27.581660747528076,10,4.521367521367521,7,27.929239236202353,9
subject-03,1,384,0.83312201499939,car,chair,180,180_chair_10_n03376595_2809.png,False,0.06215842492989106,2.599574565887451,0.1111111111111111,-2.9016203960779423,31.038777112960815,5,1.1107864357864354,0,36.934175269451664,6
subject-03,1,385,0.713051795959473,car,car,90,90_car_10_n03100240_6010.png,True,-0.5641989255112619,0.7178010940551758,1.0,-0.19633098003928307,28.041078805923462,10,3.153246753246753,8,36.91105727568931,9
subject-03,1,386,0.676483869552612,bear,bear,0,0_bear_10_n02134084_42197.png,True,-0.7549588797986276,0.0294226296246051,1.0,-0.003131519338865057,24.178271780721843,9,9.166666666666666,4,15.660407318663944,9
subject-03,1,387,0.844415187835693,boat,bicycle,150,150_bicycle_10_n03792782_5133.png,False,0.12107030060048671,2.139873504638672,0.0714285714285714,-4.233643911928229,30.20770764350891,10,1.2654512154512152,3,34.45770255449543,3
subject-03,1,388,0.882189035415649,knife,knife,30,30_knife_10_n03041632_11327.png,True,0.3181210536959191,0.0292800609022378,1.0,-0.003163568144894315,24.935103381052613,9,4.795634920634921,8,24.215462022118768,5
subject-03,1,389,0.793889999389648,car,airplane,180,180_airplane_10_n02690373_4691.png,False,-0.14249899592160786,2.654409646987915,0.2,-2.4685742833854047,31.03053331375122,5,1.0818181818181816,9,34.2807929544453,2
subject-03,1,390,0.957601070404053,cat,elephant,30,30_elephant_10_n02504458_6336.png,False,0.7115148761141921,0.0738135129213333,1.0,-0.008867542660458833,25.48557010293007,9,5.833333333333333,1,23.580827059636505,9
subject-03,1,391,0.631764888763428,bicycle,bicycle,30,30_bicycle_10_n02835271_22143.png,True,-0.9882395596000882,0.0252858810126781,1.0,-0.002704459419885644,24.10204642638564,9,6.583333333333333,6,18.600148060732867,8
subject-03,1,392,0.73135781288147,elephant,elephant,30,30_elephant_10_n02504013_8308.png,True,-0.46870390311456717,0.0213782656937837,1.0,-0.0021843311465023023,23.96054452471435,9,5.741666666666666,7,20.895449598239107,8
subject-03,1,393,0.949137210845947,bicycle,car,180,180_car_10_n02814533_40459.png,False,0.6673623736059822,2.440910577774048,0.1666666666666666,-2.835085477983027,30.70265030860901,10,0.2014652014652012,10,44.51977300422857,10
subject-03,1,394,0.924908876419067,bird,bird,120,120_bird_10_n02018207_6296.png,True,0.5409730367781911,1.9985604286193848,0.1111111111111111,-3.4090709119585263,30.071040630340576,10,0.8341630591630589,8,39.15924447733538,1
subject-03,1,395,0.579153060913086,bear,bear,60,60_bear_10_n02134084_15118.png,True,-1.2626940026560374,0.0507487133145332,1.0,-0.005782002476492554,25.444734077900648,9,10.75,2,17.566390011608764,9
subject-03,1,396,0.624560117721558,boat,truck,150,150_truck_10_n03417042_10476.png,False,-1.025823910960525,2.703000783920288,0.0769230769230769,-3.134719249854222,31.21744132041931,5,0.7320818070818067,2,36.291075255055794,0
subject-03,1,397,0.846447944641113,bicycle,bicycle,60,60_bicycle_10_n02835271_21185.png,True,0.13167436359724666,0.0245170444250106,1.0,-0.0025606128567681576,25.382090158760548,9,7.083333333333333,6,19.56416355782777,8
subject-03,1,398,0.592316150665283,clock,clock,30,30_clock_10_n02708093_51.png,True,-1.1940275332622885,0.0699836760759353,1.0,-0.008585426496356003,26.25311429798603,9,4.4523809523809526,7,30.232104860313296,9
subject-03,1,399,0.743864059448242,chair,chair,30,30_chair_10_n02791124_4192.png,True,-0.4034639166619489,0.0485602095723152,1.0,-0.005535637187456119,25.732607021927834,9,4.888528138528138,7,25.94100160759574,9
subject-03,1,400,0.773844003677368,bear,car,180,180_car_10_n02814533_66666.png,False,-0.24707077784801698,2.4948930740356445,0.1111111111111111,-3.021352619342139,30.754252910614014,10,0.10291514041514019,10,45.331647203485545,10
subject-03,1,401,0.591466903686523,boat,car,180,180_car_10_n02814533_39517.png,False,-1.1984577083026908,2.5315117835998535,0.1428571428571428,-2.8129908628697806,30.966177225112915,10,0.13406593406593367,10,45.1944559036902,10
subject-03,1,402,0.471340894699097,clock,bottle,180,180_bottle_10_n03937543_4259.png,False,-1.8251060921406543,2.4813294410705566,0.1,-3.1781960571441323,30.80509877204895,9,0.561122211122211,0,36.835287232211364,0
subject-03,1,403,0.719098091125488,bird,bird,60,60_bird_10_n01843383_10059.png,True,-0.53265787019836,1.235847234725952,1.0,-0.3022407903056767,29.115122318267822,10,3.4093614718614718,8,35.49525342830454,10
subject-03,1,404,0.658993005752563,boat,dog,150,150_dog_10_n02097209_821.png,False,-0.8462015808974205,1.9600181579589844,0.1666666666666666,-3.091803022113271,29.803946256637573,10,0.873448773448773,2,35.92957218191914,2
subject-03,1,405,0.538762807846069,oven,keyboard,120,120_keyboard_10_n04505470_4535.png,False,-1.4733934758226013,2.6859419345855713,0.1428571428571428,-2.7026875071657024,30.92781639099121,9,0.833283383283383,9,37.03874554117789,6
subject-03,1,406,0.604732990264893,bicycle,chair,120,120_chair_10_n02791124_5823.png,False,-1.129253946484047,1.6908948421478271,0.3333333333333333,-2.7684888285558262,29.904365062713623,10,1.8185897435897431,0,35.757262964615315,6
subject-03,1,407,0.768531084060669,bottle,boat,30,30_boat_10_n02951358_12664.png,False,-0.27478611209852055,0.0625087320804596,1.0,-0.007670659893480264,27.800158649683,10,5.958333333333333,3,25.42557267475071,9
subject-03,1,408,0.850330829620361,clock,truck,150,150_truck_10_n03417042_18705.png,False,0.15192979052256125,2.629760265350342,0.0714285714285714,-3.289759839985586,30.688432455062866,10,0.7660714285714283,1,37.1970943609809,0
subject-03,1,409,0.801979780197144,airplane,clock,150,150_clock_10_n03196217_1153.png,False,-0.1002979096510119,2.7248222827911377,0.5,-2.424760045233113,30.870665311813354,4,0.9920634920634919,10,38.61701893956293,6
subject-03,1,410,0.907845020294189,bicycle,elephant,150,150_elephant_10_n02504458_6499.png,False,0.45195786052424897,2.483728408813477,0.0666666666666666,-4.180912983814487,30.59234929084778,9,3.0983516483516476,1,34.524009608301014,0
subject-03,1,411,0.763579130172729,bear,bicycle,150,150_bicycle_10_n03792782_4544.png,False,-0.3006184353969869,2.0642659664154053,0.0769230769230769,-3.673796440149163,30.11630153656006,10,3.6661838161838163,3,32.85224689297134,8
subject-03,1,412,0.793445110321045,cat,cat,120,120_cat_10_n02123045_8336.png,True,-0.14481980070133216,0.7187422513961792,1.0,-0.13835702901148453,28.769649386405945,10,2.892099567099567,9,31.172282313663782,9
subject-03,1,413,0.783231019973755,airplane,airplane,90,90_airplane_10_n02690373_5422.png,True,-0.19810254323525106,1.421618938446045,1.0,-0.47885973419153527,28.7949378490448,9,4.806623931623932,7,27.300775035472686,9
subject-03,1,414,0.746981859207153,bicycle,car,150,150_car_10_n03100240_16145.png,False,-0.38719962721688383,2.490121841430664,0.1428571428571428,-3.0408415444883183,30.954176664352417,10,0.16231684981684957,10,44.71541338138216,0
subject-03,1,415,0.823315858840942,bicycle,bicycle,60,60_bicycle_10_n02835271_25519.png,True,0.011003708643617773,0.1311051696538925,1.0,-0.01735205726288196,26.203396663069725,9,6.25,3,21.034383256498614,9
subject-03,1,416,0.932764053344727,knife,bottle,0,0_bottle_10_n03983396_23471.png,False,0.5819502903032069,1.350780367851257,0.3333333333333333,-2.5669541488331715,29.808118224143982,10,1.5388278388278382,7,32.95147513291303,0
subject-03,1,417,0.686395883560181,bicycle,clock,180,180_clock_10_n04548280_9217.png,False,-0.7032519462978855,2.6835436820983887,1.0,-2.2114381520792077,31.107202291488647,4,3.3666666666666663,8,37.97742013751021,6
subject-03,1,418,0.534337997436523,bear,car,180,180_car_10_n03100240_6750.png,False,-1.4964759066409068,2.1518921852111816,0.2,-3.09373437692542,30.532721042633057,10,0.2160464535464534,10,44.67993106672654,0
subject-03,1,419,0.7100989818573,car,elephant,180,180_elephant_10_n02504458_4564.png,False,-0.5796025520905345,2.6367740631103516,0.0714285714285714,-3.528961885424405,31.02986788749695,4,3.465018315018315,1,33.31209778955936,0
subject-03,1,420,1.02200412750244,knife,oven,0,0_oven_10_n04111531_1488.png,False,1.0474793519601582,1.3852667808532717,0.3333333333333333,-1.9176895113128198,29.656793355941772,10,0.7706099456099456,9,39.58977899178495,6
subject-03,1,421,0.715631008148193,bear,bear,30,30_bear_10_n02134084_13394.png,True,-0.5507442277046798,0.0462736263871192,1.0,-0.005189269935233905,25.366962395608425,9,10.25,3,16.908627304363574,9
subject-03,1,422,0.665555953979492,keyboard,keyboard,30,30_keyboard_10_n03085013_2842.png,True,-0.8119653573328156,0.0330418199300766,1.0,-0.0035888501907152554,25.001272402703762,9,5.206060606060606,6,24.575470486932947,6
subject-03,1,423,0.813292026519775,bicycle,bicycle,180,180_bicycle_10_n02835271_4789.png,True,-0.04128653538321581,2.7002713680267334,0.125,-2.8086918892197956,31.241872310638428,3,1.8317460317460317,3,30.88285879458167,6
subject-03,1,424,0.871331214904785,car,car,150,150_car_10_n04285008_8813.png,True,0.26148023350644806,2.168254852294922,0.2,-3.1606184559326453,30.292269229888916,10,0.2273559773559771,10,45.53463400625084,0
subject-03,1,425,0.931272029876709,chair,truck,0,0_truck_10_n03417042_3389.png,False,0.5741670125371098,0.0714554488658905,1.0,-0.009197079585875775,25.895001977682114,9,3.253968253968254,9,25.9767034434714,9
subject-03,1,426,0.779109954833984,keyboard,keyboard,0,0_keyboard_10_n03085013_21967.png,True,-0.2196004588931229,0.2218523025512695,1.0,-0.03177946247541814,24.66141565144062,9,5.4246753246753245,6,23.796953254280407,6
subject-03,1,427,0.882729053497314,keyboard,elephant,180,180_elephant_10_n02504458_4572.png,False,0.32093810772918924,2.652585983276367,0.0666666666666666,-3.814135544896881,31.22542381286621,4,2.765018315018314,1,33.88787075762468,0
subject-03,1,428,0.786672115325928,car,car,60,60_car_10_n02814533_46401.png,True,-0.1801517525676178,0.4674552083015442,0.5,-1.9674682858475203,26.017973244190216,9,2.977518315018315,7,36.39778010263473,8
subject-03,1,429,0.814424991607666,elephant,elephant,90,90_elephant_10_n02504458_3629.png,True,-0.03537631870943878,0.0266779474914073,1.0,-0.0029067282262545792,25.116981249302626,9,8.533333333333333,1,20.287515180783075,9
subject-03,1,430,0.75829005241394,boat,boat,90,90_boat_10_n04273569_27343.png,True,-0.32820939640098906,2.3294076919555664,0.3333333333333333,-2.055788881616177,30.565192461013794,10,4.841666666666666,4,27.918875225215743,0
subject-03,1,431,0.724390029907227,bird,oven,180,180_oven_10_n04111531_6958.png,False,-0.5050519844047735,2.712526321411133,0.0625,-3.4807754617391473,31.197279930114746,9,0.2792790542790541,6,43.11959630713837,6
subject-03,1,432,0.871641874313354,airplane,airplane,120,120_airplane_10_n02690373_3709.png,True,0.26310081690836734,1.8569719791412351,0.5,-1.1545386519139853,30.036251306533813,10,3.876923076923077,7,30.228211164117774,3
subject-03,1,433,0.895672082901001,oven,chair,90,90_chair_10_n04099969_18380.png,False,0.3884566120577286,2.563732624053955,0.3333333333333333,-2.235568577069969,30.91769242286682,10,1.3339285714285711,0,36.582607787977615,6
subject-03,1,434,0.733228206634521,bear,bear,0,0_bear_10_n02133161_1032.png,True,-0.4589468219264893,0.0350532382726669,1.0,-0.0038198976311310476,24.658469036221504,9,9.416666666666666,4,16.13039448915069,9
subject-03,1,435,1.18335795402527,airplane,airplane,90,90_airplane_10_n02690373_3147.png,True,1.8891964411143176,2.2522592544555664,1.0,-1.074306332007804,30.299428462982178,9,7.704700854700855,3,26.296556167844585,9
subject-03,1,436,1.37708711624146,bird,bird,0,0_bird_10_n01616318_1831.png,True,2.899802449158466,2.581631898880005,0.125,-2.8832461604672557,30.766164541244507,4,0.15238095238095198,10,43.51010037252769,10
subject-03,1,437,0.702798843383789,car,car,30,30_car_10_n04285008_14128.png,True,-0.6176843964369815,0.0730908289551734,1.0,-0.009069317758770531,25.184896357357502,9,3.925534188034188,7,33.274239277320355,7
subject-03,1,438,1.07462310791016,clock,clock,60,60_clock_10_n03196217_599.png,True,1.321971106990084,0.0954644307494163,1.0,-0.01215893978630939,26.755493961274624,9,4.888827838827838,6,29.420785225370242,6
subject-03,1,439,0.822488784790039,airplane,airplane,60,60_airplane_10_n02690373_10232.png,True,0.006689200722464786,0.0187700167298316,1.0,-0.0018920905793714281,24.69188575539738,9,5.612276612276612,6,23.526392170771047,8
subject-03,1,440,0.804245948791504,boat,dog,120,120_dog_10_n02105855_17066.png,False,-0.08847623257099918,2.557828187942505,0.1111111111111111,-2.9498951525177173,30.605966806411743,10,0.6198773448773447,2,36.22716797739939,0
subject-03,1,441,0.870036840438843,chair,chair,30,30_chair_10_n04099969_52474.png,True,0.25472800995385664,0.4158386588096618,1.0,-0.09113934657761849,27.59631782770157,9,4.237301587301587,0,28.495033286309052,9
subject-03,1,442,0.8818359375,keyboard,keyboard,90,90_keyboard_10_n03085013_24192.png,True,0.31627908591522685,0.1084976196289062,1.0,-0.013861076696203713,26.11556750535965,9,4.972557997557997,6,27.326632213141036,6
subject-03,1,443,0.887617111206055,truck,truck,90,90_truck_10_n03417042_1978.png,True,0.3464371107270319,1.1064283847808838,1.0,-0.2607020036670761,28.99386477470398,10,3.7147186147186146,8,28.239081272384922,9
subject-03,1,444,0.973449945449829,bicycle,bicycle,0,0_bicycle_10_n02835271_8417.png,True,0.7941919917263903,0.0312454178929328,1.0,-0.0033537893806578054,23.90967554692179,8,7.75,4,17.919347428356748,8
subject-03,1,445,0.647726058959961,boat,boat,30,30_boat_10_n04612504_8407.png,True,-0.9049766459968644,0.1355631947517395,1.0,-0.01777061558672278,25.159217804670334,9,6.517857142857142,4,21.24226161862747,9
subject-03,1,446,0.923352003097534,keyboard,oven,30,30_oven_10_n04111531_3902.png,False,0.5328514637816115,0.4188462197780609,1.0,-0.08247283865953578,28.55769309401512,10,4.1811868686868685,7,31.420755955619434,6
subject-03,1,447,0.812791109085083,keyboard,keyboard,60,60_keyboard_10_n03085013_6424.png,True,-0.043899617292220375,0.0921655595302581,1.0,-0.01151598823788024,25.041179984807968,9,5.3977272727272725,6,24.019565715709536,5
subject-03,1,448,1.38306593894958,elephant,elephant,120,120_elephant_10_n02504458_3511.png,True,2.93099152818372,2.3554253578186035,0.1666666666666666,-2.9384735815829126,30.185912609100342,9,4.067099567099567,1,29.37360831997846,0
subject-03,1,449,0.816582918167114,cat,cat,0,0_cat_10_n02123597_2232.png,True,-0.02411929616854453,0.2014083713293075,1.0,-0.02899594116348157,25.76222537457943,9,4.330952380952381,7,28.826376587840198,9
subject-03,1,450,0.792258024215698,elephant,elephant,0,0_elephant_10_n02504013_1953.png,True,-0.15101234464466812,0.0037084135692566,1.0,-0.00032042629669066944,23.97960921865888,9,7.444444444444445,1,20.0632025826597,8
subject-03,1,451,0.731996059417725,clock,clock,90,90_clock_10_n02708093_181.png,True,-0.46537443130570766,0.5590430498123169,1.0,-0.10192824454324408,26.547083616256714,9,5.723351648351648,5,28.360964200321032,6
subject-03,1,452,0.662003993988037,car,car,90,90_car_10_n04285008_203.png,True,-0.830494483596682,1.3234509229660034,1.0,-0.4687501427273791,29.53231680393219,10,1.2975579975579974,10,41.43416340195992,10
subject-03,1,453,0.70574688911438,boat,keyboard,180,180_keyboard_10_n03085013_15576.png,False,-0.6023056445070089,2.6304473876953125,0.125,-2.760758197104604,31.337834358215332,5,0.5070207570207568,6,37.52606869426319,6
subject-03,1,454,1.08379888534546,car,car,120,120_car_10_n02814533_60400.png,True,1.3698373946388271,2.7004363536834717,0.1111111111111111,-2.925626418151039,31.1269793510437,4,0.0802960927960926,10,45.91292088309196,0
subject-03,1,455,1.00939989089966,boat,boat,120,120_boat_10_n04273569_10840.png,True,0.9817281914644307,2.1074280738830566,0.2,-3.049847446254956,30.100844383239746,9,3.5587662337662342,4,30.478504328536797,0
subject-03,1,456,0.589382886886597,clock,chair,180,180_chair_10_n02791124_2611.png,False,-1.2093291737794258,2.614217519760132,0.5,-2.4818672939067237,30.771491289138794,9,1.5426948051948048,9,36.757246428247555,6
subject-03,1,457,1.06938695907593,oven,oven,30,30_oven_10_n04111531_11225.png,True,1.294656254593308,0.0407433211803436,1.0,-0.00477444631992163,26.004787862300873,9,4.396230158730159,7,27.29717103077948,9
subject-03,1,458,0.763078927993774,bicycle,truck,180,180_truck_10_n04467665_35490.png,False,-0.3032277861085987,2.504729747772217,0.0666666666666666,-3.8148795530449204,30.91946315765381,10,1.0928571428571425,3,36.09597301146421,0
subject-03,1,459,1.36257791519165,chair,chair,60,60_chair_10_n02791124_6237.png,True,2.824113866267185,0.6972271203994751,1.0,-0.18457323542848458,28.347989082336426,10,3.5144230769230766,9,30.14573540131816,6
subject-03,1,460,0.816503047943115,dog,dog,90,90_dog_10_n02091244_2626.png,True,-0.02453594654432621,1.009538650512695,1.0,-0.2209744189675767,29.092493534088135,10,2.90515873015873,9,30.35502109305214,9
subject-03,1,461,0.954411029815674,dog,dog,60,60_dog_10_n02088094_1145.png,True,0.6948737357322254,0.8863436579704285,1.0,-0.1939289082176623,28.87454479932785,10,2.8019841269841264,9,31.35151059589931,10
subject-03,1,462,0.914364099502563,knife,oven,90,90_oven_10_n04111531_4879.png,False,0.48596523731528896,2.615419864654541,0.5,-2.4533584816032676,31.13552451133728,9,1.6442460317460315,7,35.89034649019547,6
