subject_id,Session,trial,rt,object_response,category,condition,item_id,response_correct,rt_zscore,output_entropy,output_rank_correct,output_logprob_correct,auc_entropy,layer_biggest_change_entropy,auc_rank_correct,layer_biggest_change_rank_correct,auc_logprob_correct,layer_biggest_change_logprob_correct
subject-02,1,1,1.01214194297791,elephant,elephant,10,10_elephant_10_n02504458_5379.png,True,0.6132028131998118,1.3752073049545288,0.3333333333333333,-3.288954578259507,27.447977423667908,10,1.7138888888888886,8,38.67567009667411,6
subject-02,1,2,0.820026159286499,bear,dog,15,15_dog_10_n02091244_10926.png,False,-0.1963013254748552,0.5072128176689148,0.3333333333333333,-3.757373682534003,25.624976933002472,10,1.067171717171717,9,42.11006140640041,6
subject-02,1,3,1.15009307861328,dog,dog,0,0_dog_10_n02109961_1223.png,True,1.1944773606939278,0.0263621937483549,1.0,-0.0033679034323627153,26.14021839015186,10,2.55479797979798,10,34.72711666189821,10
subject-02,1,4,0.81782603263855,car,car,3,3_car_10_n03100240_13707.png,True,-0.20557183720950745,1.7059390544891355,0.25,-1.6322335375278239,26.534265160560608,10,1.2075396825396822,9,45.048985910637676,6
subject-02,1,5,0.783656120300293,bear,bear,0,0_bear_10_n02132136_7586.png,True,-0.34955108204032304,0.0024285865947604,1.0,-0.0002177594752380163,25.530709798447788,10,3.2678571428571423,9,30.082092245153458,9
subject-02,1,6,1.15130090713501,keyboard,clock,7,7_clock_10_n03196217_3006.png,False,1.199566698843886,0.3222725093364715,1.0,-0.0602274283002158,25.216816157102585,10,9.5,3,16.43360049453157,10
subject-02,1,7,0.98501992225647,oven,truck,15,15_truck_10_n03796401_25386.png,False,0.4989207505740156,1.3068517446517944,0.1428571428571428,-5.85977679852489,26.21658682823181,10,0.2438394938394935,10,51.45977615683701,7
subject-02,1,8,1.13501811027527,car,airplane,1,1_airplane_10_n02690373_5266.png,False,1.1309570760742624,1.5535815954208374,0.5,-1.269100975964552,27.462757468223572,10,4.25,0,24.65130695482796,10
subject-02,1,9,1.1247820854187,cat,chair,10,10_chair_10_n04429376_2450.png,False,1.0878262914726187,1.5496740341186523,0.1111111111111111,-4.731469856535175,26.992207407951355,10,0.136981074481074,10,51.70905755661932,7
subject-02,1,10,0.676587104797363,bicycle,bicycle,0,0_bicycle_10_n02835271_24213.png,True,-0.8006999127509925,0.0391904488205909,1.0,-0.005622547452662168,25.194977916777134,10,3.208333333333333,9,30.14028892540502,6
subject-02,1,11,1.03438401222229,boat,elephant,10,10_elephant_10_n02504458_6107.png,False,0.7069225834344903,2.0292229652404785,0.1111111111111111,-4.038583820443659,27.834152460098267,10,0.9912698412698411,8,40.58281492196076,6
subject-02,1,12,1.3365957736969,chair,boat,15,15_boat_10_n03662601_16825.png,False,1.9803300410061064,1.8221629858016968,0.0625,-6.631795380943518,27.045049786567688,10,1.4420995670995669,1,40.34290444461567,0
subject-02,1,13,0.6200270652771,boat,boat,0,0_boat_10_n03344393_5350.png,True,-1.0390227886517014,0.2014573514461517,1.0,-0.04042150419552598,25.781840175390244,10,2.9020202020202017,10,28.346332157957058,10
subject-02,1,14,1.38189196586609,airplane,boat,3,3_boat_10_n03662601_25023.png,False,2.1711912723043114,1.5859286785125732,1.0,-0.8755019496134898,26.98148548603058,10,2.7214285714285715,10,30.0494883845042,10
subject-02,1,15,1.5000422000885,bicycle,car,15,15_car_10_n02814533_9785.png,False,2.6690322187933857,1.931299090385437,0.0769230769230769,-5.714301973883114,27.392252922058105,10,0.13388278388278338,7,53.55174671480995,6
subject-02,1,16,0.74344277381897,airplane,airplane,3,3_airplane_10_n02690373_20074.png,True,-0.5189951005436539,0.3269589245319366,0.5,-2.7601470818426646,24.67950466275215,10,6.249999999999999,0,24.1834565349553,6
subject-02,1,17,0.685302019119263,bear,bicycle,40,40_bicycle_10_n02835271_9690.png,False,-0.763978519660745,1.661607027053833,0.0833333333333333,-5.315291120501107,26.357592821121216,10,0.6974927849927849,3,43.42125094944573,7
subject-02,1,18,1.22304320335388,bird,airplane,40,40_airplane_10_n02690373_2525.png,False,1.5018619324332523,2.0248830318450928,0.25,-1.9335045068798349,26.887768387794495,10,7.0,0,20.01586330510013,5
subject-02,1,19,1.05501508712769,dog,cat,7,7_cat_10_n02124075_9149.png,False,0.7938542253866918,1.8600633144378664,0.3333333333333333,-2.317463456894174,26.615009784698486,10,2.3440476190476187,9,35.616509231240066,6
subject-02,1,20,0.582701921463013,clock,clock,1,1_clock_10_n02708093_3605.png,True,-1.1962970001379565,0.0044761756435036,1.0,-0.00042513107730489326,24.410733328200877,10,10.5,2,15.250551735359391,10
subject-02,1,21,1.50007700920105,keyboard,truck,5,5_truck_10_n04467665_69582.png,False,2.6691788913891052,2.03593111038208,0.1666666666666666,-3.2308249494888677,27.569194674491882,10,0.2664835164835161,10,46.96823816688481,7
subject-02,1,22,1.11244702339172,chair,elephant,7,7_elephant_10_n02504013_24811.png,False,1.0358509484279885,2.1784260272979736,0.25,-2.5516541251353595,27.885992288589478,10,0.9821539571539569,8,39.16323842700854,6
subject-02,1,23,0.852230072021484,bird,bird,7,7_bird_10_n01614925_1097.png,True,-0.060606068481487786,1.2296955585479736,0.125,-4.97051822388964,27.26811671257019,10,0.767460317460317,0,39.94704437980704,0
subject-02,1,24,0.695775985717773,keyboard,keyboard,3,3_keyboard_10_n04505470_3947.png,True,-0.7198451374527891,0.0043221171945333,1.0,-0.0004220899524418116,24.319430416449904,10,3.501598401598401,8,36.92626431313895,6
subject-02,1,25,0.771787881851196,car,car,5,5_car_10_n03100240_16907.png,True,-0.39955940493144926,2.0767204761505127,0.25,-2.19828185190011,27.70062255859375,10,0.4525946275946272,10,46.86417456065889,6
subject-02,1,26,1.01758503913879,bottle,bottle,3,3_bottle_10_n04591713_5364.png,True,0.6361379868996163,0.1220834553241729,1.0,-0.01974870085182957,23.70461693406105,10,4.916666666666667,10,20.038043339429635,10
subject-02,1,27,1.07379698753357,bear,oven,10,10_oven_10_n04111531_13795.png,False,0.8729941368431966,1.304408311843872,0.1666666666666666,-4.242810788830364,26.619953632354736,10,0.26650432900432885,7,59.0442822542893,6
subject-02,1,28,0.945235013961792,oven,airplane,10,10_airplane_10_n02690373_8813.png,False,0.3312820105261631,1.836522340774536,0.1428571428571428,-3.6353215477488217,26.538957476615906,10,5.309523809523808,0,24.621581680707045,5
subject-02,1,29,0.955464124679565,chair,bird,40,40_bird_10_n02018795_4730.png,False,0.3743836615300147,1.4494242668151855,0.1,-4.987272785261168,25.771141052246094,10,0.9047619047619045,2,42.12854451643405,6
subject-02,1,30,0.891122102737427,bicycle,bicycle,3,3_bicycle_10_n02835271_9440.png,True,0.10327041902559064,0.017276395112276,0.25,-9.28834401232745,25.154769767075777,10,0.8540043290043289,10,46.15351979408553,6
subject-02,1,31,1.10667490959167,truck,truck,0,0_truck_10_n04467665_19131.png,True,1.011529417316588,0.2528613209724426,1.0,-0.05452010718028667,24.604783356189728,10,1.55528638028638,10,42.839114021671065,10
subject-02,1,32,0.562603950500488,boat,boat,0,0_boat_10_n03344393_3349.png,True,-1.2809823412406964,0.0005582080921158,1.0,-4.6015844479333886e-05,25.627208303078078,10,3.826190476190476,9,25.11460162137226,10
subject-02,1,33,0.764654874801636,oven,oven,1,1_oven_10_n04111531_2715.png,True,-0.42961523177121214,0.1459807157516479,1.0,-0.021839444224441916,25.710853934288025,10,1.4416666666666667,10,56.10557459708336,10
subject-02,1,34,1.14404010772705,car,car,5,5_car_10_n02814533_82372.png,True,1.168972402748614,0.3497348427772522,0.3333333333333333,-4.505628243144569,25.730678141117096,10,0.58046953046953,10,49.407069006097686,6
subject-02,1,35,0.99776291847229,boat,clock,40,40_clock_10_n03196217_634.png,False,0.5526149758875976,1.5519979000091553,1.0,-0.6628240227787204,25.646702885627747,10,8.833333333333332,2,17.123962522833207,10
subject-02,1,36,0.733758926391602,chair,chair,1,1_chair_10_n04429376_5238.png,True,-0.5597992157502425,0.0004380398604553,1.0,-3.4392471449666516e-05,25.346573775372235,10,2.4257076257076253,9,44.288439908578525,10
subject-02,1,37,0.767786026000977,car,car,7,7_car_10_n03100240_1406.png,True,-0.4164217304045879,1.7158632278442385,0.125,-4.100524488887258,26.942721962928772,10,0.2876373626373623,7,50.22565641427021,6
subject-02,1,38,0.913273096084595,chair,clock,1,1_clock_10_n04548280_2809.png,False,0.19660642945506146,0.8075692057609558,1.0,-0.37023189820255287,26.161533772945404,10,10.5,2,17.27472509027711,10
subject-02,1,39,1.12105011940002,cat,chair,15,15_chair_10_n02791124_634.png,False,1.072101180919665,0.9677356481552124,0.0909090909090909,-6.018620973882187,26.26524019241333,10,0.10711788211788167,10,54.81368603139319,7
subject-02,1,40,1.41705298423767,dog,cat,5,5_cat_10_n02124075_13187.png,False,2.3193466676857195,2.1470589637756348,0.5,-2.428509557784482,28.361116409301758,10,2.0428571428571427,10,34.48262956922729,6
subject-02,1,41,0.66084885597229,bottle,bear,15,15_bear_10_n02132136_786.png,False,-0.8670150135438163,1.8002558946609497,0.125,-4.052953302750495,26.866819143295288,10,0.7177960927960926,0,41.36064741252461,6
subject-02,1,42,0.646771907806396,boat,boat,0,0_boat_10_n03344393_8599.png,True,-0.9263300140151149,0.0104588102549314,1.0,-0.001037838000621556,25.623957021161914,10,4.083333333333333,9,25.61369949273186,10
subject-02,1,43,1.11434602737427,bear,bear,0,0_bear_10_n02134418_5581.png,True,1.043852641749049,0.1952427327632904,1.0,-0.03802110986025399,26.388736695051193,10,2.1619047619047613,10,31.342794769636434,10
subject-02,1,44,0.876098871231079,bicycle,bicycle,1,1_bicycle_10_n02835271_20920.png,True,0.03996813408584439,0.0041804150678217,1.0,-0.00040121973721368,24.14819715777412,10,3.503968253968254,9,32.73908697745297,9
subject-02,1,45,0.981912136077881,clock,clock,1,1_clock_10_n03196217_7836.png,True,0.48582570067574854,0.0002957754768431,1.0,-2.1159872763681325e-05,23.042621033731848,10,9.5,3,13.61497778478738,10
subject-02,1,46,1.14192795753479,keyboard,airplane,40,40_airplane_10_n02690373_19134.png,False,1.160072590930532,1.5141725540161133,0.1428571428571428,-4.126975867880955,25.67218244075775,10,4.809523809523808,0,25.32444164303231,5
subject-02,1,47,1.19586396217346,chair,knife,3,3_knife_10_n03041632_13108.png,False,1.3873387641706818,0.9470031261444092,0.2,-3.50126737416965,25.813194036483765,10,1.8468975468975466,7,38.5441019457188,6
subject-02,1,48,0.823709011077881,bottle,bottle,3,3_bottle_10_n02823428_4658.png,True,-0.18078316392682836,0.6475057601928711,1.0,-0.1761712373731227,24.784928679466248,10,6.083333333333333,3,20.8853541626768,10
subject-02,1,49,0.699482917785645,boat,boat,0,0_boat_10_n04273569_12318.png,True,-0.7042255106159423,0.0023750523105263,1.0,-0.0002241981995384734,25.762334511615336,10,4.0095238095238095,9,24.67841582679395,10
subject-02,1,50,0.873231887817383,truck,truck,7,7_truck_10_n03796401_4119.png,True,0.027887737075745628,0.1824491024017334,0.25,-6.526477605572029,26.019185662269592,10,0.40977355977355945,10,49.865304657273576,7
subject-02,1,51,0.895271062850952,cat,cat,15,15_cat_10_n02124075_11888.png,True,0.12075258690665062,1.570343017578125,0.1666666666666666,-4.110970275608383,26.714508533477783,10,2.3861111111111106,9,37.6256736149089,6
subject-02,1,52,1.03085207939148,knife,chair,10,10_chair_10_n03376595_1798.png,False,0.6920403380035047,1.7538316249847412,0.0666666666666666,-6.304495769889578,26.99590313434601,10,0.09313186813186768,2,54.09946153245306,7
subject-02,1,53,0.940433979034424,bird,cat,15,15_cat_10_n02123394_5909.png,False,0.31105224299249357,1.765674114227295,0.1666666666666666,-3.73258905737514,26.74815058708191,10,1.5472222222222218,7,37.72107956545608,6
subject-02,1,54,1.31479620933533,elephant,knife,10,10_knife_10_n03041632_24384.png,False,1.888474821029276,2.1575520038604736,0.5,-1.838862170784812,27.255967497825623,10,2.940909090909091,8,34.12849833788027,6
subject-02,1,55,0.732177019119263,clock,clock,0,0_clock_10_n03196217_6160.png,True,-0.5664647820007223,0.0011704792268574,1.0,-0.00010759217164970329,23.25602337019518,10,10.5,2,13.657113005306574,10
subject-02,1,56,0.784018039703369,bottle,bottle,7,7_bottle_10_n03983396_12042.png,True,-0.34802608888761394,1.9109256267547607,0.5,-1.7406947579542575,27.015460968017578,10,2.9880952380952372,10,27.268494137757223,10
subject-02,1,57,0.695835828781128,clock,clock,7,7_clock_10_n02708093_6890.png,True,-0.719592981140975,0.0027290312573313,1.0,-0.00025436536738384806,24.09736070316285,10,9.5,3,15.601747248615613,10
subject-02,1,58,0.691659927368164,oven,bird,10,10_bird_10_n01843383_277.png,False,-0.7371886695926936,1.9561949968338013,0.1111111111111111,-4.204452811163879,27.708099126815796,10,0.8484126984126981,3,38.91431473129781,0
subject-02,1,59,0.797425985336304,chair,boat,10,10_boat_10_n03344393_4482.png,False,-0.291530015153142,2.3373613357543945,0.0769230769230769,-4.743891362103011,27.78409242630005,10,1.43525641025641,1,38.17912783140792,6
subject-02,1,60,0.887279033660889,truck,keyboard,40,40_keyboard_10_n03085013_23793.png,False,0.08707716169454707,1.2852283716201782,0.25,-3.539253275662374,25.69374454021454,10,0.889260739260739,6,44.802709796094,6
subject-02,1,61,1.24312615394592,bird,bird,5,5_bird_10_n02011460_19314.png,True,1.586483983306327,1.8641932010650637,0.1428571428571428,-3.240365238160192,27.923933506011963,10,0.7277777777777775,9,38.63601792061717,0
subject-02,1,62,0.786919116973877,keyboard,bear,15,15_bear_10_n02134418_5777.png,False,-0.3358020331022581,2.173239231109619,0.2,-2.5787874534115782,27.7034353017807,10,1.043650793650793,8,37.62818122195831,6
subject-02,1,63,1.38656306266785,knife,bear,3,3_bear_10_n02134084_20142.png,False,2.1908735291211094,1.9161756038665771,0.1666666666666666,-3.3551871600277963,27.841617107391357,10,1.282539682539682,4,35.73065829584791,6
subject-02,1,64,0.648765087127686,chair,elephant,40,40_elephant_10_n02504013_572.png,False,-0.9179315010001892,1.680577039718628,0.0625,-6.336171622561282,26.213096261024475,10,0.41164529914529907,3,47.84173520769674,7
subject-02,1,65,0.932284116744995,keyboard,oven,10,10_oven_10_n04111531_11279.png,False,0.27671176806556874,1.2496380805969238,0.25,-2.490089359079271,25.793270111083984,10,0.7045995670995671,9,55.77704078545396,6
subject-02,1,66,0.804112911224365,chair,keyboard,5,5_keyboard_10_n03085013_23319.png,False,-0.2633538076735369,0.6238852739334106,0.5,-3.3295964112189833,25.794474482536316,10,1.8587412587412584,7,40.74462506052702,6
subject-02,1,67,0.684262037277222,boat,boat,5,5_boat_10_n04273569_2037.png,True,-0.76836061460944,1.171907901763916,0.125,-7.364484622479068,25.906126022338867,10,1.4053571428571427,0,41.038711862620154,6
subject-02,1,68,1.06168222427368,chair,chair,1,1_chair_10_n04429376_19354.png,True,0.8219470505002168,0.0162975639104843,1.0,-0.00210040701661389,24.216452226042747,10,1.6337662337662333,10,47.11577692388033,10
subject-02,1,69,0.667666912078857,boat,boat,7,7_boat_10_n02951358_30909.png,True,-0.8382862723132289,1.9343066215515137,0.0625,-6.352329665503223,27.581551790237427,10,1.333333333333333,0,39.02723509178726,1
subject-02,1,70,0.687519073486328,clock,clock,7,7_clock_10_n04548280_532.png,True,-0.7546366808418762,0.9276732206344604,1.0,-0.30244030947642914,25.9108304977417,10,9.5,3,17.15191763189956,10
subject-02,1,71,1.22348403930664,elephant,elephant,0,0_elephant_10_n02504458_908.png,True,1.5037194504433755,9.659722854848952e-05,1.0,-6.2585072858318824e-06,26.381699122939608,10,5.266666666666667,6,29.692632930922258,10
subject-02,1,72,1.40755701065063,airplane,keyboard,3,3_keyboard_10_n03085013_8136.png,False,2.2793341826532476,1.5152298212051392,0.25,-2.9117043181181117,25.48137128353119,10,1.0658730158730154,5,42.67937904014406,6
subject-02,1,73,1.49894309043884,airplane,airplane,7,7_airplane_10_n02690373_2293.png,True,2.6644009813533316,2.1949539184570312,0.1,-3.830565324482881,27.78865337371826,10,5.228968253968253,0,25.222865325711567,0
subject-02,1,74,0.734554052352905,bicycle,bicycle,0,0_bicycle_10_n03792782_13281.png,True,-0.5564488520056562,0.0020763287320733,1.0,-0.00018377800598571057,25.61911112163216,10,2.886904761904762,9,31.947396622494583,10
subject-02,1,75,0.776388883590698,bear,clock,40,40_clock_10_n03196217_3903.png,False,-0.38017250251973045,1.1590819358825684,1.0,-0.34889834601792036,25.212702870368958,10,8.833333333333332,2,16.949935111106225,10
subject-02,1,76,0.976267099380493,car,car,1,1_car_10_n03100240_595.png,True,0.4620396249993949,0.0560258850455284,1.0,-0.008670257409488897,24.307224296033382,10,2.901465201465201,9,42.52729124193418,6
subject-02,1,77,0.986172914505005,cat,cat,5,5_cat_10_n02123597_5887.png,True,0.5037790291553743,1.8164349794387815,0.3333333333333333,-2.546799842480317,27.409502148628235,10,2.65,9,34.85063193195342,6
subject-02,1,78,1.3739550113678,cat,cat,3,3_cat_10_n02125311_6283.png,True,2.1377479112676228,0.4722225069999695,1.0,-0.11311703015626542,26.640466630458832,10,3.8845238095238095,8,31.481122540187993,10
subject-02,1,79,0.791790962219238,elephant,elephant,5,5_elephant_10_n02504458_3059.png,True,-0.3152738973430589,0.8990720510482788,1.0,-0.24777480280541575,26.522648453712463,10,2.7877095127095126,9,36.36166662345523,10
subject-02,1,80,0.921412944793701,chair,chair,3,3_chair_10_n04429376_57621.png,True,0.2309047108955444,0.4218359887599945,1.0,-0.1386440773192766,25.687383621931076,10,1.39041514041514,10,45.420145482316286,10
subject-02,1,81,0.776771068572998,keyboard,chair,0,0_chair_10_n03376595_6107.png,False,-0.3785621177873228,0.2812648415565491,1.0,-0.0622008752113511,25.606533348560333,10,2.419719169719169,9,44.62949089791534,10
subject-02,1,82,0.646494150161743,oven,bear,40,40_bear_10_n02132136_5815.png,False,-0.9275003809603748,1.480756402015686,0.1111111111111111,-5.046431943532396,25.98506736755371,10,0.5849317349317347,0,44.28581324460003,7
subject-02,1,83,0.578226089477539,boat,boat,3,3_boat_10_n03662601_17665.png,True,-1.2151564839691942,1.233562707901001,1.0,-0.5476926116584391,26.26825976371765,10,2.437042124542124,10,31.37185649583543,10
subject-02,1,84,0.918317079544067,clock,bear,40,40_bear_10_n02132136_25168.png,False,0.21785989133827569,1.6285934448242188,0.1111111111111111,-4.496683812051702,25.76905345916748,10,0.6940476190476188,9,44.14721236551415,7
subject-02,1,85,0.939955949783325,keyboard,keyboard,15,15_keyboard_10_n03085013_23731.png,True,0.30903800631845835,1.6106207370758057,1.0,-0.6485182783089735,26.86931610107422,10,1.9658841158841156,10,39.02381124542266,10
subject-02,1,86,0.807601928710938,car,car,0,0_car_10_n03100240_11428.png,True,-0.24865239147014018,0.0938760787248611,1.0,-0.018944362192846308,24.838772132992744,10,3.553052503052503,8,40.81393054590246,6
subject-02,1,87,0.74147891998291,airplane,airplane,1,1_airplane_10_n02690373_9328.png,True,-0.5272700469197215,0.0012349715689197,1.0,-0.00010341940628763995,24.641099654720165,10,6.083333333333334,0,22.33624485362224,9
subject-02,1,88,0.855651140213013,bear,bear,15,15_bear_10_n02134084_19849.png,True,-0.04619096522178208,2.144209861755371,0.5,-1.526186718020726,27.330636024475098,10,1.2174603174603171,10,37.73149421995799,10
subject-02,1,89,1.00123906135559,knife,knife,0,0_knife_10_n03041632_8528.png,True,0.567262143322709,0.2608012557029724,1.0,-0.04710398238438387,26.047286689281464,10,3.804040404040404,8,34.36737250939693,10
subject-02,1,90,1.23081183433533,elephant,boat,40,40_boat_10_n03344393_2915.png,False,1.5345960410550685,1.8583712577819824,0.0769230769230769,-5.0442446826580465,26.334568858146667,10,1.5935897435897435,1,37.155799374862696,5
subject-02,1,91,0.648812055587769,clock,clock,3,3_clock_10_n04548280_289.png,True,-0.9177335934566557,0.2742705941200256,1.0,-0.05353783706600793,24.04560559988022,10,9.5,3,15.382984306377994,10
subject-02,1,92,0.62865686416626,bicycle,bicycle,1,1_bicycle_10_n03792782_51466.png,True,-1.0026600401961858,0.0188462901860475,1.0,-0.002187855516730725,26.06020607240498,10,3.3428571428571425,9,31.39301072656098,10
subject-02,1,93,0.826370000839233,chair,chair,0,0_chair_10_n03376595_13927.png,True,-0.16957074720918178,0.0004686368629336,1.0,-3.4332864756681304e-05,25.271371270529926,10,2.086446886446886,9,45.418593984719564,10
subject-02,1,94,1.08826589584351,truck,keyboard,5,5_keyboard_10_n04505470_9331.png,False,0.9339607109265337,0.2544425725936889,0.5,-3.8327649017316725,24.43109953403473,10,1.8551948051948048,9,42.12668472708711,6
subject-02,1,95,0.685950994491577,keyboard,keyboard,0,0_keyboard_10_n04505470_4044.png,True,-0.7612439798967975,0.0003465456829871,1.0,-2.5689931881667644e-05,23.64640993307694,10,3.2829725829725827,9,37.27520568798107,6
subject-02,1,96,0.799978971481323,car,car,0,0_car_10_n02814533_4689.png,True,-0.2807726853249403,0.6989960074424744,1.0,-0.6245678759744467,26.653126657009125,10,3.3781135531135527,8,41.92018706913103,6
subject-02,1,97,1.14763498306274,dog,dog,7,7_dog_10_n02098105_2343.png,True,1.1841198643800586,1.1135298013687134,1.0,-0.3060587959413493,27.354737877845764,10,2.446067821067821,9,36.64357005231649,10
subject-02,1,98,1.1455819606781,bird,bird,7,7_bird_10_n02009912_11907.png,True,1.1754691950533398,1.6358531713485718,0.1,-4.396433300327241,26.268277883529663,10,0.8000360750360745,3,41.03950168069281,0
subject-02,1,99,,na,oven,5,5_oven_10_n04111531_585.png,False,,1.6104869842529297,0.3333333333333333,-1.9365323731561186,27.19731640815735,10,0.5212662337662336,10,55.206267660919366,6
subject-02,1,100,0.898943185806274,keyboard,keyboard,7,7_keyboard_10_n04505470_1120.png,True,0.1362255411477771,0.6853797435760498,1.0,-0.18686460332033464,25.506704330444336,10,2.788034188034188,9,36.9519303401656,10
subject-02,1,101,1.1689510345459,boat,clock,15,15_clock_10_n02708093_274.png,False,1.27393774172603,1.9002630710601809,1.0,-1.1316320270740972,26.819602251052856,10,8.7,10,18.632533267041474,10
subject-02,1,102,0.774729013442993,clock,clock,0,0_clock_10_n04548280_4391.png,True,-0.3871665752003385,0.0010948127601295,1.0,-8.970901412024748e-05,24.964769477257505,10,10.0,2,16.149304769003034,10
subject-02,1,103,0.770925045013428,oven,oven,1,1_oven_10_n04111531_10640.png,True,-0.4031950770129066,0.0470820069313049,1.0,-0.006764110426192799,24.85118454694748,10,1.4791666666666665,10,55.81493094806611,6
subject-02,1,104,1.0964241027832,oven,airplane,40,40_airplane_10_n02690373_4591.png,False,0.968336347092125,2.091733932495117,0.1666666666666666,-2.9154692272000977,26.85629379749298,10,5.5,0,23.28133224997737,5
subject-02,1,105,0.983958005905151,bear,bear,3,3_bear_10_n02132136_6441.png,True,0.49444623179788133,0.4742549955844879,1.0,-0.1362087356962507,26.837277561426163,10,3.602380952380952,9,30.00998466433551,10
subject-02,1,106,0.950056076049805,knife,knife,0,0_knife_10_n03041632_22570.png,True,0.3515961650327121,0.5450122356414795,0.5,-2.0599868042228486,24.655779480934143,10,2.119119769119769,7,39.3140373146164,6
subject-02,1,107,1.13367295265198,cat,bird,3,3_bird_10_n01616318_6874.png,False,1.1252890843960137,1.0676475763320925,1.0,-0.3301218627987062,27.291731476783752,10,1.5848595848595846,10,34.8384428880931,10
subject-02,1,108,1.29358291625977,oven,bicycle,15,15_bicycle_10_n03792782_13051.png,False,1.799089929222741,2.1944072246551514,0.0714285714285714,-5.550863531112563,27.51616132259369,10,0.6508408258408257,3,43.053692775534124,6
subject-02,1,109,0.867329835891724,keyboard,truck,7,7_truck_10_n03796401_7527.png,False,0.003018695247469199,1.6438169479370115,0.2,-3.224091513813943,27.171248197555542,10,0.35661005661005635,10,47.7272964192977,5
subject-02,1,110,0.927175045013428,truck,boat,15,15_boat_10_n04273569_103.png,False,0.2551840485205027,2.2707245349884033,0.0714285714285714,-4.758361294826588,27.447404503822327,10,1.5962301587301586,1,35.98062983069591,5
subject-02,1,111,0.741323947906494,bear,bird,1,1_bird_10_n01819313_18188.png,False,-0.5279230413526999,0.2206742912530899,1.0,-0.035751486686642395,26.332438483834267,10,1.8095238095238093,10,33.80917967186999,10
subject-02,1,112,0.96092700958252,dog,dog,1,1_dog_10_n02091635_5740.png,True,0.39740221759591654,0.7637834548950195,1.0,-0.23944417763344603,26.83563220500946,10,2.3865440115440113,9,36.4420761352421,10
subject-02,1,113,0.68454384803772,cat,cat,0,0_cat_10_n02125311_35785.png,True,-0.7671731693482399,0.0005389933940023,1.0,-4.5837022332643915e-05,26.167854834115133,10,5.3579365079365076,6,28.312781303568855,10
subject-02,1,114,0.704661130905151,oven,oven,15,15_oven_10_n04111531_8793.png,True,-0.6824064550930877,0.7991082668304443,0.2,-4.235192898353346,24.850780248641968,10,0.4113095238095236,7,60.240081691848786,6
subject-02,1,115,1.00619292259216,chair,clock,5,5_clock_10_n03196217_2530.png,False,0.5881358638279688,0.5063900947570801,1.0,-0.1138924848065585,24.20722210407257,10,9.5,3,14.625336977738243,10
subject-02,1,116,0.970148086547852,dog,dog,7,7_dog_10_n02090721_7040.png,True,0.43625639096495056,2.295593500137329,0.1666666666666666,-2.320118610174561,28.431809663772583,10,0.9926046176046174,9,38.73509788223827,6
subject-02,1,117,1.09206795692444,car,car,7,7_car_10_n02814533_44503.png,True,0.9499811758845322,1.7290003299713137,0.1666666666666666,-2.966297678323641,26.462453365325928,10,0.35152625152625094,7,49.389649727557,6
subject-02,1,118,0.947762966156006,boat,truck,7,7_truck_10_n03417042_17545.png,False,0.341933856638271,2.1780049800872803,0.0909090909090909,-3.9696898867287382,28.101810216903687,10,0.20720945720945688,1,48.03529068919123,7
subject-02,1,119,0.91956901550293,bicycle,airplane,10,10_airplane_10_n02690373_8543.png,False,0.22313508174992389,1.443507432937622,0.1111111111111111,-5.069807267723934,26.39182949066162,10,4.894444444444445,0,25.959706165106592,0
subject-02,1,120,0.525389194488525,keyboard,keyboard,7,7_keyboard_10_n04505470_578.png,True,-1.437791419769307,0.0111810527741909,1.0,-0.001216853633520606,24.861683066934347,10,3.001598401598401,9,35.55563681325042,10
subject-02,1,121,0.711309909820557,cat,cat,3,3_cat_10_n02125311_37322.png,True,-0.6543909847046722,0.4388598203659057,1.0,-0.08811169865486042,26.458831667900085,10,3.9357142857142855,8,32.69257099320457,10
subject-02,1,122,0.691045045852661,airplane,cat,7,7_cat_10_n02123159_587.png,False,-0.7397795505813879,2.365006923675537,0.25,-2.087156048969728,28.121079444885254,10,2.4595238095238097,9,34.57620144598795,6
subject-02,1,123,0.786700010299683,bottle,bottle,0,0_bottle_10_n02823428_14536.png,True,-0.33672526676980613,0.0023087898734956,1.0,-0.00021066500294983665,23.481680397177115,10,8.25,1,17.682767018340762,10
subject-02,1,124,0.940627098083496,oven,cat,40,40_cat_10_n02123045_2029.png,False,0.31186597451666526,1.5817131996154783,0.1428571428571428,-4.230549532765678,26.242430567741394,10,1.6123015873015871,7,38.79156831762615,6
subject-02,1,125,0.718424081802368,chair,chair,7,7_chair_10_n03376595_11572.png,True,-0.6244145218036862,0.2967778742313385,0.0909090909090909,-7.625154080984065,24.889387756586075,10,0.10487429237429187,10,56.06773519610404,7
subject-02,1,126,0.808385133743286,bear,clock,15,15_clock_10_n04548280_8892.png,False,-0.2453522580665522,1.542370080947876,1.0,-0.8501380876313488,26.201241850852966,10,9.0,3,17.26835205873243,10
subject-02,1,127,0.664166927337646,bottle,bottle,1,1_bottle_10_n04557648_12301.png,True,-0.8530339004303409,0.1287300735712051,1.0,-0.020914182440131986,25.79064930975437,10,5.394444444444444,10,21.042347875817757,10
subject-02,1,128,0.948019027709961,dog,dog,1,1_dog_10_n02102480_7293.png,True,0.3430128043629153,0.0260146670043468,1.0,-0.0028803664089959873,25.444567184895277,10,2.3916666666666666,9,37.02341757135185,6
subject-02,1,129,0.811918973922729,oven,boat,15,15_boat_10_n04612504_13309.png,False,-0.23046197578100644,1.434625506401062,0.0714285714285714,-7.798121768173007,26.37292242050171,10,1.4839285714285713,1,41.04926120449703,0
subject-02,1,130,1.04934406280518,clock,dog,15,15_dog_10_n02107312_5733.png,False,0.7699586475669618,1.8798599243164065,0.3333333333333333,-1.6263998066929435,26.954191207885742,10,1.1016955266955264,9,39.73101152302544,6
subject-02,1,131,1.50017499923706,bear,bear,5,5_bear_10_n02132136_9815.png,True,2.669591784792109,1.8924148082733152,0.1,-4.505050224864676,27.620008945465088,10,0.8722222222222218,4,39.466120433935444,6
subject-02,1,132,0.853350877761841,chair,chair,0,0_chair_10_n04429376_8237.png,True,-0.05588341182082175,0.6798904538154602,1.0,-0.39363773432297583,26.146950900554657,10,1.7718614718614716,10,43.913210616531096,10
subject-02,1,133,0.871075868606567,bear,bear,0,0_bear_10_n02134084_7790.png,True,0.018803077602783966,0.0002569234347902,1.0,-1.8239187634130024e-05,25.90652289747959,10,3.276190476190476,9,28.52489265249194,9
subject-02,1,134,0.874807834625244,chair,chair,1,1_chair_10_n02791124_66.png,True,0.03452818815572444,0.0005082082934677,1.0,-3.957826734003845e-05,25.905107517261058,10,2.0928571428571425,9,44.634177737893836,10
subject-02,1,135,1.02645492553711,airplane,airplane,10,10_airplane_10_n02690373_2580.png,True,0.6735123744228589,0.9868122935295104,0.1428571428571428,-6.076735161117337,25.586678683757782,10,5.809523809523808,0,25.463385294910513,5
subject-02,1,136,0.968270063400269,truck,truck,1,1_truck_10_n03417042_820.png,True,0.42834310304407247,0.0272226687520742,1.0,-0.0033634778184403486,24.56645897589624,10,2.502197802197802,9,41.93896128040686,10
subject-02,1,137,0.818140983581543,keyboard,keyboard,10,10_keyboard_10_n04505470_3132.png,True,-0.20424475160033229,0.5035769939422607,1.0,-0.15717433098969907,24.913545608520508,10,2.7051948051948047,9,38.17853456408898,10
subject-02,1,138,1.26199984550476,clock,chair,10,10_chair_10_n04429376_10341.png,False,1.666010668388544,1.9502882957458496,0.1,-4.67525792978753,27.456119298934937,10,0.1251373626373622,10,51.77113629308966,7
subject-02,1,139,1.37404012680054,knife,bicycle,40,40_bicycle_10_n03792782_17666.png,False,2.138106555902354,2.1373190879821777,0.0833333333333333,-4.318862967629035,27.367514610290527,10,0.8575757575757574,3,39.73463095989561,6
subject-02,1,140,0.807633876800537,boat,boat,1,1_boat_10_n02951358_2445.png,True,-0.24851777415626744,0.0006237606285139,1.0,-4.690995569299961e-05,25.511366067337804,10,3.3066849816849815,9,28.019289324981923,9
subject-02,1,141,0.703801870346069,chair,chair,5,5_chair_10_n02791124_3731.png,True,-0.6860270580722478,0.2786148488521576,0.1666666666666666,-7.6342926097417925,25.11709627509117,10,0.27312826062826023,10,54.640084303486006,7
subject-02,1,142,0.871389865875244,knife,knife,7,7_knife_10_n03041632_2058.png,True,0.020126144784681114,0.8147872686386108,1.0,-0.34611827222223596,25.882439494132996,10,3.607575757575758,10,31.486787560987775,10
subject-02,1,143,0.861235857009888,bicycle,elephant,40,40_elephant_10_n02504458_2419.png,False,-0.02265905507088093,2.036032199859619,0.1,-4.554701870444407,26.94254970550537,10,0.581324231324231,3,44.44881966946113,6
subject-02,1,144,1.17105388641357,bottle,truck,40,40_truck_10_n03417042_10038.png,False,1.2827983738781126,1.4444148540496826,0.0769230769230769,-5.6127612931138575,25.466577768325806,10,0.16123876123876088,1,52.40275604192384,7
subject-02,1,145,0.73674488067627,boat,chair,3,3_chair_10_n03376595_5112.png,False,-0.5472175199369789,0.2425178289413452,1.0,-0.04045042611664376,25.65818953514099,10,1.3027930402930399,10,47.46858978051185,10
subject-02,1,146,0.738384008407593,bear,bear,1,1_bear_10_n02134418_2231.png,True,-0.5403108480497084,0.0400229319930076,1.0,-0.005923435181635389,25.85235794633627,10,3.154761904761904,9,31.614215537339362,10
subject-02,1,147,1.07249402999878,cat,cat,10,10_cat_10_n02123597_19450.png,True,0.8675039605720782,0.9069153070449828,0.25,-3.95952608064551,25.90685486793518,10,1.9333333333333331,9,37.1358293028663,6
subject-02,1,148,1.11826395988464,dog,airplane,40,40_airplane_10_n02690373_5961.png,False,1.0603613456215375,1.9351768493652344,0.25,-2.6270493288206205,26.500210165977478,10,6.166666666666666,0,22.326917972008374,5
subject-02,1,149,0.905857086181641,chair,chair,3,3_chair_10_n02791124_14040.png,True,0.16535813431999616,1.3236205577850342,0.3333333333333333,-2.1638766810418266,25.806577563285828,10,0.5337454212454208,10,49.396993544598,7
subject-02,1,150,1.07593202590942,elephant,bottle,40,40_bottle_10_n04560804_3392.png,False,0.8819903909159801,1.3071799278259275,0.3333333333333333,-2.0546583573914954,25.568628787994385,10,3.033333333333333,10,25.36863040270261,10
subject-02,1,151,1.39977288246155,chair,bird,15,15_bird_10_n02056570_9572.png,False,2.2465347745881825,1.4980661869049072,0.125,-3.6769198205231217,26.722444653511047,10,1.1067460317460314,3,38.13974549165298,6
subject-02,1,152,0.74530816078186,cat,cat,5,5_cat_10_n02123394_4164.png,True,-0.5111350567842364,1.599076509475708,0.2,-2.9959077352183865,27.015891313552856,10,2.269047619047619,9,36.84393008664356,6
subject-02,1,153,0.861192941665649,bird,bird,7,7_bird_10_n01601694_10927.png,True,-0.02283988429847822,2.057964324951172,0.1666666666666666,-2.9953792379627413,28.084085702896118,10,0.936507936507936,10,36.362685271586095,0
subject-02,1,154,0.894963979721069,boat,car,40,40_car_10_n03100240_5018.png,False,0.11945865332253251,1.3560364246368408,0.1428571428571428,-4.373230520788764,25.45137667655945,10,0.4133699633699628,7,51.60435498124319,6
subject-02,1,155,1.01886391639709,cat,cat,1,1_cat_10_n02124075_8884.png,True,0.6415266978819151,0.0029987678863108,1.0,-0.0002752921389766803,24.625062285456806,10,4.9869047619047615,7,28.602646100613615,9
subject-02,1,156,0.70303201675415,oven,car,40,40_car_10_n04285008_12868.png,False,-0.689270933493921,1.762237548828125,0.1428571428571428,-3.711840727066687,26.177391529083252,10,0.5721001221001216,9,48.93766763757192,6
subject-02,1,157,1.05038118362427,cat,elephant,15,15_elephant_10_n02504458_6050.png,False,0.7743286872338097,1.0311375856399536,0.0833333333333333,-6.524986071732743,26.194925546646118,10,0.6817571317571314,8,45.19577310530935,6
subject-02,1,158,0.806503057479858,keyboard,keyboard,3,3_keyboard_10_n04505470_3615.png,True,-0.2532826243033711,0.8501554727554321,0.5,-0.8755415768825496,24.848376512527466,10,2.5659090909090905,9,37.8029659086067,6
subject-02,1,159,0.748225927352905,clock,dog,15,15_dog_10_n02108915_1114.png,False,-0.49884067852148284,1.6329851150512695,0.5,-2.343222926741463,26.871349453926086,10,1.0334415584415582,10,40.159901998484216,6
subject-02,1,160,0.727837800979614,knife,knife,1,1_knife_10_n03041632_45338.png,True,-0.5847486261241195,0.4016397893428802,1.0,-0.08087272883287207,25.202600568532944,10,2.6095959595959597,10,34.36222272309637,10
subject-02,1,161,0.815737962722778,chair,chair,3,3_chair_10_n04429376_16952.png,True,-0.21437018373877856,0.441689670085907,1.0,-0.11625480097123057,24.6955024600029,10,1.2822802197802194,10,46.02022699878862,10
subject-02,1,162,0.507582902908325,oven,oven,3,3_oven_10_n04111531_1002.png,True,-1.5128204801185225,0.0828649476170539,1.0,-0.010793432659835534,26.101002044975758,10,1.1719988344988344,10,53.64044245768978,10
subject-02,1,163,0.949239015579224,elephant,elephant,1,1_elephant_10_n02504458_900.png,True,0.3481533774606861,0.0003838570555672,1.0,-2.8133788085289054e-05,24.307751539512537,9,4.006818181818182,8,30.623572082689254,9
subject-02,1,164,0.719247817993164,keyboard,keyboard,0,0_keyboard_10_n04505470_4599.png,True,-0.620943605240701,0.008206233382225,1.0,-0.0008593316555656287,24.575639709830284,10,3.1697802197802196,9,35.47774645785716,9
subject-02,1,165,1.2911970615387,dog,dog,1,1_dog_10_n02086646_2810.png,True,1.7890368287753309,0.2677376866340637,1.0,-0.046689329865431714,25.323995888233185,10,2.651262626262626,9,36.340618732189476,10
subject-02,1,166,1.38298988342285,elephant,bicycle,7,7_bicycle_10_n02835271_12608.png,False,2.175817486710247,1.5717763900756836,0.2,-3.4736352510027637,27.24531579017639,10,0.934199134199134,10,38.35320573747146,6
subject-02,1,167,0.712624073028564,keyboard,keyboard,1,1_keyboard_10_n03085013_20914.png,True,-0.6488535919130187,1.4063642024993896,0.5,-1.064637259085917,25.432822465896606,10,2.492099567099567,9,39.374225876682736,6
subject-02,1,168,0.866492986679077,bear,bird,10,10_bird_10_n01860187_27046.png,False,-0.0005074746906159646,1.6571099758148191,0.0833333333333333,-5.8622620186049135,27.108288526535034,10,0.755555555555555,0,42.467546536715986,0
subject-02,1,169,1.37824392318726,clock,dog,40,40_dog_10_n02088364_11910.png,False,2.155819783352013,1.253065824508667,0.0833333333333333,-6.1229829002584255,25.267081141471863,10,0.392171717171717,7,48.60685398195223,7
subject-02,1,170,0.766140937805176,truck,truck,0,0_truck_10_n03417042_4557.png,True,-0.4233535174623594,0.0080157127231359,1.0,-0.00081071328959547,25.70496960543096,10,2.324517149517149,9,41.74324031087235,10
subject-02,1,171,0.869947910308838,keyboard,keyboard,5,5_keyboard_10_n03085013_15295.png,True,0.014050282737523146,1.5685985088348389,0.3333333333333333,-1.4465364129325562,26.372064352035522,10,1.6920745920745917,7,39.33467433591081,6
subject-02,1,172,1.30562901496887,bird,bird,1,1_bird_10_n02051845_1935.png,True,1.8498476888015338,0.0681304931640625,1.0,-0.009122610020584327,25.154008507728577,10,1.93531746031746,10,36.39321596974738,10
subject-02,1,173,0.59765100479126,oven,oven,3,3_oven_10_n04111531_5171.png,True,-1.1333071479192216,1.9453016519546509,1.0,-1.1234004341857877,27.322930574417114,10,1.1950757575757576,10,55.78931217274935,6
subject-02,1,174,0.961429119110107,elephant,elephant,7,7_elephant_10_n02504013_8052.png,True,0.39951791955876276,1.0350369215011597,1.0,-0.2861837016533555,26.985052943229675,10,2.0773559773559773,10,35.691035495218365,10
subject-02,1,175,0.878955125808716,bicycle,truck,40,40_truck_10_n03417042_21758.png,False,0.05200332378904746,1.7254762649536133,0.0625,-6.035920688089836,26.44684588909149,10,0.14681568431568398,1,51.849372125474865,7
subject-02,1,176,0.861001968383789,oven,airplane,40,40_airplane_10_n02690373_3561.png,False,-0.023644574361270182,1.585219144821167,0.2,-3.7104742098424572,25.79945707321167,10,5.033333333333333,0,24.099375254408912,5
subject-02,1,177,1.08472204208374,chair,chair,3,3_chair_10_n04429376_18863.png,True,0.9190282351545292,1.8341939449310305,0.5,-1.6900741082715767,27.16037607192993,10,0.5484640359640356,10,48.47890445352319,10
subject-02,1,178,1.23475503921509,airplane,airplane,3,3_airplane_10_n02690373_10462.png,True,1.5512112332504948,0.2594518661499023,0.5,-3.1677998074258493,25.330058813095093,10,5.208333333333332,0,26.70835594429201,8
subject-02,1,179,1.08233499526978,bird,bird,1,1_bird_10_n01860187_348.png,True,0.9089701116730426,0.7677500247955322,1.0,-0.20903762147633434,26.27271854877472,10,1.6388888888888886,10,35.76430972134078,10
subject-02,1,180,1.12006402015686,boat,boat,0,0_boat_10_n03662601_1947.png,True,1.0679461271122994,0.6806546449661255,0.25,-3.790666979072698,25.966605067253113,10,1.4964285714285714,10,35.09027633659592,6
subject-02,1,181,1.20984506607056,bicycle,bottle,40,40_bottle_10_n03937543_1391.png,False,1.4462499127003745,1.920486569404602,0.3333333333333333,-2.1965937792098638,26.404653072357178,10,3.0761904761904764,2,25.688924135653725,10
subject-02,1,182,1.09392309188843,oven,knife,15,15_knife_10_n03041632_45264.png,False,0.9577980215506963,1.526521921157837,0.3333333333333333,-1.877907168689439,26.138112783432007,10,3.6631313131313132,8,34.07108236253007,6
subject-02,1,183,1.05983185768127,bird,bird,1,1_bird_10_n02033041_11415.png,True,0.8141502969704426,0.0077852439135313,1.0,-0.000749690146206416,25.984421892091632,10,2.462276612276612,9,34.151073757251446,10
subject-02,1,184,1.12545585632324,car,truck,3,3_truck_10_n03417042_5508.png,False,1.09066531034584,0.1491628587245941,1.0,-0.024201690677086225,25.148219794034958,10,1.6318986568986567,10,42.35837825063675,10
subject-02,1,185,1.30116605758667,bird,elephant,7,7_elephant_10_n02504458_716.png,False,1.8310424537385848,2.0630927085876465,0.125,-3.3570566300650277,28.012048482894897,10,0.9253357753357752,8,39.59718698180413,6
subject-02,1,186,1.10307788848877,keyboard,elephant,40,40_elephant_10_n02504013_7143.png,False,0.996372914223772,1.870899677276611,0.1,-4.84297476651146,26.31347143650055,10,0.5349567099567097,3,45.64516653234504,7
subject-02,1,187,1.34088802337646,bird,bicycle,3,3_bicycle_10_n03792782_210.png,False,1.9984159775859445,2.189924716949463,1.0,-1.2976929538946962,27.971016883850098,10,2.4103535353535355,10,35.08389566873218,10
subject-02,1,188,0.92273998260498,oven,car,15,15_car_10_n02814533_58708.png,False,0.2364963524554784,1.3251270055770874,0.0666666666666666,-7.2340456877433255,26.429332971572876,10,0.11634615384615328,7,56.240502569219395,6
subject-02,1,189,1.1363890171051,cat,cat,10,10_cat_10_n02123045_5747.png,True,1.1367335652890542,2.16703462600708,0.5,-1.7136916791829147,27.69307231903076,10,2.7119047619047616,9,35.647017556497865,6
subject-02,1,190,0.834711074829102,airplane,airplane,0,0_airplane_10_n02690373_1051.png,True,-0.1344245776126413,0.0002026080910582,1.0,-1.4364822564327746e-05,24.4939343452279,10,6.333333333333334,0,19.954789530633988,9
subject-02,1,191,0.926392078399658,bird,bird,0,0_bird_10_n01514859_12705.png,True,0.25188491972373,0.0036351415328681,1.0,-0.00033086050680492196,25.913608762901276,10,1.8412698412698412,10,34.29779288887591,10
subject-02,1,192,1.44597315788269,dog,chair,15,15_chair_10_n04429376_16192.png,False,2.441205474947688,1.2669179439544678,0.0909090909090909,-5.70637959999052,26.155375361442566,10,0.12154095904095857,10,53.59364418463175,7
subject-02,1,193,1.20170402526855,truck,airplane,7,7_airplane_10_n02690373_2923.png,False,1.4119466082257561,2.2999107837677,0.3333333333333333,-1.7070407138392074,27.50423800945282,10,6.916666666666665,0,22.120212860546708,10
subject-02,1,194,0.8558189868927,dog,dog,1,1_dog_10_n02097047_2376.png,True,-0.04548372202052783,0.0556135922670364,1.0,-0.0074071354994336,25.41476459801197,10,2.2123737373737375,10,35.173131033697196,10
subject-02,1,195,1.50010418891907,knife,dog,40,40_dog_10_n02100583_14082.png,False,2.669293416566592,1.5740206241607666,0.0714285714285714,-5.306848360909909,25.87834393978119,10,0.33654401154401137,7,47.94493593278646,7
subject-02,1,196,0.805305957794189,clock,clock,7,7_clock_10_n03196217_1272.png,True,-0.25832675514642417,1.2203290462493896,1.0,-0.5090551062319836,25.996193289756775,10,9.583333333333332,3,16.670952720899777,10
subject-02,1,197,0.661233186721802,oven,airplane,40,40_airplane_10_n02690373_1279.png,False,-0.8653955873500289,1.95119047164917,0.25,-2.59680532681728,26.657627940177917,10,5.533333333333333,0,22.970410017764202,5
subject-02,1,198,0.727088928222656,chair,dog,15,15_dog_10_n02093859_3707.png,False,-0.5879040961456351,2.001567840576172,0.125,-3.2925340487379318,27.08858036994934,10,0.6159451659451657,7,42.705172827793916,6
subject-02,1,199,0.660847902297974,clock,clock,0,0_clock_10_n04548280_2169.png,True,-0.8670190319710946,7.52059422666207e-05,1.0,-5.126012588774698e-06,24.437092527528876,10,10.75,2,15.03959205499334,10
subject-02,1,200,1.03648805618286,keyboard,bird,15,15_bird_10_n01843383_2843.png,False,0.7157882386206913,0.5118388533592224,0.1,-6.643265022133057,25.688203036785126,10,0.9761904761904759,3,41.167652815089184,0
subject-02,1,201,0.868301153182983,clock,oven,15,15_oven_10_n04111531_8269.png,False,0.007111463432010464,0.3476744592189789,0.3333333333333333,-3.6584334849084614,24.79786905646324,10,0.6072802197802196,10,58.8876364410345,6
subject-02,1,202,1.06794595718384,airplane,bear,10,10_bear_10_n02134084_27899.png,False,0.8483400808743982,2.1802589893341064,1.0,-1.3306579837288115,27.236769318580627,10,1.6896825396825395,10,37.33056184062791,10
subject-02,1,203,0.815804004669189,clock,clock,0,0_clock_10_n03196217_484.png,True,-0.21409190764964825,0.0020611251238733,1.0,-0.0001812145384799021,24.06217121728696,10,10.0,3,15.074364728712542,10
subject-02,1,204,0.797751903533936,oven,bottle,40,40_bottle_10_n04591713_2537.png,False,-0.290156717630247,1.887871265411377,0.3333333333333333,-1.733645374221805,26.318471312522888,10,3.1666666666666665,10,25.283848478704353,10
subject-02,1,205,0.911311149597168,car,car,7,7_car_10_n03100240_1216.png,True,0.18833951993355413,1.3579936027526855,0.1428571428571428,-4.641086897426563,27.444178223609924,10,0.24640359640359596,10,49.971840193139315,6
subject-02,1,206,0.843109846115112,knife,knife,1,1_knife_10_n03041632_33326.png,True,-0.09903529316567587,0.0107098519802093,1.0,-0.001142438910207926,25.290257900953293,10,2.911976911976912,9,34.23553001368332,10
subject-02,1,207,0.931063890457153,clock,keyboard,10,10_keyboard_10_n03085013_2432.png,False,0.271570190360978,1.028663992881775,1.0,-0.6728072227015377,25.71118175983429,10,2.6559274059274056,9,38.432763556135875,10
subject-02,1,208,0.763203144073486,oven,clock,10,10_clock_10_n03196217_8526.png,False,-0.435732282697992,1.207543134689331,0.5,-1.2291391525857713,25.78968620300293,10,8.5,2,17.872000095312753,10
subject-02,1,209,0.759171009063721,bottle,bottle,1,1_bottle_10_n04560804_22426.png,True,-0.4527221932372669,0.8204933404922485,1.0,-0.3898956336926067,25.848028779029846,10,4.944444444444444,10,23.668973967004465,10
subject-02,1,210,0.84288501739502,oven,airplane,10,10_airplane_10_n02690373_5427.png,False,-0.09998263739690125,1.5569158792495728,0.1,-5.511068414665937,26.61104905605316,10,5.55,0,25.424754834317625,5
subject-02,1,211,0.790455102920532,chair,chair,1,1_chair_10_n03376595_6942.png,True,-0.32090270935533216,0.4368643164634704,1.0,-0.08173384407842399,24.574742019176483,10,1.1782106782106776,10,46.630536583706146,10
subject-02,1,212,0.646239995956421,clock,clock,1,1_clock_10_n04548280_9700.png,True,-0.9285712918304584,0.0006432046648114,1.0,-5.376483489023546e-05,23.659997056936845,10,10.5,2,14.832790629031036,10
subject-02,1,213,0.754197120666504,airplane,airplane,7,7_airplane_10_n02690373_2564.png,True,-0.47368030071541417,0.0656865835189819,1.0,-0.010553238906001456,25.44745635986328,10,7.283333333333333,0,20.566914185319348,10
subject-02,1,214,0.967713117599487,bicycle,bicycle,1,1_bicycle_10_n03792782_22416.png,True,0.4259963415126269,0.0073655126616358,1.0,-0.0007664517530602262,24.243030595593154,10,4.056349206349206,8,31.043720610014546,6
subject-02,1,215,0.971801042556763,bear,cat,15,15_cat_10_n02123597_11940.png,False,0.4432213300477796,1.4760712385177612,1.0,-0.5300139457010397,26.494821786880493,10,3.1777777777777776,9,33.18459271813521,10
subject-02,1,216,0.983464002609253,elephant,elephant,10,10_elephant_10_n02504458_5197.png,True,0.4923646864669121,1.769658088684082,0.125,-3.989656762191384,27.396093130111694,10,0.7805666555666553,3,41.3902886373845,6
subject-02,1,217,0.869235992431641,oven,bottle,15,15_bottle_10_n03937543_2333.png,False,0.011050526773103366,0.5818808078765869,0.25,-3.468177127368954,25.163235425949097,10,3.083333333333333,4,26.69646167770921,3
subject-02,1,218,1.02292919158936,elephant,elephant,10,10_elephant_10_n02504458_11265.png,True,0.6586562487692065,2.187012195587158,0.1428571428571428,-2.955843073646826,27.60045611858368,10,0.7377095127095125,3,41.00233051728315,6
subject-02,1,219,1.05917596817017,clock,bicycle,40,40_bicycle_10_n03792782_1868.png,False,0.8113866236087497,1.7492879629135132,0.0909090909090909,-4.822773146033429,26.0065758228302,10,0.7254689754689753,3,43.60888241769936,7
subject-02,1,220,1.09318590164185,car,car,0,0_car_10_n03100240_1696.png,True,0.9546917772633675,0.0427300445735454,1.0,-0.006872072775583479,25.522620152682066,10,3.5217032967032966,8,40.591451861149245,6
subject-02,1,221,1.03250002861023,truck,truck,5,5_truck_10_n03417042_12128.png,True,0.6989841803431149,1.0462239980697632,0.25,-3.6332507020145597,26.36362326145172,10,0.5267399267399265,10,46.315234463573674,7
subject-02,1,222,0.83237099647522,bottle,bottle,5,5_bottle_10_n02823428_4694.png,True,-0.14428479355061588,0.4811623990535736,1.0,-0.11123697758783524,25.545140594244003,10,5.2,9,22.418779127607337,10
subject-02,1,223,0.788141012191772,knife,knife,0,0_knife_10_n03041632_32337.png,True,-0.33065342314993035,0.8019871711730957,1.0,-0.5080104493384547,26.498565196990967,10,3.6207070707070708,9,32.9877917660312,10
subject-02,1,224,1.50006008148193,bottle,knife,5,5_knife_10_n03041632_1661.png,False,2.669107564304872,0.9003137350082397,0.1666666666666666,-4.84456257493805,26.141099095344543,10,1.7568181818181814,7,39.08007360052232,6
subject-02,1,225,0.499758005142212,clock,clock,7,7_clock_10_n03196217_4309.png,True,-1.54579167594983,0.0239133667200803,1.0,-0.0029238249236811713,24.46265040151775,10,9.0,3,15.809491083436903,10
subject-02,1,226,0.761650085449219,car,car,1,1_car_10_n02814533_48541.png,True,-0.4422762915232531,0.3043484687805176,1.0,-0.08346011652087239,24.341650009155273,10,2.791208791208791,9,42.060776940546,6
subject-02,1,227,1.28130388259888,knife,dog,10,10_dog_10_n02088364_7448.png,False,1.7473506687808078,1.5007222890853882,0.125,-4.170005543157934,26.52598547935486,10,0.5628066378066378,8,43.56200281171875,6
subject-02,1,228,0.99725604057312,knife,truck,10,10_truck_10_n03796401_180.png,False,0.5504791817883478,1.3243067264556885,0.2,-3.8934806126327723,26.066970348358154,10,0.3213786213786211,10,49.928787979867344,6
subject-02,1,229,1.05486011505127,oven,cat,15,15_cat_10_n02123159_737.png,False,0.7932012309536965,1.4937303066253662,0.2,-3.8247933725983074,26.561859488487244,10,1.8956349206349203,9,36.955609268460336,6
subject-02,1,230,0.916959047317505,bird,cat,3,3_cat_10_n02124075_7692.png,False,0.21213765089174694,1.5104726552963257,0.3333333333333333,-1.8029071830180394,26.814148902893066,10,3.017857142857143,9,32.620502511075294,6
subject-02,1,231,0.984774827957153,car,truck,7,7_truck_10_n04467665_9521.png,False,0.4978880147630874,1.2438440322875977,0.0666666666666666,-5.600013394160394,26.149357199668884,10,0.16007326007325967,1,50.65906881058582,7
subject-02,1,232,0.988388061523438,cat,bicycle,10,10_bicycle_10_n03792782_7108.png,False,0.5131128311196873,2.0339059829711914,0.0909090909090909,-5.228293218454541,27.59834372997284,10,0.7307359307359308,3,41.773135591311316,6
subject-02,1,233,1.10836219787598,chair,cat,15,15_cat_10_n02123159_7629.png,False,1.0186390197815274,2.018019437789917,1.0,-1.242385104670753,27.438120484352112,10,3.194444444444444,9,33.92364598948161,6
subject-02,1,234,1.14428901672363,dog,knife,15,15_knife_10_n03041632_52848.png,False,1.1700212122686506,1.551409125328064,0.3333333333333333,-2.5537020748381165,26.70429491996765,10,2.457575757575758,6,34.123504561724104,6
subject-02,1,235,0.905829906463623,boat,oven,40,40_oven_10_n04111531_5727.png,False,0.16524360914251854,1.8287010192871096,0.1111111111111111,-4.302867580197896,26.42056632041931,10,0.1047008547008546,10,64.96657496440157,7
subject-02,1,236,0.667608022689819,boat,boat,3,3_boat_10_n02951358_406.png,True,-0.8385344101977603,0.8007893562316895,1.0,-0.27872116600413865,26.821497201919556,10,2.3456099456099455,10,30.777562243882766,10
subject-02,1,237,1.00165104866028,oven,oven,10,10_oven_10_n04111531_11634.png,True,0.5689981039076227,1.6563353538513184,0.1666666666666666,-3.535413414675592,26.641722559928894,10,0.2795995670995669,8,58.88423528371759,6
subject-02,1,238,0.949292898178101,bear,car,40,40_car_10_n02814533_7984.png,False,0.34838041860199903,1.8334656953811648,0.0833333333333333,-5.049876552436589,26.34246325492859,10,0.240390165390165,7,51.705689142644296,6
subject-02,1,239,0.850992918014526,bicycle,clock,40,40_clock_10_n02708093_7810.png,False,-0.06581897327029525,1.4859033823013306,1.0,-0.7538108106519082,25.817173838615417,10,9.5,2,17.035013389087727,10
subject-02,1,240,0.981275081634521,elephant,elephant,3,3_elephant_10_n02504013_10330.png,True,0.48314139125279504,0.0050329160876572,1.0,-0.0004933501126725589,24.92881788732484,10,3.768265068265068,8,31.74429514351416,6
subject-02,1,241,0.982163190841675,car,knife,15,15_knife_10_n03041632_40530.png,False,0.486883551657174,1.47528874874115,0.3333333333333333,-1.787801012585936,26.314698100090027,10,3.610353535353535,8,33.95371690213816,6
subject-02,1,242,0.956063032150269,truck,truck,0,0_truck_10_n04467665_71305.png,True,0.3769072338617749,0.135428711771965,1.0,-0.030204385241135823,24.814606711268425,10,1.548301698301698,10,43.458590808877766,10
subject-02,1,243,1.18402504920959,bicycle,bicycle,0,0_bicycle_10_n03792782_6546.png,True,1.3374540079184016,0.1380333751440048,1.0,-0.021288750953368393,25.878543838858604,10,2.927020202020202,9,31.716246757137576,10
subject-02,1,244,0.68784499168396,oven,oven,3,3_oven_10_n04111531_4370.png,True,-0.7532633833189811,0.5664176940917969,1.0,-0.2507903683183675,24.506308555603027,10,1.4672619047619047,10,54.33220960019966,6
subject-02,1,245,1.3957040309906,elephant,cat,7,7_cat_10_n02123159_6954.png,False,2.2293901545986174,2.028550148010254,0.25,-2.0845995366029215,27.916687846183777,10,2.65,9,34.7318900588932,6
subject-02,1,246,0.639378070831299,boat,knife,40,40_knife_10_n03041632_49363.png,False,-0.957484880715921,1.9261438846588137,0.3333333333333333,-1.607376659584464,26.64605438709259,10,2.933766233766234,8,34.55216491887179,10
subject-02,1,247,0.937129974365234,dog,dog,5,5_dog_10_n02091635_7361.png,True,0.29713040168139204,0.9282366633415222,1.0,-0.2918927344249423,26.117437422275543,10,2.0984848484848486,10,37.80030352653898,6
subject-02,1,248,0.954884052276611,elephant,elephant,0,0_elephant_10_n02504013_3569.png,True,0.371939453137036,0.0015145011711865,1.0,-0.00012493914001853758,25.900892085628584,10,4.377777777777778,8,30.903098151155874,10
subject-02,1,249,0.766906023025513,knife,knife,0,0_knife_10_n03041632_11741.png,True,-0.42012973417708566,0.0129931299015879,1.0,-0.0015543255672835947,24.65709951799363,10,3.8107864357864356,8,34.99674211124602,10
subject-02,1,250,1.29054307937622,bear,bear,3,3_bear_10_n02132136_15407.png,True,1.7862811922681434,1.0828028917312622,1.0,-0.4633857139737463,26.998944997787476,10,2.0246031746031745,10,33.08482780535308,10
subject-02,1,251,0.814456939697266,bicycle,bicycle,3,3_bicycle_10_n02835271_2594.png,True,-0.2197679361824571,1.0535328388214111,1.0,-0.7448182013064125,25.877182245254517,10,1.9087662337662337,10,36.85151976023039,10
subject-02,1,252,0.94406795501709,bird,bird,1,1_bird_10_n01820546_4609.png,True,0.3263644601424263,0.0633152946829795,1.0,-0.007737452858139439,25.88534762710333,10,3.0968253968253965,9,32.45409024324274,10
subject-02,1,253,0.797914981842041,bear,bear,1,1_bear_10_n02132136_4271.png,True,-0.2894695665653916,0.0051893116906285,1.0,-0.0005014603774471055,26.03687907475978,10,2.8968253968253967,10,29.502849757634618,10
subject-02,1,254,0.659921884536743,oven,airplane,15,15_airplane_10_n02690373_9427.png,False,-0.8709209248598474,1.8272228240966797,0.1111111111111111,-4.724289746451991,26.843090653419495,10,4.677777777777777,0,25.53152697324358,0
subject-02,1,255,0.727896928787231,oven,oven,3,3_oven_10_n04111531_857.png,True,-0.5844994836327687,2.2766175270080566,0.2,-1.9732851082409208,28.04843246936798,5,1.2220238095238094,9,56.10655363327718,6
subject-02,1,256,0.791504144668579,chair,bottle,3,3_bottle_10_n02823428_7650.png,False,-0.316482439347478,1.696470856666565,1.0,-1.2080821948232632,26.80969512462616,10,4.236111111111111,10,24.678953140044342,10
subject-02,1,257,1.33317494392395,keyboard,truck,40,40_truck_10_n03417042_17616.png,False,1.9659159423532198,1.5827386379241943,0.0714285714285714,-5.268978288994776,26.035683155059814,10,0.16808191808191777,1,51.003132730048975,7
subject-02,1,258,1.37903499603271,oven,oven,10,10_oven_10_n04111531_4392.png,True,2.1591530687806246,2.10756516456604,0.1,-3.5322029587980706,27.833958387374878,10,0.17420634920634911,7,57.11974268119434,6
subject-02,1,259,0.818782091140747,bear,truck,10,10_truck_10_n03796401_16425.png,False,-0.20154336386144217,1.772633075714111,0.1111111111111111,-4.335016289901017,26.96025776863098,10,0.23963258963258932,10,49.55914948233468,7
subject-02,1,260,1.26883792877197,boat,clock,40,40_clock_10_n04548280_4143.png,False,1.6948237965920019,1.358764886856079,1.0,-0.45194758203649665,25.685155034065247,10,9.5,2,16.921013632615892,10
subject-02,1,261,1.01242995262146,dog,dog,3,3_dog_10_n02104365_3580.png,True,0.6144163782383121,0.5610994100570679,1.0,-0.1547335744869939,26.03155255317688,10,1.9885642135642134,10,36.57399320502408,10
subject-02,1,262,0.776056051254272,bottle,bottle,1,1_bottle_10_n04591713_4764.png,True,-0.38157493364040496,0.0679940432310104,1.0,-0.010368810227216975,24.959228917956352,10,5.666666666666666,9,19.971334957970225,10
subject-02,1,263,1.15406799316406,dog,elephant,15,15_elephant_10_n02504458_1000.png,False,1.2112261655964087,2.0344457626342773,0.1111111111111111,-4.1711955844516835,27.47453463077545,10,0.7246031746031742,8,41.93922344965432,6
subject-02,1,264,0.749822854995728,car,car,1,1_car_10_n02814533_43868.png,True,-0.49211182204134274,0.0471545383334159,1.0,-0.007429533573560452,24.630905143916607,10,2.9225579975579974,9,41.584688048095366,6
subject-02,1,265,0.693594932556152,airplane,airplane,3,3_airplane_10_n02690373_3993.png,True,-0.7290352806418444,0.6627888679504395,0.5,-1.8179629725285453,25.599965929985046,10,5.366666666666666,0,23.630656786276518,10
subject-02,1,266,1.44957518577576,bottle,bottle,1,1_bottle_10_n02823428_8280.png,True,2.4563830747837607,0.896661639213562,1.0,-0.5596038521765379,25.63547718524933,10,4.816666666666666,10,21.460339848224205,10
subject-02,1,267,0.723404169082642,oven,oven,40,40_oven_10_n04111531_4988.png,True,-0.6034302945482184,1.6690316200256348,0.1,-4.707823023309956,26.263312578201294,10,0.1318181818181818,7,64.8158529834713,7
subject-02,1,268,0.751168012619019,cat,cat,7,7_cat_10_n02123394_4232.png,True,-0.4864438303630903,0.7272371053695679,0.2,-4.168081847297105,26.074647784233093,10,1.5999999999999999,4,37.892887296750175,6
subject-02,1,269,0.684828042984009,elephant,elephant,0,0_elephant_10_n02504458_5482.png,True,-0.7659756780188395,0.0001434070873074,1.0,-9.596393854078102e-06,25.527489898900967,10,4.383333333333333,7,31.103983113424043,10
subject-02,1,270,1.50006580352783,clock,knife,3,3_knife_10_n03041632_9256.png,False,2.6691316748685576,1.3792012929916382,0.1428571428571428,-3.988034887133948,27.01994025707245,10,1.3441197691197688,7,39.44582937835516,6
subject-02,1,271,0.802411079406738,cat,cat,5,5_cat_10_n02125311_39208.png,True,-0.27052469115446,1.7665812969207764,0.1111111111111111,-4.149472654284532,27.591041088104248,10,1.33015873015873,6,37.94899034289023,6
subject-02,1,272,0.532625913619995,oven,truck,40,40_truck_10_n03796401_10234.png,False,-1.4072985889628546,1.420573353767395,0.0833333333333333,-5.706810032100227,25.462900400161743,10,0.1859640359640356,1,52.67512482875129,7
subject-02,1,273,0.912156105041504,boat,boat,0,0_boat_10_n03344393_3452.png,True,0.19189984650351677,0.0106002781540155,1.0,-0.001160161882429489,25.749849626794457,10,4.25,9,23.766252544383082,10
subject-02,1,274,0.711946964263916,clock,bird,40,40_bird_10_n01614925_13283.png,False,-0.6517066752817224,1.617548942565918,0.1428571428571428,-4.207137849107583,26.378489136695862,10,1.0269841269841267,2,40.03983964591902,6
subject-02,1,275,0.826292037963867,boat,boat,1,1_boat_10_n03344393_4001.png,True,-0.16989925363931,0.0010768063366413,1.0,-8.577476238154159e-05,25.636306155472994,10,2.8051948051948052,10,26.888809438156102,10
subject-02,1,276,1.22798180580139,bear,elephant,15,15_elephant_10_n02504013_5887.png,False,1.5226713581020446,2.200887680053711,0.1,-3.761845803292313,27.405811309814453,10,0.6678571428571426,8,42.51841134511951,6
subject-02,1,277,0.715329885482788,bear,elephant,7,7_elephant_10_n02504013_7674.png,False,-0.6374523091132147,1.5954806804656982,0.1111111111111111,-4.458315638770474,26.95633637905121,10,0.7345349095349092,3,42.42457465438873,6
subject-02,1,278,1.46715998649597,keyboard,keyboard,0,0_keyboard_10_n03085013_26656.png,True,2.5304788553972077,0.0620890446007251,1.0,-0.00879881009820013,25.104988534003496,10,2.3508297258297253,9,38.61912356486656,10
subject-02,1,279,0.84527587890625,knife,knife,15,15_knife_10_n03041632_1964.png,True,-0.08990844020627654,1.5127577781677246,0.5,-1.2844119051473373,26.3876473903656,10,3.819877344877345,8,32.48778712616701,10
subject-02,1,280,0.464666843414307,clock,clock,3,3_clock_10_n02708093_4912.png,True,-1.693652721532995,0.0027752770110964,1.0,-0.0002471513966291946,23.2284638537094,10,9.5,3,14.409287463284672,10
subject-02,1,281,1.22070097923279,chair,oven,0,0_oven_10_n04111531_10420.png,False,1.4919926750339148,0.0174873191863298,1.0,-0.0019289966932675262,26.00299766846001,10,2.3541666666666665,9,53.80773606462705,10
subject-02,1,282,0.79041600227356,oven,oven,1,1_oven_10_n04111531_22445.png,True,-0.3210674648738039,0.541828453540802,1.0,-0.13526162767552558,25.207951962947845,10,1.0352564102564101,10,57.2467696547925,10
subject-02,1,283,0.694201946258545,clock,clock,5,5_clock_10_n04548280_3563.png,True,-0.7264775516782072,0.2011782228946685,1.0,-0.0329985462942572,24.374768644571304,10,9.5,3,15.489562785465791,10
subject-02,1,284,0.620457887649536,cat,cat,10,10_cat_10_n02123394_1957.png,True,-1.0372074641280238,2.10351037979126,1.0,-1.5343477933432756,27.250114798545837,10,3.24563492063492,9,33.793094407549596,6
subject-02,1,285,0.742058038711548,car,chair,40,40_chair_10_n04099969_20684.png,False,-0.5248298569540213,2.105558395385742,0.0909090909090909,-4.437624255592528,27.023690819740295,10,0.10876623376623328,10,51.66091798697383,7
subject-02,1,286,,na,knife,5,5_knife_10_n03041632_20433.png,False,,0.4341917634010315,0.25,-4.1425075302172125,25.725335776805878,10,2.7857864357864357,8,36.27189203895841,6
subject-02,1,287,0.991446018218994,clock,keyboard,5,5_keyboard_10_n04505470_4878.png,False,0.525997918192578,1.616539478302002,1.0,-0.946992659263094,27.12974512577057,10,2.0523310023310017,10,38.60064325552017,10
subject-02,1,288,0.697546005249023,airplane,airplane,1,1_airplane_10_n02690373_5773.png,True,-0.7123869364213559,0.002994606969878,1.0,-0.00032042629669066944,24.329289029119536,10,5.25,0,22.909461296124896,10
subject-02,1,289,1.02920198440552,dog,dog,1,1_dog_10_n02113624_8023.png,True,0.6850874542025233,0.0222770031541585,1.0,-0.0025151982148050186,25.510282879695296,10,2.892929292929293,9,34.31649936398525,10
subject-02,1,290,0.659090995788574,cat,bird,40,40_bird_10_n02006656_10568.png,False,-0.8744219796274321,1.3182016611099243,0.0625,-5.952136018546606,25.32206928730011,10,0.765746753246753,3,44.13692651125124,7
subject-02,1,291,0.606873035430908,bicycle,bicycle,1,1_bicycle_10_n02835271_17184.png,True,-1.0944489561229096,0.0006585091468878,1.0,-5.221503200429951e-05,24.918296214949805,10,3.556349206349206,9,30.795392494104256,9
subject-02,1,292,0.972733974456787,car,car,1,1_car_10_n02814533_83577.png,True,0.44715235653430757,0.7237493991851807,0.5,-0.7546363091935298,25.71351671218872,10,2.1967032967032964,9,43.40587495171104,6
subject-02,1,293,0.784296035766602,bird,bird,0,0_bird_10_n02011460_3892.png,True,-0.34685471733553036,0.0009408183395862,1.0,-7.486623624473073e-05,25.356168765574694,10,3.124603174603174,9,30.314050824723324,9
subject-02,1,294,0.77435302734375,bicycle,bicycle,7,7_bicycle_10_n03792782_6149.png,True,-0.3887508401554256,2.3829712867736816,0.1111111111111111,-3.0072616323016534,28.325968742370605,10,0.7290404040404039,1,38.44081455521219,6
subject-02,1,295,0.826194047927856,airplane,airplane,5,5_airplane_10_n02690373_7489.png,True,-0.17031214704231726,1.5117735862731934,1.0,-0.4641213438029786,27.19232940673828,10,8.416666666666666,0,19.19227303989821,10
subject-02,1,296,0.977927207946777,clock,cat,40,40_cat_10_n02123597_6542.png,False,0.4690347022868224,1.2312092781066897,0.1428571428571428,-4.348919339655523,25.313544869422913,10,1.3551587301587298,2,40.17163338399591,6
subject-02,1,297,0.715500116348267,oven,bottle,15,15_bottle_10_n02823428_8114.png,False,-0.636735019843756,0.8498804569244385,0.3333333333333333,-3.522215818263245,25.612157940864563,10,2.8075757575757576,10,28.00112114535283,4
subject-02,1,298,0.701888084411621,elephant,elephant,1,1_elephant_10_n02504458_11345.png,True,-0.6940910370161201,0.0002826091658789,1.0,-2.0265784573257805e-05,26.068260872067185,10,4.831818181818182,6,30.830359676309936,10
subject-02,1,299,0.775187015533447,knife,knife,1,1_knife_10_n03041632_40887.png,True,-0.38523672549918286,8.76451304065995e-06,1.0,-4.768372718899988e-07,23.14784628415873,10,4.040151515151515,8,31.597637489309626,6
subject-02,1,300,0.855202913284302,truck,truck,5,5_truck_10_n03796401_4878.png,True,-0.04807962604332004,0.7620137929916382,0.25,-4.506688136669879,25.92848289012909,10,0.38120213120213087,10,48.76930925456708,7
subject-02,1,301,0.6249680519104,keyboard,keyboard,7,7_keyboard_10_n03085013_6828.png,True,-1.0182033169147142,0.0271157436072826,1.0,-0.0034373402907968086,25.302083652466536,10,2.7868548118548118,9,36.37596081022585,10
subject-02,1,302,1.0267870426178,truck,truck,3,3_truck_10_n04467665_19645.png,True,0.6749117917230791,0.6226876974105835,1.0,-0.1791681316266124,25.32185459136963,10,1.2886446886446885,10,42.741935948314605,10
subject-02,1,303,0.740557909011841,boat,car,40,40_car_10_n04285008_11748.png,False,-0.5311508430652516,1.551415205001831,0.125,-4.3291458541042385,26.098451852798462,10,0.4423992673992669,7,50.18248380115859,6
subject-02,1,304,0.650490045547485,keyboard,keyboard,10,10_keyboard_10_n04505470_9570.png,True,-0.910663170657733,1.6240427494049072,0.3333333333333333,-1.6202427778753312,26.716643571853638,10,1.3468364968364963,9,39.96771160402978,6
subject-02,1,305,0.804080963134766,elephant,elephant,0,0_elephant_10_n02504458_10428.png,True,-0.2634884249874101,0.0004439812619239,1.0,-3.2365845881376167e-05,25.407229230972007,10,4.90952380952381,7,29.08613878390506,6
subject-02,1,306,0.681958913803101,car,car,10,10_car_10_n02814533_32924.png,True,-0.7780651164903184,1.8639049530029297,0.0833333333333333,-4.929562795534804,27.21820592880249,10,0.19878454878454838,7,51.281454095018034,6
subject-02,1,307,0.763949871063232,dog,dog,7,7_dog_10_n02097047_911.png,True,-0.43258585413785666,1.1310338973999023,1.0,-0.42823722608341463,26.398852705955505,10,1.9830086580086579,10,38.23979265174641,10
subject-02,1,308,0.835819005966187,oven,oven,0,0_oven_10_n04111531_136.png,True,-0.1297561697202558,0.0141222532838583,1.0,-0.0016393382240118455,25.842232471331954,10,1.9700757575757575,9,54.163557186687775,6
subject-02,1,309,0.847746849060059,dog,dog,0,0_dog_10_n02094258_4979.png,True,-0.07949669512413927,0.0202011168003082,1.0,-0.002137320819602903,26.621774584054947,10,3.155963480963481,9,34.39545024760741,10
subject-02,1,310,0.653128862380981,cat,cat,3,3_cat_10_n02123045_20366.png,True,-0.8995441823743414,0.0369348227977752,1.0,-0.004274251177108702,25.896793693304062,10,4.2595238095238095,8,29.902516882705633,10
subject-02,1,311,1.50011205673218,cat,oven,7,7_oven_10_n04111531_13862.png,False,2.6693265685916487,1.4963617324829102,0.2,-3.2295475230812927,26.777350425720215,10,0.3307900432900431,10,56.81253935021369,6
subject-02,1,312,0.564821004867554,clock,clock,1,1_clock_10_n04548280_5525.png,True,-1.2716405024218227,0.0001345871714875,1.0,-9.41757821965125e-06,23.051290154340677,10,9.5,2,14.513022181872056,10
subject-02,1,313,1.2167181968689,bear,bear,7,7_bear_10_n02133161_2281.png,True,1.475210718106377,2.08547306060791,0.3333333333333333,-1.7927218319078924,27.57470202445984,10,1.1726551226551225,10,36.056040037290394,6
subject-02,1,314,1.10256814956665,cat,bird,15,15_bird_10_n02002724_383.png,False,0.9942250648426795,2.0147223472595215,0.25,-2.2628515469116577,27.453305959701538,10,1.4456349206349204,3,35.98848267127498,0
subject-02,1,315,0.870224952697754,truck,truck,5,5_truck_10_n04467665_34253.png,True,0.015217635862324509,0.8523921966552734,0.5,-2.7717080343002065,26.01911723613739,10,0.7598956598956597,10,45.79689512655615,6
subject-02,1,316,0.640246152877808,clock,clock,10,10_clock_10_n02708093_135.png,True,-0.9538271072844215,1.1917243003845217,1.0,-0.6240797980957504,25.42941677570343,10,8.333333333333332,10,17.1250090128463,10
subject-02,1,317,0.885778188705444,knife,knife,3,3_knife_10_n03041632_12949.png,True,0.08075316176285358,0.7398723363876343,0.3333333333333333,-2.534859938650207,26.220267295837402,10,2.433766233766234,8,37.78977809639927,6
subject-02,1,318,0.615751981735229,cat,cat,7,7_cat_10_n02123597_14267.png,True,-1.057036393540529,1.5338629484176636,0.2,-2.728801881312867,26.793486714363098,10,1.677380952380952,4,35.71810694172359,6
subject-02,1,319,0.783613920211792,keyboard,keyboard,7,7_keyboard_10_n04505470_4458.png,True,-0.3497288974474571,0.0148408859968185,1.0,-0.0016910418711366501,23.649126812815666,10,2.9698523698523696,9,35.6004551440032,6
subject-02,1,320,0.723250150680542,oven,keyboard,15,15_keyboard_10_n03085013_21397.png,False,-0.6040792705539187,0.7905141115188599,1.0,-0.2084561168037982,25.841548562049866,10,2.6468364968364964,9,37.60576124710464,10
subject-02,1,321,1.04640698432922,bear,elephant,1,1_elephant_10_n02504458_5671.png,False,0.7575828961517586,1.6277447938919067,1.0,-0.6258798334689383,27.030089378356934,10,3.1837412587412586,9,37.65177038547143,6
subject-02,1,322,0.522511959075928,cat,cat,0,0_cat_10_n02124075_17347.png,True,-1.4499150148726627,0.0025322483852505,1.0,-0.00022956383479094835,24.547166232950985,10,5.017857142857142,7,27.663755430821972,6
subject-02,1,323,1.26818513870239,dog,bottle,10,10_bottle_10_n02823428_5135.png,False,1.692073183118933,1.578707933425903,0.1666666666666666,-3.923843296162592,27.080899238586426,10,2.486446886446886,4,29.16125998601617,3
subject-02,1,324,0.655768156051636,oven,clock,15,15_clock_10_n03196217_2488.png,False,-0.8884231848773068,1.225349187850952,1.0,-0.38693935046624806,26.279852986335754,10,8.916666666666666,2,17.62641525814904,10
subject-02,1,325,1.04148316383362,knife,oven,0,0_oven_10_n04111531_6313.png,False,0.7368357561058277,1.164738655090332,1.0,-0.9507181018496493,26.920740842819214,10,1.2470238095238093,10,56.4199148030692,6
subject-02,1,326,0.801464080810547,knife,knife,10,10_knife_10_n03041632_6309.png,True,-0.27451498944336605,1.442110300064087,0.5,-1.5859360020973783,26.455586791038513,10,3.107575757575758,8,33.800952481098335,6
subject-02,1,327,0.8214111328125,car,car,7,7_car_10_n02814533_3594.png,True,-0.19046556445766835,1.6480050086975098,0.1666666666666666,-4.48677891431047,26.424794554710388,10,0.3466422466422462,7,51.547632516248555,6
subject-02,1,328,0.895098924636841,clock,keyboard,5,5_keyboard_10_n04505470_4371.png,False,0.12002726078263604,0.1873859167098999,0.3333333333333333,-4.973495224893253,24.425644040107727,10,1.5766233766233761,9,43.67357327157446,6
subject-02,1,329,0.76521897315979,knife,knife,1,1_knife_10_n03041632_24798.png,True,-0.42723833203517175,0.002484472701326,1.0,-0.0002241981995384734,25.72848037094809,10,4.342929292929293,7,32.478053883462366,10
subject-02,1,330,0.634711980819702,cat,dog,7,7_dog_10_n02111277_50807.png,False,-0.9771460407894916,2.050545454025269,0.1111111111111111,-4.078416887254413,27.491633892059326,10,0.7341991341991341,9,42.08941552387332,6
subject-02,1,331,0.544534921646118,cat,cat,1,1_cat_10_n02124075_7663.png,True,-1.3571184783055155,0.0085753425955772,1.0,-0.0008985859996186487,24.91445078700781,10,5.371825396825397,6,26.831204851401797,9
subject-02,1,332,0.734463930130005,cat,chair,10,10_chair_10_n02791124_6865.png,False,-0.5568285933836021,1.666769027709961,0.0769230769230769,-5.673018881614149,27.318504095077515,10,0.08836996336996288,2,54.79873583502191,7
subject-02,1,333,0.902112007141113,keyboard,keyboard,3,3_keyboard_10_n04505470_5091.png,True,0.14957777039195566,0.0273654721677303,1.0,-0.0033523540645249415,24.14579525217414,10,2.831360306360306,9,36.18643842066058,10
subject-02,1,334,1.13190603256226,knife,keyboard,10,10_keyboard_10_n03085013_4374.png,False,1.1178439432532477,1.087071180343628,0.3333333333333333,-2.774130451743049,25.984707713127136,10,1.3856643356643352,9,41.729366101495685,6
subject-02,1,335,1.18390202522278,clock,chair,5,5_chair_10_n04429376_1935.png,False,1.3369356307993259,0.6061280965805054,0.1111111111111111,-5.007611046820119,25.860883712768555,10,0.1847374847374843,9,51.0951644715181,6
subject-02,1,336,0.825712919235229,oven,bottle,5,5_bottle_10_n04560804_2176.png,False,-0.17233944360501016,1.7885737419128418,0.3333333333333333,-2.2481518062235857,27.76977229118347,10,2.856684981684982,10,27.04162737562395,10
subject-02,1,337,0.475457906723022,cat,cat,0,0_cat_10_n02123045_8215.png,True,-1.6481832122544833,0.0022412156686186,1.0,-0.00019927818206205952,24.5568616008386,10,5.322222222222222,6,27.124766652333918,9
subject-02,1,338,0.549360990524292,cat,cat,10,10_cat_10_n02123394_3144.png,True,-1.336783227055748,1.8298490047454832,0.25,-2.218164292698888,26.667932987213135,10,2.3833333333333333,9,35.73504485355406,6
subject-02,1,339,1.27302885055542,bicycle,keyboard,5,5_keyboard_10_n03085013_26573.png,False,1.7124827752733887,2.02913498878479,1.0,-0.902060585154326,27.904708981513977,10,2.6087412587412584,9,38.25152772080552,10
subject-02,1,340,0.657013893127441,bear,bear,10,10_bear_10_n02132136_10468.png,True,-0.8831741142429833,2.0164778232574463,0.1428571428571428,-2.9531076959078364,26.769741773605347,10,0.8388278388278384,0,40.20344778660029,6
subject-02,1,341,0.878705024719238,elephant,elephant,1,1_elephant_10_n02504013_3739.png,True,0.0509494912349,0.0023738355375826,1.0,-0.00019808585229571144,25.984319469425827,10,4.298484848484849,8,32.30117617242521,10
subject-02,1,342,0.742522954940796,bear,bear,3,3_bear_10_n02133161_1480.png,True,-0.5228708736550861,0.3033945560455322,1.0,-0.06169204366945737,26.340039253234863,10,2.53015873015873,10,31.42662744292952,10
subject-02,1,343,0.786137819290161,chair,chair,7,7_chair_10_n04099969_34325.png,True,-0.3390941296512896,1.648944854736328,0.1666666666666666,-3.7528411686749847,27.09651517868042,10,0.1965659340659336,10,51.26205653325156,7
subject-02,1,344,0.670197010040283,airplane,airplane,1,1_airplane_10_n02690373_5010.png,True,-0.8276253847397409,0.0006927642971277,1.0,-5.4003266316530905e-05,24.935290733352304,10,6.916666666666666,0,22.478306814399097,10
subject-02,1,345,0.601999044418335,clock,clock,3,3_clock_10_n04548280_5765.png,True,-1.114986133343489,0.002979444572702,1.0,-0.00030128725714265034,24.677761720726267,10,9.5,3,16.19156478578892,10
subject-02,1,346,0.677775144577026,chair,chair,0,0_chair_10_n04099969_2038.png,True,-0.7956939569670982,0.0072824321687221,1.0,-0.0007399077012214069,25.214361485093832,10,1.6090409590409587,10,45.28201043984586,10
subject-02,1,347,0.923707008361816,knife,knife,7,7_knife_10_n03041632_2153.png,True,0.24057103771726351,1.1655323505401611,1.0,-0.5337226823652599,26.066057801246643,10,3.1393217893217895,10,33.342274723148805,10
subject-02,1,348,0.771497964859009,elephant,elephant,3,3_elephant_10_n02504013_9021.png,True,-0.4007810068245265,0.7513045072555542,1.0,-0.3294207859232484,26.876771926879883,10,3.0094988344988343,9,34.79680963836464,10
subject-02,1,349,1.31317710876465,bottle,bottle,3,3_bottle_10_n03983396_12728.png,True,1.8816525361148762,1.6061205863952637,0.3333333333333333,-1.8023617121323199,26.40702199935913,10,3.276923076923077,10,25.91092570266482,10
subject-02,1,350,0.806934118270874,car,elephant,15,15_elephant_10_n02504013_5463.png,False,-0.2514662951728694,2.020904541015625,0.125,-3.4842664977801907,27.37872076034546,10,0.9277777777777776,7,40.948365495491736,6
subject-02,1,351,1.0929229259491,cat,oven,1,1_oven_10_n04111531_10313.png,False,0.9535836959409405,0.3109791278839111,1.0,-0.0674810531322066,25.94860863685608,10,2.120833333333333,9,54.25282819879137,6
subject-02,1,352,1.26882576942444,elephant,bird,10,10_bird_10_n01616318_2290.png,False,1.6947725616442015,2.0104851722717285,0.0769230769230769,-5.566874161700001,27.366210460662842,10,0.808247308247308,3,41.54679510681342,0
subject-02,1,353,1.05041718482971,cat,dog,7,7_dog_10_n02106662_2384.png,False,0.7744803828636059,1.8210307359695437,0.3333333333333333,-2.040099714637982,27.038907051086426,10,1.2496753246753245,9,38.91962520218076,6
subject-02,1,354,0.850078105926514,chair,keyboard,7,7_keyboard_10_n03085013_22942.png,False,-0.06967364963850486,1.4696266651153564,0.5,-1.7348994012676988,26.190329909324646,10,2.412276612276612,9,38.301045067549275,6
subject-02,1,355,0.806219100952148,clock,clock,0,0_clock_10_n03196217_2414.png,True,-0.25447911102595155,1.4138870239257812,0.5,-1.9390429341640403,26.792590737342834,10,10.25,2,18.751699102065277,2
subject-02,1,356,0.810144901275635,boat,boat,3,3_boat_10_n03344393_5091.png,True,-0.2379372551283762,2.159341812133789,0.5,-1.8350896071927143,28.000357627868652,10,2.288095238095238,10,30.10867494027103,10
subject-02,1,357,1.15779113769531,chair,oven,0,0_oven_10_n04111531_7189.png,False,1.2269141056970096,0.2419729977846145,0.5,-3.8189675630359328,25.596821382641792,10,0.4935897435897435,10,59.122632205877004,6
subject-02,1,358,0.997370004653931,chair,elephant,15,15_elephant_10_n02504013_9393.png,False,0.5509593838482937,1.251132249832153,0.0714285714285714,-7.470266454288808,26.34395170211792,10,0.5677960927960926,3,46.61598018849685,6
subject-02,1,359,1.05535006523132,car,oven,40,40_oven_10_n04111531_13625.png,False,0.7952656979687124,1.5757856369018557,0.125,-4.628995628143432,25.848565101623535,10,0.1833333333333333,7,64.69811005848997,7
subject-02,1,360,0.64519214630127,chair,chair,10,10_chair_10_n04429376_16459.png,True,-0.9329865388042109,0.6152411103248596,0.0909090909090909,-6.414304230173102,25.984669148921967,10,0.12630286380286337,10,53.634830525012404,7
subject-02,1,361,0.859076976776123,bird,bicycle,7,7_bicycle_10_n03792782_11950.png,False,-0.031755769825681256,2.359713554382324,0.1666666666666666,-2.6435020166082963,28.398293256759644,10,0.9210678210678207,9,36.96732377301856,6
subject-02,1,362,0.554777860641479,clock,clock,0,0_clock_10_n04548280_9294.png,True,-1.3139585601061055,0.0014999139821156,1.0,-0.00012833703504641598,24.279327176860534,10,10.75,2,14.761613884637095,10
subject-02,1,363,0.768661975860596,bird,bird,0,0_bird_10_n02017213_1163.png,True,-0.4127308049480305,0.0411224327981472,1.0,-0.0047519878579690995,25.96839439496398,10,2.726190476190476,9,33.169872729080666,10
subject-02,1,364,0.904723882675171,bear,elephant,10,10_elephant_10_n02504013_3425.png,False,0.16058323810469327,1.7034912109375,0.1,-4.504806323523792,27.081708788871765,10,0.7571539571539568,8,42.64722295643697,6
subject-02,1,365,0.994302034378052,knife,car,5,5_car_10_n04285008_7428.png,False,0.5380321032889611,1.4199761152267456,0.5,-1.1950374373964316,26.21969699859619,10,0.8781746031746028,10,45.43677210942522,10
subject-02,1,366,0.57195520401001,boat,boat,1,1_boat_10_n03662601_1319.png,True,-1.241579652547958,0.0421530157327652,1.0,-0.005110904508582124,24.41377128660679,10,3.180952380952381,9,30.143859325658273,10
subject-02,1,367,1.06818819046021,truck,dog,7,7_dog_10_n02099849_3128.png,False,0.8493607614034966,2.1577725410461426,0.125,-3.7717808569319917,27.486175060272217,10,0.5186868686868686,8,42.641114824883005,6
subject-02,1,368,0.625684976577759,clock,bicycle,40,40_bicycle_10_n03792782_43328.png,False,-1.0151824642070713,1.953134298324585,0.0833333333333333,-4.6012863220673195,26.570520758628845,10,0.7829836829836828,3,41.88396563472112,7
subject-02,1,369,0.777570962905884,bear,bicycle,10,10_bicycle_10_n03792782_16290.png,False,-0.37519166190633346,2.066084384918213,0.0909090909090909,-4.165674498337265,27.306514263153076,10,0.6785214785214784,3,41.07393292597129,6
subject-02,1,370,0.837152004241943,keyboard,keyboard,0,0_keyboard_10_n03085013_8865.png,True,-0.12413941298982499,0.4250463545322418,1.0,-0.12956110038459007,24.841047555208206,10,2.608405483405483,9,37.51696072983684,10
subject-02,1,371,0.745322942733765,oven,truck,10,10_truck_10_n03796401_22618.png,False,-0.5110727711613956,1.829256892204285,0.1428571428571428,-3.8173721707484205,26.598382353782654,10,0.22527472527472486,10,50.25431883658254,7
subject-02,1,372,0.864814043045044,knife,knife,7,7_knife_10_n03041632_49513.png,True,-0.0075819159168213504,1.351012945175171,0.25,-3.3656264910142095,26.652098774909973,10,2.7381313131313134,8,35.39330517477237,6
subject-02,1,373,0.626607179641724,bottle,bottle,0,0_bottle_10_n03983396_16224.png,True,-1.0112966450274394,0.0027967831119894,1.0,-0.0002699262583578526,24.559222831390798,10,6.583333333333333,9,19.15630133870895,9
subject-02,1,374,0.624864101409912,boat,airplane,15,15_airplane_10_n02690373_6336.png,False,-1.0186413254882183,2.24015474319458,0.0833333333333333,-4.155643697397462,27.465577602386475,10,5.0928571428571425,0,24.203781430864964,5
subject-02,1,375,0.714349031448364,knife,car,15,15_car_10_n03100240_5383.png,False,-0.6415852615705583,2.0524778366088867,0.0714285714285714,-5.818451903717915,27.14507007598877,10,0.17211122211122165,2,53.09891380092678,6
subject-02,1,376,0.630162954330444,boat,bear,15,15_bear_10_n02133161_156.png,False,-0.9963139389144582,1.6960090398788452,0.25,-2.6166282788383484,27.002029299736023,10,1.007539682539682,10,38.3961282471716,6
subject-02,1,377,0.936047077178955,boat,boat,0,0_boat_10_n02951358_29756.png,True,0.292567477505104,0.0007024633232504,1.0,-5.3287972207971084e-05,25.090762339765206,10,3.374242424242424,9,27.06402925936496,9
subject-02,1,378,0.789777994155884,oven,oven,0,0_oven_10_n04111531_15052.png,True,-0.3237557927240358,0.0001772569667082,1.0,-1.2517053740822353e-05,25.26436900367844,10,2.061111111111111,9,55.29598942832485,6
subject-02,1,379,1.16771411895752,dog,dog,0,0_dog_10_n02100583_10960.png,True,1.268725841544038,0.011206935159862,1.0,-0.001123164788546993,26.029928038828075,10,3.0122766122766125,9,33.996984686128044,10
subject-02,1,380,0.86586594581604,truck,truck,5,5_truck_10_n04467665_44714.png,True,-0.0031495906271280494,0.2569722533226013,1.0,-0.04443592411656489,25.826489865779877,10,1.2164835164835162,10,42.810600303580834,10
subject-02,1,381,0.829154014587402,knife,knife,15,15_knife_10_n03041632_28443.png,True,-0.1578399533724296,1.3865375518798828,0.3333333333333333,-2.434262559341441,26.83918809890747,10,2.940909090909091,8,34.8010732429996,5
subject-02,1,382,0.66107702255249,bear,bicycle,15,15_bicycle_10_n02835271_3535.png,False,-0.866053604817109,1.6571707725524902,0.0714285714285714,-6.182897999604027,26.648579359054565,10,0.6927960927960926,3,44.20120068415075,6
subject-02,1,383,0.764902114868164,airplane,airplane,1,1_airplane_10_n02690373_11908.png,True,-0.42857345449890805,0.0002380802470725,1.0,-1.710667936883126e-05,25.125988621934084,10,7.25,0,19.805197080046018,10
subject-02,1,384,0.526524066925049,boat,boat,10,10_boat_10_n03662601_8067.png,True,-1.4330094913062623,1.701819658279419,0.0666666666666666,-6.119131675609638,27.01562213897705,10,1.4462662337662335,1,38.821678773249076,0
subject-02,1,385,1.03853702545166,bottle,chair,1,1_chair_10_n03376595_9054.png,False,0.7244218296314902,0.4635933935642242,0.25,-4.326989477975484,26.334978729486465,10,0.33347069597069556,10,52.69224378251272,7
subject-02,1,386,0.524180889129639,bear,bear,5,5_bear_10_n02134084_20723.png,True,-1.442882767132895,1.919347643852234,0.25,-2.7824025844579823,27.748655915260315,10,1.0697802197802198,4,36.91040575102398,6
subject-02,1,387,0.598097085952759,bicycle,bicycle,3,3_bicycle_10_n02835271_22355.png,True,-1.1314275285590638,1.3394227027893066,1.0,-0.6594583010017193,26.66148352622986,10,2.552777777777777,10,34.78440845157365,10
subject-02,1,388,0.765950918197632,oven,bear,40,40_bear_10_n02133161_444.png,False,-0.4241541890978734,1.7677769660949707,0.1428571428571428,-4.072480087257354,26.28290104866028,10,0.7241813741813738,8,42.526348870389555,7
subject-02,1,389,0.667760848999023,bear,bear,7,7_bear_10_n02133161_14810.png,True,-0.8378904572261621,2.0740597248077393,1.0,-1.0157740270931093,27.944751977920532,10,1.937301587301587,10,35.09885898043831,10
subject-02,1,390,0.821498870849609,cat,cat,0,0_cat_10_n02123045_4237.png,True,-0.19009586914792198,0.4888405203819275,1.0,-0.10355343983484619,25.66903132200241,10,3.191269841269841,9,33.913246504107946,10
subject-02,1,391,0.613313913345337,bicycle,bicycle,0,0_bicycle_10_n02835271_14966.png,True,-1.0673095028815065,0.0066193658858537,1.0,-0.000661651586214537,25.497792990878224,10,3.0754329004329,9,30.964335124412354,10
subject-02,1,392,0.585259914398193,airplane,boat,5,5_boat_10_n02951358_12432.png,False,-1.185518573566536,1.2490079402923584,0.0909090909090909,-6.477865514878389,26.785374641418457,10,1.2303321678321675,1,40.12120501816038,6
subject-02,1,393,0.68886399269104,bear,bear,7,7_bear_10_n02132136_4888.png,True,-0.7489696937704432,2.1394495964050293,1.0,-1.2255884712613079,28.236079692840576,10,2.296428571428571,10,33.350680860561745,10
subject-02,1,394,0.925042152404785,bottle,chair,0,0_chair_10_n02791124_13033.png,False,0.24619683590907873,0.0134641285985708,1.0,-0.00161086056701553,25.373959695920348,10,2.196428571428571,9,44.58548125623689,10
subject-02,1,395,1.05059194564819,chair,keyboard,15,15_keyboard_10_n03085013_12079.png,False,0.7752167596626359,1.4331010580062866,0.3333333333333333,-1.8847136264616873,26.075908660888672,10,1.1634920634920631,9,42.872741125673315,6
subject-02,1,396,1.09284210205078,cat,cat,7,7_cat_10_n02123597_14094.png,True,0.9532431342289521,1.5558844804763794,0.1666666666666666,-3.2323032498120603,26.572453379631042,10,1.9011904761904759,9,35.788308884627,6
subject-02,1,397,0.634194135665894,airplane,airplane,10,10_airplane_10_n02690373_18468.png,True,-0.9793280468024571,1.1088337898254397,0.125,-4.504478266846472,25.59525966644287,10,4.741666666666667,0,27.382581678785176,8
subject-02,1,398,1.37806606292725,car,car,0,0_car_10_n04285008_11931.png,True,2.155070346664317,0.036716841161251,1.0,-0.005852986124024169,24.689077638089657,10,3.0595238095238093,9,40.07644575421612,6
subject-02,1,399,1.50016307830811,clock,bicycle,5,5_bicycle_10_n02835271_7450.png,False,2.669541554451131,1.1777539253234863,0.1111111111111111,-4.559134064107609,26.57513976097107,10,0.8277777777777777,3,39.92709773511998,6
subject-02,1,400,0.837565898895264,bird,cat,15,15_cat_10_n02125311_44920.png,False,-0.1223954155503599,1.652174711227417,0.2,-3.1507016452896393,26.31859064102173,10,1.9095238095238094,9,36.24421620379753,6
subject-02,1,401,0.68132495880127,boat,boat,5,5_boat_10_n03344393_5916.png,True,-0.7807363660246099,1.2778147459030151,1.0,-0.3979062854605459,26.789272665977478,10,2.3267857142857142,10,31.185105297004213,10
subject-02,1,402,0.607309103012085,airplane,airplane,5,5_airplane_10_n02690373_6992.png,True,-1.0926115302491894,1.9263319969177248,1.0,-0.72454978575849,27.55207920074463,10,8.416666666666666,0,19.838353455583732,10
subject-02,1,403,0.584941148757935,clock,dog,40,40_dog_10_n02097047_2426.png,False,-1.1868617328848283,1.6284279823303225,0.0769230769230769,-5.274265227022749,26.167173624038696,10,0.3717754467754466,7,47.116729485670135,7
subject-02,1,404,0.714603900909424,oven,truck,5,5_truck_10_n04467665_30023.png,False,-0.640511336880012,1.0060248374938965,0.1428571428571428,-4.777192920335326,25.98407816886902,10,0.30318570318570287,10,49.62665844771641,7
subject-02,1,405,0.680905103683472,keyboard,oven,7,7_oven_10_n04111531_2086.png,False,-0.7825054786345719,1.705943584442139,0.2,-3.433988851064814,27.138799786567688,10,0.3053571428571427,10,59.541939904706155,6
subject-02,1,406,0.590449094772339,boat,elephant,15,15_elephant_10_n02504458_7835.png,False,-1.1636533061299579,2.0502870082855225,0.1428571428571428,-3.2213389668458494,27.415682315826416,10,0.841269841269841,8,40.98404114439833,6
subject-02,1,407,0.696190118789673,oven,oven,1,1_oven_10_n04111531_14383.png,True,-0.7181001354065045,1.2299363613128662,0.5,-0.8973852979683418,26.48732280731201,10,0.4947552447552447,10,58.598920752633404,6
subject-02,1,408,0.777884006500244,cat,boat,10,10_boat_10_n03344393_7826.png,False,-0.3738726131517185,1.150688409805298,0.0666666666666666,-7.625327220869116,26.062504172325134,10,1.4821428571428568,1,40.74080526926806,6
subject-02,1,409,0.795777082443237,cat,cat,0,0_cat_10_n02123597_2370.png,True,-0.29847787592003483,0.8025256395339966,1.0,-0.4260603209121369,26.81323742866516,10,4.855555555555555,7,29.988616409715927,10
subject-02,1,410,1.07184791564941,car,car,3,3_car_10_n03100240_8987.png,True,0.8647814760899487,1.0882117748260498,0.3333333333333333,-2.049364167681485,25.65686297416687,10,1.6892857142857138,9,45.32360920781929,6
subject-02,1,411,0.803620100021362,airplane,airplane,10,10_airplane_10_n02690373_1862.png,True,-0.2654303299704086,2.133021354675293,0.1111111111111111,-3.7424265507027443,27.774767756462097,10,5.208333333333332,0,25.27788490284658,0
subject-02,1,412,1.0391161441803,bird,bear,7,7_bear_10_n02134418_258.png,False,0.7268620195971998,0.8077064752578735,0.1,-6.309722747775681,25.638675570487976,10,0.596428571428571,0,44.79260126614011,6
subject-02,1,413,0.862875938415527,truck,truck,1,1_truck_10_n04467665_50932.png,True,-0.015748364756332463,0.0555712059140205,1.0,-0.009195214771390979,24.746798522770405,10,1.7783272283272282,10,42.83020365754078,10
subject-02,1,414,0.702674150466919,oven,oven,0,0_oven_10_n04111531_21173.png,True,-0.6907788483306893,0.0133018232882022,1.0,-0.0013544787705571599,25.58461508527398,10,1.4763888888888888,10,55.08028885754211,10
subject-02,1,415,0.768764972686768,car,car,5,5_car_10_n04285008_2880.png,True,-0.4122968148018044,1.1797417402267456,0.5,-1.5792804207441042,27.0729638338089,10,1.0522588522588519,9,45.78999479690389,6
subject-02,1,416,0.670504093170166,cat,bear,10,10_bear_10_n02134418_745.png,False,-0.8263314511556228,1.3376691341400146,0.1428571428571428,-5.047763084501386,26.920148849487305,10,0.8456709956709956,0,40.35288516650864,6
subject-02,1,417,0.908151865005493,elephant,elephant,3,3_elephant_10_n02504013_1777.png,True,0.17502747496217427,0.0009926444618031,1.0,-7.868122639013894e-05,25.667079079779796,10,3.413467088467088,8,34.1802230696655,10
subject-02,1,418,0.942126989364624,bird,bird,3,3_bird_10_n01601694_20287.png,True,0.3181859560210765,1.2148783206939695,0.5,-1.0667460643510642,26.055269360542297,10,1.317460317460317,10,37.13148508023228,10
subject-02,1,419,0.905797958374023,car,car,7,7_car_10_n02814533_6593.png,True,0.16510899182864114,1.377503752708435,0.125,-4.2201700985860375,26.63553488254547,10,0.29584859584859546,7,50.25482037257178,6
subject-02,1,420,0.751743078231812,car,cat,10,10_cat_10_n02123394_1690.png,False,-0.4840207187133305,1.3970632553100586,1.0,-0.4867994328461033,26.703619599342346,10,3.1499999999999995,9,33.43399380255854,10
subject-02,1,421,0.56746506690979,car,car,1,1_car_10_n04285008_10893.png,True,-1.2604994127883928,0.0633952990174293,1.0,-0.009448440276974359,24.710515059530735,10,3.4218614718614715,8,41.64775730207117,6
subject-02,1,422,0.863326072692871,bird,keyboard,40,40_keyboard_10_n03085013_25809.png,False,-0.013851667080234305,1.8223004341125488,0.2,-3.1772409746360113,26.24930453300476,10,0.7976911976911973,7,44.111277182154474,7
subject-02,1,423,0.443176031112671,clock,clock,1,1_clock_10_n03196217_8282.png,True,-1.784206975677979,0.0008737953030504,1.0,-7.27203106836769e-05,22.718662670406047,10,10.0,2,13.810634420448404,10
subject-02,1,424,0.806715965270996,truck,truck,3,3_truck_10_n03796401_23774.png,True,-0.25238551041313945,0.6952710747718811,1.0,-0.17085648952288804,26.094225704669952,10,1.517216117216117,10,42.14590879479926,10
subject-02,1,425,0.62870717048645,bottle,bottle,5,5_bottle_10_n03983396_8164.png,True,-1.0024480681571746,0.9186505079269408,0.5,-3.141708335934122,26.455270171165466,10,4.021428571428571,3,26.877795164029276,3
subject-02,1,426,0.694422960281372,chair,chair,1,1_chair_10_n02791124_15383.png,True,-0.725546281156099,0.000482126371935,1.0,-3.784966572193354e-05,24.276761575834826,10,2.158730158730158,9,46.11600802562142,10
subject-02,1,427,0.602660894393921,cat,bottle,40,40_bottle_10_n02823428_79.png,False,-1.1121973448112608,1.6538066864013672,1.0,-1.0654919761756878,26.47072672843933,10,3.916666666666666,10,23.529403316657337,10
subject-02,1,428,0.980257987976074,chair,chair,5,5_chair_10_n03376595_899.png,True,0.4788557385588178,1.546245813369751,1.0,-0.8563907863878621,27.058333039283752,10,1.0842032967032962,10,47.90108334454188,10
subject-02,1,429,0.890362024307251,bear,bottle,5,5_bottle_10_n04557648_9493.png,False,0.10006773248353572,1.225432515144348,0.3333333333333333,-2.955957914327702,26.328898787498474,10,3.098351648351648,10,26.923646187429423,3
subject-02,1,430,1.10375809669495,cat,bicycle,5,5_bicycle_10_n02835271_24207.png,False,0.9992390574811513,0.292928010225296,0.25,-5.090197385102453,25.929015666246414,10,1.226190476190476,9,39.20294593096881,6
subject-02,1,431,0.613892078399658,oven,car,40,40_car_10_n02814533_51701.png,False,-1.0648733313430885,1.574558973312378,0.1666666666666666,-3.907617161190539,25.460731863975525,10,0.45476190476190415,7,50.656625743874486,6
subject-02,1,432,0.813477039337158,dog,dog,15,15_dog_10_n02090721_583.png,True,-0.2238968702125228,1.4160624742507937,1.0,-0.6763592630708024,26.616774201393127,10,2.03502886002886,10,38.20717206834549,10
subject-02,1,433,0.589675903320312,clock,airplane,40,40_airplane_10_n02690373_9687.png,False,-1.1669112460471127,1.6956901550292969,0.2,-3.4753572278227938,26.139071941375732,10,4.866666666666666,0,24.5575822508395,5
subject-02,1,434,0.545163154602051,cat,keyboard,40,40_keyboard_10_n04505470_4492.png,False,-1.3544713393349017,1.4470889568328855,0.25,-3.1386891387856823,25.477665305137634,10,0.9461038961038957,5,43.411245451055926,6
subject-02,1,435,0.807251930236816,boat,boat,1,1_boat_10_n02951358_34917.png,True,-0.25012715428185556,0.0122889736667275,1.0,-0.0012622690284818507,25.895542548038065,10,2.378113553113553,10,29.7145761676088,10
subject-02,1,436,0.576597929000854,bicycle,bear,40,40_bear_10_n02133161_20090.png,False,-1.2220169439427484,1.185556173324585,0.125,-4.765487101603125,25.638781189918518,10,0.7305916305916302,9,43.38699732748732,7
subject-02,1,437,0.792318105697632,boat,car,3,3_car_10_n04285008_3410.png,False,-0.31305271166411053,1.7299574613571167,1.0,-1.0113166155871232,27.389121174812317,10,2.062612387612387,9,44.61701132744095,10
subject-02,1,438,0.792269945144653,bear,bird,7,7_bird_10_n01820546_1222.png,False,-0.3132556422417457,1.831300377845764,0.25,-2.9530038190187775,27.344248056411743,10,0.89527417027417,10,39.22924127730441,0
subject-02,1,439,0.754114866256714,oven,bottle,10,10_bottle_10_n02823428_4983.png,False,-0.4740268900683027,1.6514692306518557,0.3333333333333333,-1.8271957412261657,26.50772213935852,10,3.476190476190476,10,24.439861067827973,10
subject-02,1,440,0.634086847305298,boat,boat,15,15_boat_10_n02951358_13352.png,True,-0.9797801198714435,1.9196213483810425,0.0625,-6.137525190736214,27.07457959651947,10,1.4310897435897434,1,40.036996808249064,6
subject-02,1,441,0.659780979156494,elephant,elephant,0,0_elephant_10_n02504013_10990.png,True,-0.8715146474904478,0.0228982418775558,1.0,-0.0027149185353082554,26.125495240092278,10,3.0527777777777776,9,32.7585918052885,10
subject-02,1,442,0.655581951141357,truck,truck,0,0_truck_10_n03417042_24100.png,True,-0.8892077828037036,0.0063177966512739,1.0,-0.0006380924460768445,25.07124990457669,10,2.3327894327894327,9,41.62156374920082,10
subject-02,1,443,0.665302038192749,bottle,bottle,7,7_bottle_10_n04591713_6971.png,True,-0.8482509673604772,1.2519009113311768,0.25,-3.4368377428278367,26.079333424568176,10,2.5531135531135534,10,29.391269597204648,3
subject-02,1,444,0.755527019500732,oven,oven,5,5_oven_10_n04111531_4155.png,True,-0.46807660387364197,0.0532533600926399,0.5,-5.753807947809475,24.472146816551685,10,0.8541666666666665,9,61.036733544507584,6
subject-02,1,445,0.547053813934326,boat,boat,7,7_boat_10_n03662601_16925.png,True,-1.3465048072525672,1.675628423690796,0.2,-3.474159803720033,27.106640338897705,10,1.863690476190476,1,34.31020834109995,6
subject-02,1,446,0.532850027084351,bear,bear,1,1_bear_10_n02132136_22604.png,True,-1.4063542585520836,0.0090659111738204,1.0,-0.0008788989779230425,26.522746726870537,10,3.412301587301587,9,30.219751808102327,10
subject-02,1,447,0.544494152069092,clock,boat,40,40_boat_10_n03662601_33625.png,False,-1.3572902660717283,2.0603723526000977,0.0833333333333333,-4.054435316665265,26.279696226119995,10,1.9936868686868685,1,32.143591858619814,6
subject-02,1,448,0.852566003799438,oven,oven,1,1_oven_10_n04111531_9427.png,True,-0.0591905774721551,0.0188400149345397,1.0,-0.002174654126020992,24.879010379314423,10,2.0875,9,54.63063370601288,6
subject-02,1,449,1.18406987190247,elephant,elephant,1,1_elephant_10_n02504458_1626.png,True,1.3376428740005928,0.0266144443303346,1.0,-0.002988986345583843,26.103877322748303,10,3.1670995670995667,9,32.44983051568204,10
subject-02,1,450,0.876100063323975,airplane,bicycle,40,40_bicycle_10_n03792782_11851.png,False,0.03997315711994656,1.6817177534103394,0.0833333333333333,-5.319486538470829,26.122508883476257,10,0.7107864357864355,3,43.9190903739953,7
subject-02,1,451,0.645893096923828,bicycle,bicycle,0,0_bicycle_10_n03792782_9512.png,True,-0.930032994753511,0.0074105905368924,1.0,-0.0007329884686478907,26.097707335837185,10,3.117857142857143,9,30.32118561960089,10
subject-02,1,452,0.875517129898071,oven,chair,10,10_chair_10_n04099969_3623.png,False,0.037516893445124586,1.7975890636444092,0.1111111111111111,-4.422225139227933,27.255987763404846,10,0.13148656898656846,10,52.37950292278342,7
subject-02,1,453,1.21371603012085,car,car,3,3_car_10_n02814533_3202.png,True,1.4625607090293424,0.6115871667861938,0.5,-2.6936875170732937,25.63115656375885,10,2.038095238095238,9,46.02715824116599,6
subject-02,1,454,0.879539966583252,boat,chair,15,15_chair_10_n02791124_3857.png,False,0.054467624318424966,1.3926568031311035,0.0769230769230769,-6.267274671293987,26.40883958339691,10,0.09253663003662947,2,55.18366025872577,7
subject-02,1,455,0.617372035980225,clock,airplane,40,40_airplane_10_n02690373_2656.png,False,-1.0502100901988511,1.6344003677368164,0.25,-3.1672148504634854,26.099791169166565,10,4.749999999999999,0,24.340306147595058,5
subject-02,1,456,0.629181861877441,boat,boat,5,5_boat_10_n04273569_22274.png,True,-1.0004478959786218,1.639153003692627,0.2,-3.3024331635776525,27.37202262878418,10,1.6130341880341879,1,35.78811301120827,6
subject-02,1,457,0.873119831085205,bicycle,bicycle,3,3_bicycle_10_n03792782_9280.png,True,0.02741557187035985,1.4817359447479248,1.0,-0.4737261597773311,27.689551830291748,10,3.9607142857142854,8,32.282955545498446,10
subject-02,1,458,0.868582010269165,bear,truck,15,15_truck_10_n03417042_10229.png,False,0.008294890265933167,1.8101187944412231,0.0714285714285714,-5.8561153749331645,26.930158019065857,10,0.16142191142191106,1,51.53178348102773,7
subject-02,1,459,0.90241813659668,oven,clock,5,5_clock_10_n02708093_8051.png,False,0.15086768554879576,0.1286094188690185,1.0,-0.01968134396755374,23.89372420310974,10,9.5,3,15.255290278737641,10
subject-02,1,460,0.960129976272583,chair,keyboard,15,15_keyboard_10_n03085013_18797.png,False,0.3940438169967658,1.6220638751983645,0.3333333333333333,-1.9484195660146741,26.538902401924133,10,1.0550366300366296,10,41.74178352409393,6
subject-02,1,461,1.29218292236328,clock,clock,10,10_clock_10_n02708093_6730.png,True,1.7931908779758718,0.5688140392303467,1.0,-0.12100821543371387,25.152414798736572,10,9.5,3,16.173974643562754,10
subject-02,1,462,1.20595502853394,knife,clock,5,5_clock_10_n03196217_743.png,False,1.4298587478258016,1.268571376800537,1.0,-0.461681780880879,26.078396916389465,10,9.5,3,17.019509806515355,10
subject-02,1,463,0.669749021530151,clock,clock,3,3_clock_10_n04548280_4225.png,True,-0.8295130409544589,0.0178476125001907,1.0,-0.0020686909053135947,23.887759044766426,10,8.5,4,16.170119649624095,10
subject-02,1,464,0.593419075012207,clock,chair,40,40_chair_10_n02791124_1935.png,False,-1.1511389189736325,1.6977097988128662,0.1428571428571428,-4.02938920884778,26.4946072101593,10,0.17600732600732547,10,50.52766758991459,7
subject-02,1,465,0.65320086479187,clock,clock,5,5_clock_10_n04548280_1097.png,True,-0.8992407911147101,0.4113492965698242,1.0,-0.09228307123499635,25.095028400421143,10,9.0,3,16.64697260946013,10
