subject_id,Session,trial,rt,object_response,category,condition,item_id,response_correct,rt_zscore,output_entropy,output_rank_correct,output_logprob_correct,auc_entropy,layer_biggest_change_entropy,auc_rank_correct,layer_biggest_change_rank_correct,auc_logprob_correct,layer_biggest_change_logprob_correct
subject-04,1,1,0.963965892791748,bear,airplane,2-0-10,2-0-10_airplane_10_n02690373_1979.png,False,0.5092380441912029,0.4821734428405761,1.0,-0.10037579932527313,26.44478690624237,10,3.9873015873015873,10,25.892759525213375,10
subject-04,1,2,1.4842050075531,bear,elephant,32-0-10,32-0-10_elephant_10_n02504458_10344.png,False,3.370611339910802,0.6967694759368896,0.5,-3.607020468960674,27.41569209098816,10,2.1996753246753245,8,36.422713020528825,6
subject-04,1,3,0.701827049255371,clock,clock,2-0-10,2-0-10_clock_10_n02708093_1701.png,True,-0.9325549032881282,0.0527173653244972,1.0,-0.008691240793685885,24.690641798079014,10,10.083333333333332,3,16.494594076976945,10
subject-04,1,4,1.33755588531494,boat,clock,8-0-10,8-0-10_clock_10_n02708093_6822.png,False,2.5640247717219027,1.4544894695281982,0.3333333333333333,-2.8924475191374692,27.442251682281494,10,6.716666666666666,2,22.670270880268184,5
subject-04,1,5,0.827467918395996,cat,chair,128-0-10,128-0-10_chair_10_n03376595_8409.png,False,-0.2415160759310193,1.9520552158355713,0.125,-3.817688655742493,27.965592980384827,10,0.17543290043289989,10,52.29208759550962,6
subject-04,1,6,1.45340204238892,bottle,car,16-0-10,16-0-10_car_10_n03100240_7788.png,False,3.201191587629782,0.8653916716575623,0.0666666666666666,-6.050772022283369,27.16032749414444,10,0.28525641025640963,7,52.13708162623988,6
subject-04,1,7,1.46707010269165,dog,cat,8-0-10,8-0-10_cat_10_n02123045_964.png,False,3.276367447431206,2.009053945541382,0.25,-2.3795435919953065,28.483786821365356,10,4.226190476190476,6,30.12164077266763,0
subject-04,1,8,0.91098690032959,bear,dog,16-0-10,16-0-10_dog_10_n02106030_19249.png,False,0.21784766241475986,1.9620113372802737,1.0,-1.146698117414324,28.69632387161255,10,2.386111111111111,10,33.84415279329421,10
subject-04,1,9,1.00059795379639,bear,airplane,16-0-10,16-0-10_airplane_10_n02690373_1909.png,False,0.7107184753078383,2.1275105476379395,0.1666666666666666,-3.068438744732525,28.29340159893036,10,3.2325757575757574,0,29.60433623795309,4
subject-04,1,10,1.11688613891602,cat,cat,128-0-10,128-0-10_cat_10_n02124075_6464.png,True,1.350316494887057,2.163182020187378,1.0,-1.2050682023023183,28.573142766952515,10,5.405555555555555,6,29.419196694345892,10
subject-04,1,11,1.15230107307434,keyboard,truck,64-0-10,64-0-10_truck_10_n03796401_25570.png,False,1.54510259226993,2.235713481903076,0.0666666666666666,-5.1153399770234556,28.547093152999878,10,0.1786380286380283,7,48.60298528363128,7
subject-04,1,12,1.50012898445129,dog,knife,32-0-10,32-0-10_knife_10_n03041632_87380.png,False,3.4581949932065337,2.26772141456604,0.0909090909090909,-3.6055361269907316,28.529623866081238,10,0.9259379509379508,7,39.21154995848747,6
subject-04,1,13,1.00197005271912,bear,bicycle,32-0-10,32-0-10_bicycle_10_n02835271_15524.png,False,0.7182651727882575,2.1677708625793457,0.2,-2.640570061910696,29.06324076652527,10,1.3877344877344877,3,33.312540853022746,6
subject-04,1,14,1.00567603111267,car,oven,16-0-10,16-0-10_oven_10_n04111531_5792.png,False,0.7386484682939833,1.8686294555664065,0.1111111111111111,-3.6825901070353644,28.568439483642578,10,0.16666666666666663,8,59.996168390646034,7
subject-04,1,15,1.03941607475281,boat,knife,16-0-10,16-0-10_knife_10_n03041632_7680.png,False,0.9242224805683152,2.1310083866119385,0.25,-2.712484493193024,28.783960342407227,10,1.5247474747474747,8,37.14432966242782,5
subject-04,1,16,1.13130879402161,bear,truck,32-0-10,32-0-10_truck_10_n03796401_6971.png,False,1.42964271047052,1.6947808265686035,0.0625,-4.836765434264913,28.29734492301941,10,0.1494963369963367,2,48.73633483157169,7
subject-04,1,17,0.903536081314087,bicycle,bottle,128-0-10,128-0-10_bottle_10_n04557648_4106.png,False,0.1768673248021608,2.22359561920166,0.1111111111111111,-3.859820375193291,28.434858083724976,10,4.096230158730158,1,28.224420351093578,4
subject-04,1,18,0.936952829360962,keyboard,keyboard,4-0-10,4-0-10_keyboard_10_n04505470_3306.png,True,0.3606631751679695,0.000579152489081,1.0,-4.6969563135668356e-05,24.69154218235053,10,2.761544011544011,9,35.227273523386735,10
subject-04,1,19,0.894726037979126,bear,bottle,64-0-10,64-0-10_bottle_10_n04591713_360.png,False,0.12841110146656257,2.15798282623291,0.1666666666666666,-2.7562733319910113,28.218130111694336,10,4.451165501165501,1,25.651258816403633,4
subject-04,1,20,0.934542894363403,bottle,bottle,1-0-10,1-0-10_bottle_10_n04579145_5979.png,True,0.34740826324232776,0.0126674743369221,1.0,-0.0013516735591548965,24.9296918483451,10,7.583333333333333,1,18.38501924493604,10
subject-04,1,21,0.986582040786743,elephant,elephant,2-0-10,2-0-10_elephant_10_n02504013_7926.png,True,0.6336293867272342,0.0512305870652198,1.0,-0.00781272042069383,26.378116883337498,10,3.498484848484848,8,33.88920466832348,10
subject-04,1,22,0.958269119262695,cat,bottle,128-0-10,128-0-10_bottle_10_n03983396_4540.png,False,0.47790515286242946,1.5147714614868164,0.2,-3.487186078632771,27.182861804962158,10,3.983333333333333,1,27.251593810612427,4
subject-04,1,23,1.15247893333435,bird,clock,16-0-10,16-0-10_clock_10_n04548280_5130.png,False,1.546080843585377,1.6947612762451172,1.0,-0.6702923345515023,27.484443068504333,10,8.041666666666666,10,19.568165268820046,10
subject-04,1,24,1.25591015815735,keyboard,elephant,128-0-10,128-0-10_elephant_10_n02504013_4247.png,False,2.1149641440805067,1.751820087432861,0.3333333333333333,-2.888193555577749,28.336387157440186,10,1.2524531024531023,10,37.32433110078965,6
subject-04,1,25,0.887659072875977,boat,knife,32-0-10,32-0-10_knife_10_n03041632_12949.png,False,0.08954200328810515,1.4564433097839355,0.1111111111111111,-4.328457287868338,28.07990837097168,10,0.7918470418470418,7,41.5215933148265,6
subject-04,1,26,1.02743005752563,bear,oven,32-0-10,32-0-10_oven_10_n04111531_16795.png,False,0.8582980457406484,2.1730422973632812,0.1,-3.9393770640754897,28.572562098503113,10,0.0871794871794871,10,60.494103518398,6
subject-04,1,27,1.06334400177002,chair,chair,8-0-10,8-0-10_chair_10_n02791124_1704.png,True,1.0558287543879596,2.268599033355713,0.1,-3.5144094751601402,28.281611442565918,10,0.15695970695970649,10,50.69440482840544,7
subject-04,1,28,0.909283876419067,boat,boat,4-0-10,4-0-10_boat_10_n02951358_13456.png,True,0.20848084050292115,0.0779917761683464,1.0,-0.009935759411823697,26.255452565848827,10,2.2797619047619047,10,30.207046589806605,10
subject-04,1,29,0.936969995498657,bear,bicycle,64-0-10,64-0-10_bicycle_10_n02835271_1918.png,False,0.3607575908445254,2.2638959884643555,0.125,-3.185878385050845,29.17392635345459,10,1.180988455988456,3,33.43887424513758,6
subject-04,1,30,0.894742965698242,airplane,airplane,1-0-10,1-0-10_airplane_10_n02690373_8653.png,True,0.12850420581427804,0.016588756814599,1.0,-0.0018473034356388405,25.26754386164248,10,6.616666666666667,8,21.620630622365248,9
subject-04,1,31,0.986893892288208,dog,car,64-0-10,64-0-10_car_10_n03100240_5527.png,False,0.6353446048513679,2.3284924030303955,0.0714285714285714,-4.64336634349696,28.944565534591675,10,0.252355977355977,8,50.70812208588658,7
subject-04,1,32,1.12029600143433,keyboard,clock,64-0-10,64-0-10_clock_10_n02708093_1430.png,False,1.369071119972183,1.1459038257598877,1.0,-0.29705702721030325,27.171581983566284,10,8.392857142857142,10,19.580501256679494,10
subject-04,1,33,0.878310918807983,bear,truck,32-0-10,32-0-10_truck_10_n03417042_6373.png,False,0.038126110758184506,2.1940393447875977,0.0833333333333333,-4.358952515637293,28.999023914337158,10,0.2007992007992005,7,48.15367310259664,7
subject-04,1,34,0.987933158874512,bird,knife,8-0-10,8-0-10_knife_10_n03041632_86783.png,False,0.6410606872696385,2.0320382118225098,0.2,-2.8654938225630704,28.569663524627686,10,1.9707070707070706,7,35.825150973514745,6
subject-04,1,35,0.891707897186279,bottle,knife,64-0-10,64-0-10_knife_10_n03041632_55711.png,False,0.11181098966732578,1.6218674182891846,0.5,-1.1447962161352732,28.19551730155945,10,2.683008658008658,9,35.692419847747395,10
subject-04,1,36,1.33578014373779,bear,clock,8-0-10,8-0-10_clock_10_n03196217_911.png,False,2.554257994513528,1.89719557762146,0.5,-1.7882650012119752,28.01391315460205,10,7.5,2,21.11285799808941,10
subject-04,1,37,,na,chair,2-0-10,2-0-10_chair_10_n02791124_17035.png,False,,1.492400050163269,0.5,-1.449362698350572,27.755421042442322,10,0.7662087912087907,10,46.69739191180216,7
subject-04,1,38,0.843478202819824,boat,keyboard,32-0-10,32-0-10_keyboard_10_n03085013_3264.png,False,-0.15345772159479856,2.426363468170166,0.0666666666666666,-4.640422453686511,29.370852947235107,10,0.2590409590409586,3,46.513322669700365,7
subject-04,1,39,1.24897718429565,bird,bottle,64-0-10,64-0-10_bottle_10_n04591713_5815.png,False,2.0768320127107036,2.443695545196533,0.1666666666666666,-2.639763282834585,29.05845594406128,4,4.726785714285714,1,26.3478625018812,10
subject-04,1,40,0.811040878295898,bear,oven,16-0-10,16-0-10_oven_10_n04111531_8988.png,False,-0.33186663308145076,1.0066090822219849,0.1666666666666666,-4.007376040027674,27.52416694164276,10,0.1602564102564101,10,60.66723461906015,7
subject-04,1,41,0.747083902359009,boat,bird,32-0-10,32-0-10_bird_10_n01797886_14611.png,False,-0.6836371513454311,2.1357710361480713,0.1666666666666666,-3.1827135341942294,28.8256778717041,10,0.896428571428571,9,36.479889061316435,0
subject-04,1,42,0.838566064834595,bear,bear,16-0-10,16-0-10_bear_10_n02132136_9055.png,True,-0.18047502970757265,1.7649118900299072,0.3333333333333333,-1.813549903953798,28.28140687942505,10,1.945238095238095,6,30.66175554884951,0
subject-04,1,43,0.742312908172607,bird,bird,2-0-10,2-0-10_bird_10_n01855672_1001.png,True,-0.7098781527842918,0.1139870285987854,1.0,-0.01861548437655312,26.219508707523346,10,1.8944805194805192,10,33.6486558003816,10
subject-04,1,44,0.802234888076782,boat,car,16-0-10,16-0-10_car_10_n03100240_3386.png,False,-0.38030056382674876,1.9902528524398804,0.0714285714285714,-5.31446307970851,28.80869996547699,10,0.2368437118437115,7,50.02482679837436,6
subject-04,1,45,1.13592505455017,dog,car,32-0-10,32-0-10_car_10_n03100240_4605.png,False,1.4550326594914915,1.8280643224716189,0.0909090909090909,-4.133707493229604,28.398369431495667,10,0.5876123876123872,9,48.737152207266746,6
subject-04,1,46,0.861666917800903,boat,chair,16-0-10,16-0-10_chair_10_n04099969_16270.png,False,-0.05341775563762754,0.7013657689094543,0.1666666666666666,-4.750996653641743,27.297643959522247,10,0.20427905427905368,10,51.83349227278788,7
subject-04,1,47,1.03166389465332,car,car,2-0-10,2-0-10_car_10_n03100240_8794.png,True,0.881584623300576,0.2361339181661605,1.0,-0.05838733287577818,26.2582977861166,10,2.194047619047619,9,44.012556181046904,10
subject-04,1,48,0.795289993286133,truck,truck,8-0-10,8-0-10_truck_10_n04467665_21900.png,True,-0.4184982616385731,1.430920124053955,0.1666666666666666,-4.995319902460882,28.042701959609985,10,0.27655677655677624,10,47.666291301954374,7
subject-04,1,49,0.637353897094727,bird,bird,1-0-10,1-0-10_bird_10_n02027492_5222.png,True,-1.287164448493048,0.0077081015333533,1.0,-0.0007463497883789316,26.666536598466337,10,2.875793650793651,9,32.22327162513742,10
subject-04,1,50,1.40891194343567,keyboard,knife,128-0-10,128-0-10_knife_10_n03041632_35260.png,False,2.9564910692399846,2.2918734550476074,0.5,-1.6423240833561195,28.418503403663635,4,2.321067821067821,8,33.83030930933939,0
subject-04,1,51,1.21923995018005,bird,chair,128-0-10,128-0-10_chair_10_n04099969_20604.png,False,1.913273900349289,2.2103185653686523,0.0833333333333333,-3.9194794526326993,29.209370374679565,10,0.08095238095238026,10,51.729295319237885,7
subject-04,1,52,0.676837921142578,bear,bear,4-0-10,4-0-10_bear_10_n02133161_11816.png,True,-1.0699979017794319,0.9140802621841432,1.0,-0.6963779588649363,27.670392394065857,10,2.677380952380952,10,29.954934381607337,10
subject-04,1,53,0.856436014175415,keyboard,elephant,128-0-10,128-0-10_elephant_10_n02504458_4395.png,False,-0.08218831041092652,2.2666730880737305,0.1111111111111111,-3.6872387524424113,28.45093011856079,10,1.0679292929292927,8,38.2676330044775,6
subject-04,1,54,1.04215693473816,bottle,chair,8-0-10,8-0-10_chair_10_n04099969_4816.png,False,0.9392975169253652,1.882707118988037,0.1111111111111111,-4.8328127701019135,28.32985544204712,10,0.13400488400488347,10,52.16987803869871,7
subject-04,1,55,0.7360520362854,cat,cat,1-0-10,1-0-10_cat_10_n02124075_12622.png,True,-0.7443136481510593,0.0360190123319625,1.0,-0.004771272160026676,25.168443605303764,10,4.766666666666667,7,28.42844105796195,9
subject-04,1,56,1.25814700126648,boat,bicycle,32-0-10,32-0-10_bicycle_10_n03792782_10437.png,False,2.127267031267517,1.9432247877120972,0.125,-3.3216638639499916,29.12177336215973,10,1.2507936507936506,3,33.31715433463816,3
subject-04,1,57,0.785938024520874,boat,boat,1-0-10,1-0-10_boat_10_n02951358_9323.png,True,-0.46993513542994736,0.4732915163040161,1.0,-0.08809894014864698,26.73613142967224,10,2.3672008547008545,10,29.460401020837594,10
subject-04,1,58,0.775511980056763,truck,truck,1-0-10,1-0-10_truck_10_n03417042_2204.png,True,-0.5272795456503852,0.0099722063168883,1.0,-0.0010525757438241575,26.002189031802118,10,2.461385836385836,9,40.16793162421164,10
subject-04,1,59,0.985234022140503,keyboard,bear,128-0-10,128-0-10_bear_10_n02134418_278.png,False,0.6262151334597678,2.025928497314453,0.0769230769230769,-4.240982571235638,28.030543088912964,10,1.3864468864468862,6,34.867257018899174,6
subject-04,1,60,0.757292032241821,bear,bear,1-0-10,1-0-10_bear_10_n02134084_8601.png,True,-0.6274912956857419,0.000246733194217,1.0,-1.8239187634130024e-05,26.296615332132205,10,3.069047619047619,9,30.199827931422067,10
subject-04,1,61,1.23306107521057,bottle,oven,2-0-10,2-0-10_oven_10_n04111531_1662.png,False,1.9892916332667248,1.62181293964386,0.3333333333333333,-1.605809721640284,28.037500500679016,10,0.43809523809523804,10,56.69853129878832,6
subject-04,1,62,1.12289714813232,dog,dog,16-0-10,16-0-10_dog_10_n02107142_9379.png,True,1.3833777176283248,2.2733356952667236,1.0,-1.4898398019413261,29.542892932891846,10,2.127453102453102,10,34.79917434325071,10
subject-04,1,63,0.908694982528687,car,chair,16-0-10,16-0-10_chair_10_n02791124_9162.png,False,0.2052418582654572,2.189267873764038,0.1,-3.7118728230833327,29.09640645980835,10,0.08809523809523737,10,51.658412028075645,7
subject-04,1,64,0.938524007797241,boat,airplane,64-0-10,64-0-10_airplane_10_n02690373_3617.png,False,0.3693048322306865,2.2364916801452637,0.1,-4.078856184796885,28.98340368270874,10,2.5416666666666665,0,31.26260532797525,9
subject-04,1,65,0.740121126174927,chair,bicycle,128-0-10,128-0-10_bicycle_10_n02835271_9944.png,False,-0.7219331988203389,2.3515729904174805,0.0909090909090909,-4.054715741695217,28.770110368728638,10,1.2219696969696967,3,35.63399649322575,6
subject-04,1,66,1.00605201721191,keyboard,dog,64-0-10,64-0-10_dog_10_n02096051_3825.png,False,0.7407164338763499,2.3053388595581055,0.25,-1.989454958815496,28.860161781311035,10,1.4532106782106782,9,36.94657039610706,6
subject-04,1,67,1.39591598510742,keyboard,oven,64-0-10,64-0-10_oven_10_n04111531_21855.png,False,2.8850118454415252,2.118039131164551,0.0769230769230769,-4.62377409100837,28.373887538909912,10,0.0352564102564102,9,63.253783626164996,7
subject-04,1,68,1.3855299949646,oven,oven,8-0-10,8-0-10_oven_10_n04111531_16583.png,True,2.827887738466399,1.5611803531646729,0.125,-4.118177520177834,27.836764574050903,10,0.3095238095238094,7,58.47023432290784,7
subject-04,1,69,0.823570013046265,boat,truck,16-0-10,16-0-10_truck_10_n03417042_4157.png,False,-0.26295499115383797,2.3640453815460205,0.0666666666666666,-5.4180982081950715,29.28088641166687,10,0.16361971361971317,3,48.65136014334249,7
subject-04,1,70,0.791351079940796,boat,boat,2-0-10,2-0-10_boat_10_n03662601_2171.png,True,-0.44016272542206064,1.036701798439026,0.5,-2.293059648203898,26.913495898246765,10,1.7492424242424243,10,34.32811964759481,10
subject-04,1,71,1.09505105018616,bottle,clock,16-0-10,16-0-10_clock_10_n04548280_1438.png,False,1.2302210656343942,2.186309337615967,1.0,-1.4420279562332299,28.430485010147095,10,6.659523809523808,10,21.95087852421991,10
subject-04,1,72,0.772876977920532,airplane,airplane,8-0-10,8-0-10_airplane_10_n02690373_7536.png,True,-0.5417723520020071,2.184443473815918,0.1666666666666666,-2.765963014766245,28.698161125183105,10,2.8857142857142852,0,27.950087869481063,8
subject-04,1,73,0.980700969696045,keyboard,keyboard,2-0-10,2-0-10_keyboard_10_n03085013_7536.png,True,0.6012828382043088,0.0178822390735149,1.0,-0.0024332778067991585,25.536797057837248,10,2.552777777777777,9,38.36827082052628,10
subject-04,1,74,0.964564085006714,cat,chair,64-0-10,64-0-10_chair_10_n04099969_38787.png,False,0.5125281682534739,2.078920841217041,0.125,-3.65295558621426,28.769340753555298,10,0.13287545787545726,10,52.182694384881984,7
subject-04,1,75,0.956354856491089,keyboard,knife,128-0-10,128-0-10_knife_10_n03041632_33584.png,False,0.4673764935973985,2.2200987339019775,1.0,-1.6238417057872756,28.785253286361694,10,2.2976551226551223,10,35.58585194437238,10
subject-04,1,76,0.892413139343262,bear,chair,128-0-10,128-0-10_chair_10_n03376595_8196.png,False,0.11568990037924484,2.0515103340148926,0.1666666666666666,-2.892271417700974,28.26434028148651,10,0.19878454878454815,10,51.3817976938513,6
subject-04,1,77,1.1660270690918,keyboard,cat,64-0-10,64-0-10_cat_10_n02123394_292.png,False,1.6205971049797834,1.389064073562622,0.3333333333333333,-3.1759085479590303,27.45320701599121,10,3.8833333333333333,6,30.843167172423282,0
subject-04,1,78,0.903740882873535,airplane,airplane,2-0-10,2-0-10_airplane_10_n02690373_1706.png,True,0.1779937562766475,0.006415830925107,1.0,-0.0006068401647771606,25.532801972702146,10,7.416666666666666,0,22.106980691301327,10
subject-04,1,79,0.747745990753174,bicycle,bicycle,1-0-10,1-0-10_bicycle_10_n02835271_1530.png,True,-0.6799955911537513,0.0072111682966351,1.0,-0.0006917126620919703,25.285897930152714,10,2.669877344877345,9,32.8823622556537,10
subject-04,1,80,1.26753497123718,bicycle,knife,8-0-10,8-0-10_knife_10_n03041632_105581.png,False,2.178901915713876,1.117429494857788,0.1666666666666666,-4.412950468126169,27.45253849029541,10,1.6080808080808078,7,39.0233457552679,5
subject-04,1,81,0.898457050323486,cat,bottle,64-0-10,64-0-10_bottle_10_n04591713_2732.png,False,0.14893208650062567,1.5357236862182615,0.1428571428571428,-3.6105027444541875,28.323673486709595,10,4.179304029304028,1,27.277614735076597,4
subject-04,1,82,0.812441110610962,keyboard,truck,128-0-10,128-0-10_truck_10_n03796401_4898.png,False,-0.3241651987977834,1.7249599695205688,0.0714285714285714,-4.704265022546621,27.6835880279541,10,0.1898101898101895,8,50.655107518416564,7
subject-04,1,83,0.814217090606689,bear,boat,64-0-10,64-0-10_boat_10_n02951358_15252.png,False,-0.3143971102605796,2.1588563919067383,0.0909090909090909,-3.9124093218621665,28.84203553199768,10,1.051165501165501,0,36.719970534243515,7
subject-04,1,84,0.867970943450928,bird,bird,64-0-10,64-0-10_bird_10_n01582220_1814.png,True,-0.018744909750621444,2.2259433269500732,0.1111111111111111,-3.4274870248663403,29.39057493209839,10,0.7206460206460203,8,38.06296955151338,0
subject-04,1,85,1.07368493080139,bottle,bottle,8-0-10,8-0-10_bottle_10_n03983396_4496.png,True,1.1127050202121227,0.1978765130043029,1.0,-0.029532171836897693,26.70101672410965,10,6.041666666666666,10,21.891364103371057,10
subject-04,1,86,0.791702032089233,boat,bird,32-0-10,32-0-10_bird_10_n01532829_3.png,False,-0.43823244936799355,2.174657106399536,0.1111111111111111,-3.339686347907609,29.225573539733887,10,0.7773809523809523,6,36.564338869629566,0
subject-04,1,87,0.993346929550171,bicycle,chair,2-0-10,2-0-10_chair_10_n02791124_11523.png,False,0.6708370312640467,1.3526252508163452,0.3333333333333333,-2.122717373147858,27.310354113578796,10,0.4933913308913304,10,49.04705866645899,7
subject-04,1,88,0.65528392791748,bicycle,bicycle,2-0-10,2-0-10_bicycle_10_n02835271_6266.png,True,-1.1885472743284533,0.0468154437839984,1.0,-0.005966666379721026,26.241298127919436,10,2.58023088023088,9,33.5526184952116,10
subject-04,1,89,1.09108090400696,keyboard,oven,4-0-10,4-0-10_oven_10_n04111531_4332.png,False,1.208384817772722,1.589902639389038,0.1111111111111111,-4.222658511225848,27.391095399856567,10,0.1198523698523698,7,59.38124951219925,6
subject-04,1,90,0.88716197013855,keyboard,keyboard,2-0-10,2-0-10_keyboard_10_n03085013_22605.png,True,0.08680788265445159,0.0081563582643866,1.0,-0.0008972735194474282,24.983087955974042,10,3.158008658008658,9,35.757929519096024,6
subject-04,1,91,0.858683824539185,cat,bear,128-0-10,128-0-10_bear_10_n02134084_16227.png,False,-0.06982510209721943,1.757822036743164,0.0909090909090909,-4.450950373548822,28.33494257926941,10,1.4516233766233761,4,34.35968461241036,0
subject-04,1,92,0.952242851257324,dog,bottle,16-0-10,16-0-10_bottle_10_n04560804_5068.png,False,0.4447600050752855,1.561083436012268,0.3333333333333333,-2.644204345563448,27.3062504529953,10,4.201923076923077,1,25.133842142304204,4
subject-04,1,93,1.21831202507019,dog,chair,16-0-10,16-0-10_chair_10_n03376595_262.png,False,1.9081702084998229,1.5380982160568235,0.2,-3.529585027938,28.090590119361877,10,0.28536463536463497,10,50.87116622410306,7
subject-04,1,94,0.763937950134277,boat,bicycle,32-0-10,32-0-10_bicycle_10_n03792782_6159.png,False,-0.5909380042406298,2.3258090019226074,0.0909090909090909,-3.5590451729997143,29.077853202819824,10,0.9524531024531023,3,35.76256130717816,6
subject-04,1,95,1.02587389945984,car,car,64-0-10,64-0-10_car_10_n04285008_11893.png,True,0.8497390023949494,1.5601937770843506,0.1111111111111111,-4.763110548980466,28.083795309066772,10,0.27970085470085426,8,51.01721386426478,6
subject-04,1,96,0.891759872436523,keyboard,keyboard,4-0-10,4-0-10_keyboard_10_n04505470_4552.png,True,0.11209685935468067,0.0022115998435765,1.0,-0.00019939741511689624,25.36345687438734,10,2.939260739260739,9,35.456067785843196,10
subject-04,1,97,0.833889007568359,car,car,2-0-10,2-0-10_car_10_n02814533_20712.png,True,-0.20619936758304708,1.3713650703430176,0.5,-1.0176410783827157,27.192050099372864,10,2.039693639693639,9,43.41187734991466,6
subject-04,1,98,0.675282001495361,airplane,boat,4-0-10,4-0-10_boat_10_n04273569_16362.png,False,-1.078555633796323,1.847048282623291,1.0,-1.1998568042154616,28.483985900878906,10,2.624242424242424,10,27.774324684076962,10
subject-04,1,99,0.751237154006958,bottle,bottle,1-0-10,1-0-10_bottle_10_n03983396_12916.png,True,-0.6607938029338143,0.0024011260829865,1.0,-0.0002138247196852961,24.73908354109153,10,7.25,1,17.787507469728702,10
subject-04,1,100,0.909124135971069,bird,bird,2-0-10,2-0-10_bird_10_n01820546_4609.png,True,0.20760225017939737,0.0343308374285697,1.0,-0.003900555449535164,26.654043190181255,10,2.8670634920634916,9,31.215241102585477,10
subject-04,1,101,0.962795972824097,dog,cat,16-0-10,16-0-10_cat_10_n02123597_13197.png,False,0.502803353568024,0.4079844951629638,0.3333333333333333,-4.676163778006783,26.673414707183838,10,4.312301587301587,6,32.57681385347837,0
subject-04,1,102,0.78291392326355,bear,keyboard,16-0-10,16-0-10_keyboard_10_n03085013_24538.png,False,-0.48656803045020813,1.9822406768798828,0.0714285714285714,-5.458176746712481,28.29979658126831,10,0.4028610278610276,8,45.99787742384401,7
subject-04,1,103,0.914347887039185,dog,dog,2-0-10,2-0-10_dog_10_n02107908_5222.png,True,0.23633346508747008,0.8272719383239746,1.0,-0.5205835286110551,26.71406877040863,10,2.3004329004329005,10,34.24072326465139,10
subject-04,1,104,0.760061979293823,car,car,16-0-10,16-0-10_car_10_n04285008_7904.png,True,-0.6122562772100709,1.2707523107528689,0.0769230769230769,-4.866637345791081,27.314502477645874,10,0.38241758241758184,7,49.7165880449407,6
subject-04,1,105,0.720345020294189,bottle,bottle,1-0-10,1-0-10_bottle_10_n04560804_433.png,True,-0.8307039922014265,0.3553133010864258,1.0,-0.0845960599187257,25.51913356781006,10,6.083333333333333,10,19.45608953862055,10
subject-04,1,106,1.10423016548157,chair,knife,4-0-10,4-0-10_knife_10_n03041632_29680.png,False,1.280707226015984,1.7398964166641235,0.0769230769230769,-4.967245560140557,27.86356794834137,10,1.1615190365190364,5,40.155908259479844,6
subject-04,1,107,0.725802898406982,keyboard,airplane,128-0-10,128-0-10_airplane_10_n02690373_8524.png,False,-0.8006850523714173,1.0739532709121704,0.1428571428571428,-4.486950270881114,26.77400243282318,10,3.0523809523809526,0,31.411776160031494,6
subject-04,1,108,0.575495958328247,bear,car,32-0-10,32-0-10_car_10_n04285008_5869.png,False,-1.6273900276401645,2.2761735916137695,0.0714285714285714,-4.743498141663231,28.631622076034546,10,0.27255799755799714,7,51.219604146725985,6
subject-04,1,109,0.611376047134399,bottle,bottle,4-0-10,4-0-10_bottle_10_n04560804_15683.png,True,-1.4300455276883164,0.0058916737325489,1.0,-0.0005642575214919103,25.68576430575922,10,5.666666666666666,1,21.26708286462657,10
subject-04,1,110,0.685005187988281,bear,truck,32-0-10,32-0-10_truck_10_n03417042_16000.png,False,-1.0250770209993874,2.2779436111450195,0.0769230769230769,-3.987565520104734,29.179530382156372,10,0.20512820512820482,2,47.52706243942622,7
subject-04,1,111,0.636954069137573,boat,boat,1-0-10,1-0-10_boat_10_n04273569_13290.png,True,-1.2893635469595432,0.0003771390765905,1.0,-2.8789457838867064e-05,26.22678597830236,10,3.5,9,26.47140915839456,10
subject-04,1,112,0.792920112609863,bottle,chair,16-0-10,16-0-10_chair_10_n04099969_33329.png,False,-0.4315328703189139,2.041970729827881,0.1,-4.130266274344495,28.466593265533447,10,0.14597069597069548,7,52.03848947556735,7
subject-04,1,113,1.07869100570679,dog,cat,1-0-10,1-0-10_cat_10_n02123597_2009.png,False,1.1402389918883094,1.8654396533966064,0.5,-1.7227668242387795,28.58245849609375,10,2.5424603174603173,8,33.902641416915905,0
subject-04,1,114,1.17044711112976,oven,oven,4-0-10,4-0-10_oven_10_n04111531_4998.png,True,1.6449078303645495,1.1439030170440674,0.25,-3.10297886160944,27.680994510650635,10,0.2547008547008546,10,58.94888984865939,6
subject-04,1,115,1.01211309432983,dog,dog,8-0-10,8-0-10_dog_10_n02101388_9815.png,True,0.7740530356742921,0.2166865170001983,1.0,-0.03866937915048818,26.843946009874344,10,3.0198773448773446,9,33.034049710563266,10
subject-04,1,116,0.862228870391846,keyboard,clock,128-0-10,128-0-10_clock_10_n04548280_5466.png,False,-0.05032695355919772,2.118124008178711,1.0,-1.1054352398301057,27.98029136657715,10,8.041666666666666,10,20.50059742591061,10
subject-04,1,117,1.20570111274719,cat,boat,16-0-10,16-0-10_boat_10_n03662601_1191.png,False,1.8388087807797127,1.9810391664505005,0.1111111111111111,-4.031638931884094,28.679219841957092,10,1.2095959595959593,3,33.94901295644434,3
subject-04,1,118,1.01550006866455,boat,dog,4-0-10,4-0-10_dog_10_n02086646_6567.png,False,0.7926817731906953,1.9712574481964111,0.1428571428571428,-3.630120275162844,28.61169958114624,10,1.1960678210678208,9,37.78091956745687,6
subject-04,1,119,0.6997230052948,bottle,bottle,8-0-10,8-0-10_bottle_10_n04591713_4474.png,True,-0.9441273803106597,0.683012843132019,1.0,-0.1450933611780294,26.84118402004242,10,4.35,10,22.557064353400353,10
subject-04,1,120,0.847142934799194,cat,cat,4-0-10,4-0-10_cat_10_n02125311_9074.png,True,-0.13330128597855456,0.5020120143890381,0.5,-2.5843085544948634,27.216100454330444,10,5.091666666666667,6,29.966728142748245,0
subject-04,1,121,0.992922067642212,bottle,dog,4-0-10,4-0-10_dog_10_n02093991_141.png,False,0.6685002432692416,0.7732676267623901,1.0,-0.273131662806927,27.152926921844482,10,2.4274531024531023,10,33.75652428558803,10
subject-04,1,122,0.736829996109009,bear,keyboard,16-0-10,16-0-10_keyboard_10_n04505470_1719.png,False,-0.7400347821426108,2.198653221130371,0.0625,-5.362601765772005,28.77204656600952,10,0.3292499167499165,8,45.199779877236956,7
subject-04,1,123,0.932924032211304,bear,car,32-0-10,32-0-10_car_10_n02814533_6498.png,False,0.3385043404113965,2.097196578979492,0.0714285714285714,-4.50866998171796,28.528774738311768,10,0.252355977355977,8,50.679947108189495,7
subject-04,1,124,0.846555948257446,oven,truck,16-0-10,16-0-10_truck_10_n03796401_7421.png,False,-0.13652977758529417,1.9269368648529053,0.0714285714285714,-5.476789051383459,28.253768801689148,10,0.1472527472527469,3,49.962597285162616,7
subject-04,1,125,0.828366994857788,keyboard,elephant,128-0-10,128-0-10_elephant_10_n02504013_6903.png,False,-0.23657105487130564,1.100109577178955,0.1666666666666666,-4.082664797604956,27.026371002197266,10,1.1948773448773444,2,37.770841357203686,2
subject-04,1,126,1.28816890716553,bottle,boat,32-0-10,32-0-10_boat_10_n04273569_3313.png,False,2.292390870265196,2.236222267150879,0.0714285714285714,-4.237696064203489,28.72802495956421,10,1.1942821067821068,1,36.27426170503155,3
subject-04,1,127,1.02001214027405,elephant,bird,16-0-10,16-0-10_bird_10_n01534433_31697.png,False,0.8174986715081562,2.355274200439453,0.25,-2.158682133669791,28.710907697677612,10,0.9607142857142856,10,37.040513793509255,6
subject-04,1,128,0.775867938995361,cat,bear,64-0-10,64-0-10_bear_10_n02134418_912.png,False,-0.525321731690656,1.8306976556777952,0.25,-2.189890009900669,28.665845274925232,10,2.0666666666666664,6,30.29446598581498,0
subject-04,1,129,0.679604053497314,keyboard,knife,128-0-10,128-0-10_knife_10_n03041632_85488.png,False,-1.0547838645652208,1.7882091999053955,0.3333333333333333,-2.423236730351368,27.550605416297913,10,2.1853535353535354,8,35.05087191631062,6
subject-04,1,130,0.943228006362915,car,knife,128-0-10,128-0-10_knife_10_n03041632_2438.png,False,0.3951773502652012,2.305758476257324,0.1428571428571428,-2.7948339196835454,28.95368480682373,10,0.9849567099567097,4,35.602106118314666,0
subject-04,1,131,0.935148954391479,boat,truck,8-0-10,8-0-10_truck_10_n04467665_45306.png,False,0.3507416611563532,1.902928590774536,0.0909090909090909,-4.539171932925856,28.80677318572998,10,0.2597125097125094,3,45.25851393881893,7
subject-04,1,132,0.712975025177002,boat,cat,128-0-10,128-0-10_cat_10_n02125311_19340.png,False,-0.8712397893368969,2.191490411758423,1.0,-1.5554634324487187,29.129728317260742,10,5.355555555555555,6,31.065316700972165,0
subject-04,1,133,0.874825000762939,dog,dog,1-0-10,1-0-10_dog_10_n02104365_179.png,True,0.018953171772750087,0.6382220983505249,1.0,-0.24530420579866064,26.23534893989563,10,2.4603535353535353,10,33.17705153996014,10
subject-04,1,134,0.694448947906494,bear,elephant,16-0-10,16-0-10_elephant_10_n02504458_5155.png,False,-0.9731352856041978,1.3004653453826904,0.5,-2.1162311256243864,28.17251682281494,10,1.7547008547008545,9,36.34364276910186,6
subject-04,1,135,0.906462907791138,truck,truck,2-0-10,2-0-10_truck_10_n04467665_78325.png,True,0.19296519765526324,0.4366161227226257,1.0,-0.16618308753353475,26.32579654455185,10,1.4514402264402262,10,41.48845741740978,10
subject-04,1,136,0.996286153793335,bird,bottle,16-0-10,16-0-10_bottle_10_n03983396_11597.png,False,0.6870030932168835,1.6365759372711182,0.0769230769230769,-5.284415480448539,28.354703664779663,10,3.912637362637362,4,30.187657622408217,4
subject-04,1,137,0.630238056182861,clock,clock,1-0-10,1-0-10_clock_10_n03196217_3063.png,True,-1.3263023690839335,0.2692422866821289,1.0,-0.05492737816595123,23.947173953056335,10,10.083333333333332,2,14.835004973164704,10
subject-04,1,138,0.659830093383789,cat,bicycle,64-0-10,64-0-10_bicycle_10_n02835271_7051.png,False,-1.1635428559867331,2.3543193340301514,0.0833333333333333,-4.200398989986574,28.933181285858154,10,1.0269841269841269,3,36.67193670871976,6
subject-04,1,139,0.832085132598877,boat,dog,128-0-10,128-0-10_dog_10_n02106030_11782.png,False,-0.21612088159465845,1.950932502746582,0.2,-2.8919137336479785,28.027420163154602,10,1.1294733044733043,7,38.91669103032045,6
subject-04,1,140,1.13179922103882,truck,truck,4-0-10,4-0-10_truck_10_n04467665_68250.png,True,1.432340113896611,2.264164686203003,0.3333333333333333,-1.83649828019514,28.93975031375885,10,0.544114219114219,10,43.30987263103119,10
subject-04,1,141,0.849299907684326,oven,oven,16-0-10,16-0-10_oven_10_n04111531_2650.png,True,-0.12143769395330088,2.078261137008667,0.1111111111111111,-4.075276909335736,28.35479712486267,10,0.0808913308913308,10,61.36477498200416,7
subject-04,1,142,1.19933390617371,keyboard,bottle,2-0-10,2-0-10_bottle_10_n04591713_6351.png,False,1.8037884327498588,0.0279245320707559,1.0,-0.0035805952108988568,24.556977981701493,10,6.416666666666666,1,20.123164116098838,10
subject-04,1,143,0.720765113830566,bird,bird,1-0-10,1-0-10_bird_10_n01614925_7662.png,True,-0.8283934307834432,0.0231828801333904,1.0,-0.0026009499590167805,25.770801555365324,10,2.1496031746031745,10,34.15183304111737,10
subject-04,1,144,1.13478493690491,bottle,chair,1-0-10,1-0-10_chair_10_n02791124_3601.png,False,1.4487618849734651,0.5823092460632324,0.5,-2.3229391303163482,26.01609992980957,10,1.098351648351648,9,46.59591506319253,7
subject-04,1,145,0.756414175033569,elephant,elephant,1-0-10,1-0-10_elephant_10_n02504458_3851.png,True,-0.6323196084785995,0.003588443621993,1.0,-0.00032269200163327367,26.465250497683883,10,4.158008658008658,8,31.471587367125068,10
subject-04,1,146,0.700455904006958,car,car,4-0-10,4-0-10_car_10_n04285008_3445.png,True,-0.9400963554531802,0.6532829999923706,1.0,-0.24956920389636555,26.55709183216095,10,2.2558913308913304,9,42.497664313633415,10
subject-04,1,147,0.864006042480469,cat,truck,64-0-10,64-0-10_truck_10_n03796401_25102.png,False,-0.040552308377786096,2.2116923332214355,0.0625,-4.955823571666953,28.254737854003906,10,0.15956959706959678,7,49.965605105536355,7
subject-04,1,148,0.652314901351929,boat,dog,128-0-10,128-0-10_dog_10_n02093991_196.png,False,-1.2048772523864215,1.2764060497283936,1.0,-0.35054505716685314,28.24311876296997,10,2.58502886002886,10,34.41315773344555,10
subject-04,1,149,0.643695116043091,bicycle,bicycle,1-0-10,1-0-10_bicycle_10_n02835271_17357.png,True,-1.2522870353068376,1.5859253406524658,1.0,-0.5834911253802841,27.52993369102478,10,2.096067821067821,10,33.48173565714983,10
subject-04,1,150,0.969558954238892,bear,airplane,32-0-10,32-0-10_airplane_10_n02690373_2874.png,False,0.5400005074741071,0.0125539936125278,0.5,-8.435554559357756,26.57943183556199,10,3.0353535353535355,0,35.99866571057692,4
subject-04,1,151,0.771708011627197,elephant,elephant,2-0-10,2-0-10_elephant_10_n02504013_1692.png,True,-0.5482017973098237,1.921966314315796,1.0,-1.344613665564703,28.31623661518097,10,2.117532467532467,10,34.75865586509405,10
subject-04,1,152,0.8650062084198,bear,bicycle,32-0-10,32-0-10_bicycle_10_n02835271_9482.png,False,-0.03505128388945442,2.2548577785491943,0.1428571428571428,-3.076208653095074,29.157665014266968,10,1.3167027417027417,3,33.9652171703251,3
subject-04,1,153,0.831322908401489,boat,boat,16-0-10,16-0-10_boat_10_n04612504_1491.png,True,-0.22031319989959325,2.0303220748901367,0.1428571428571428,-3.4192769404406103,28.75001621246338,10,1.7308913308913307,0,30.749155018039804,3
subject-04,1,154,0.728940010070801,car,car,2-0-10,2-0-10_car_10_n02814533_211.png,True,-0.7834305874804797,0.0542324185371398,1.0,-0.00929537827862465,25.839777767658234,10,3.0078754578754574,8,41.867580897578,6
subject-04,1,155,0.947048902511597,keyboard,truck,8-0-10,8-0-10_truck_10_n03417042_27093.png,False,0.41619270627235516,2.1450977325439453,0.0769230769230769,-5.1169249163749795,28.745362520217896,10,0.1701465201465198,7,48.53328017836167,7
subject-04,1,156,0.946456909179688,keyboard,chair,8-0-10,8-0-10_chair_10_n04099969_3404.png,False,0.41293667675995416,1.58986496925354,0.1111111111111111,-4.752619337795152,28.433852672576904,10,0.19689754689754638,7,51.91991415773145,7
subject-04,1,157,1.05223107337952,bear,dog,2-0-10,2-0-10_dog_10_n02101006_1160.png,False,0.9947064057763838,0.8535646200180054,0.5,-2.2404612835014555,27.037840962409973,10,1.6790404040404039,9,36.30383719395872,6
subject-04,1,158,0.776100873947144,truck,truck,4-0-10,4-0-10_truck_10_n03417042_14574.png,True,-0.5240405634129163,0.0043532503768801,1.0,-0.0004248925573736528,26.43009218107909,10,2.0969169719169716,9,41.14147541390647,10
subject-04,1,159,0.704024076461792,boat,boat,1-0-10,1-0-10_boat_10_n04273569_29113.png,True,-0.9204710080175731,0.0267843604087829,1.0,-0.0031484405021192756,26.264310777187347,10,2.512337662337662,10,28.939001429952583,10
subject-04,1,160,0.991878986358643,keyboard,knife,16-0-10,16-0-10_knife_10_n03041632_14766.png,False,0.6627631795895174,1.3567603826522827,0.5,-2.9866873049531066,27.046611309051514,10,2.043362193362193,8,37.4230286812074,6
subject-04,1,161,1.19128799438477,bird,bird,1-0-10,1-0-10_bird_10_n01798484_4934.png,True,1.7595350183499259,0.1190534085035324,1.0,-0.018093692544352072,26.872294709086418,10,1.7436868686868683,10,33.43916843726484,10
subject-04,1,162,1.39071798324585,oven,oven,8-0-10,8-0-10_oven_10_n04111531_4944.png,True,2.8564222540483057,2.023388385772705,0.1666666666666666,-3.4377772011395917,28.792417764663696,10,0.2020202020202019,10,59.08888873844405,7
subject-04,1,163,0.592379808425903,bear,bear,4-0-10,4-0-10_bear_10_n02134084_7079.png,True,-1.5345269644302262,0.6237125992774963,1.0,-0.17161755021885944,26.972374260425568,10,2.3285714285714283,10,30.016994692243642,10
subject-04,1,164,0.69258189201355,cat,dog,64-0-10,64-0-10_dog_10_n02097130_5859.png,False,-0.9834043017586954,2.1387691497802734,0.25,-2.0777550802249687,28.74471139907837,10,1.2123737373737373,6,36.58511792566115,6
subject-04,1,165,0.746132135391235,boat,bear,64-0-10,64-0-10_bear_10_n02134084_7904.png,False,-0.6888719760790266,2.127641201019287,0.1666666666666666,-2.703498755526742,29.138291597366333,10,1.542857142857142,5,31.445581301933696,5
subject-04,1,166,0.735930919647217,bird,bird,2-0-10,2-0-10_bird_10_n01592084_3147.png,True,-0.7449798032023244,0.5227934122085571,1.0,-0.10359072533661441,26.247848749160767,10,2.1044011544011543,10,34.357544937136865,10
subject-04,1,167,0.717639207839966,bear,bicycle,64-0-10,64-0-10_bicycle_10_n03792782_973.png,False,-0.8455862632188427,1.6975384950637815,0.1,-4.650216636301469,28.544798731803894,10,1.4588383838383838,3,34.554949225178504,6
subject-04,1,168,0.951797962188721,bear,bear,16-0-10,16-0-10_bear_10_n02132136_1858.png,True,0.4423130654578328,2.13484263420105,0.25,-2.039059593001197,28.543180227279663,10,1.6357142857142852,6,31.89771189742258,0
subject-04,1,169,0.769705057144165,car,car,8-0-10,8-0-10_car_10_n03100240_7134.png,True,-0.5592182709037377,1.9317471981048584,0.0909090909090909,-4.204867998153114,27.72238540649414,10,0.31389998889998844,7,50.23354761652215,6
subject-04,1,170,0.997084140777588,keyboard,bear,64-0-10,64-0-10_bear_10_n02132136_11027.png,False,0.6913921108479797,2.160207986831665,0.1666666666666666,-2.847170039773435,28.55727458000183,10,1.5702380952380945,5,33.392093274123766,5
subject-04,1,171,0.863219022750854,oven,knife,32-0-10,32-0-10_knife_10_n03041632_24384.png,False,-0.04488100488219569,2.2930355072021484,0.2,-2.6944984400445655,28.68709969520569,10,1.3734848484848483,7,37.73138897494928,6
subject-04,1,172,0.992606163024902,dog,dog,2-0-10,2-0-10_dog_10_n02089078_10601.png,True,0.6667627325548079,0.8648207783699036,0.5,-1.1257489027281902,26.65743523836136,10,1.9643217893217892,8,35.289337218498964,6
subject-04,1,173,1.12088513374329,car,knife,32-0-10,32-0-10_knife_10_n03041632_383.png,False,1.3723114135384924,1.0086758136749268,0.25,-3.710170488338274,27.34616494178772,10,1.2660173160173158,7,40.131129261826246,6
subject-04,1,174,0.8142249584198,bear,bear,32-0-10,32-0-10_bear_10_n02134418_2633.png,True,-0.31435383640882025,2.2934999465942383,0.1428571428571428,-2.895316740286807,28.831366062164307,10,1.639682539682539,6,33.016160135055934,0
subject-04,1,175,0.702482938766479,bird,bird,4-0-10,4-0-10_bird_10_n01592084_7870.png,True,-0.9289474376463183,0.1873252987861633,1.0,-0.032168095311549835,26.908943951129913,10,1.854401154401154,10,33.39578709842849,10
subject-04,1,176,1.08406805992126,knife,knife,2-0-10,2-0-10_knife_10_n03041632_31301.png,True,1.1698133912411508,0.000138402057928,1.0,-9.477183427537078e-06,25.767674446178717,10,4.449675324675325,7,31.721624411787634,10
subject-04,1,177,0.681895971298218,bear,bottle,64-0-10,64-0-10_bottle_10_n02823428_1034.png,False,-1.0421780604159125,0.2742473483085632,0.25,-5.521727031195509,26.3432599902153,10,4.529004329004328,1,28.931305507038495,4
subject-04,1,178,0.907675981521606,keyboard,airplane,128-0-10,128-0-10_airplane_10_n02690373_6929.png,False,0.1996372387986753,2.323612928390503,0.125,-3.603044430638641,29.009687185287476,10,2.1273809523809524,0,31.29233321233962,7
subject-04,1,179,0.741297960281372,boat,airplane,64-0-10,64-0-10_airplane_10_n02690373_8543.png,False,-0.7154604796607686,0.0877542644739151,0.25,-6.7632799014433855,26.428579345345497,10,2.9579365079365076,0,32.87869337387368,9
subject-04,1,180,0.779093980789185,keyboard,dog,128-0-10,128-0-10_dog_10_n02101006_17876.png,False,-0.5075781411419947,2.148538589477539,0.1111111111111111,-3.6546350308687723,28.09917449951172,10,0.8707070707070708,7,40.31146584039131,6
subject-04,1,181,1.40294098854065,boat,oven,16-0-10,16-0-10_oven_10_n04111531_2937.png,False,2.923650149743968,2.2437891960144043,0.2,-2.3252922262661744,28.48593020439148,10,0.277020202020202,10,59.03798153763653,6
subject-04,1,182,0.846845865249634,dog,bicycle,8-0-10,8-0-10_bicycle_10_n03792782_66771.png,False,-0.13493520171453752,2.2154929637908936,0.1111111111111111,-3.532680830603212,29.21444272994995,10,0.8603535353535352,3,36.587561237075754,6
subject-04,1,183,1.14265894889832,bottle,bird,64-0-10,64-0-10_bird_10_n01824575_5820.png,False,1.4920698312789928,2.0868141651153564,0.1111111111111111,-3.498234347061517,28.71005940437317,10,0.8015873015873012,0,36.42736650479926,6
subject-04,1,184,0.684725046157837,car,car,4-0-10,4-0-10_car_10_n03100240_18711.png,True,-1.026617832387655,1.12746000289917,1.0,-0.2976793378983845,27.484645128250122,10,1.6352314352314348,10,43.15085245041466,10
subject-04,1,185,0.910336017608643,keyboard,keyboard,128-0-10,128-0-10_keyboard_10_n03085013_23561.png,True,0.2142677346786126,2.162818431854248,0.125,-3.5934642997843715,28.280359029769897,10,0.7599567099567097,9,40.54055642416474,6
subject-04,1,186,0.805994987487793,bear,elephant,64-0-10,64-0-10_elephant_10_n02504013_6423.png,False,-0.35961959667407084,1.7985985279083252,0.2,-3.1578707593773943,28.322118997573853,10,1.2178571428571427,2,37.50396541895107,2
subject-04,1,187,0.782335996627808,boat,elephant,32-0-10,32-0-10_elephant_10_n02504458_6880.png,False,-0.48974669156098605,2.0349819660186768,1.0,-1.1789710552084263,28.59294629096985,10,2.4330086580086574,10,34.079315546329354,10
subject-04,1,188,0.841875076293945,bird,elephant,128-0-10,128-0-10_elephant_10_n02504458_964.png,False,-0.16227509672222282,1.986419916152954,0.2,-2.9170549074587644,28.91364026069641,10,2.0595959595959594,6,34.61626452636032,6
subject-04,1,189,1.5001060962677,airplane,truck,2-0-10,2-0-10_truck_10_n04467665_3211.png,False,3.458069105637811,0.6795203685760498,0.25,-4.289629201686888,26.24353325366974,10,0.3780386280386278,10,47.77884370939583,6
subject-04,1,190,0.587285995483398,cat,cat,2-0-10,2-0-10_cat_10_n02123045_4009.png,True,-1.5625435051199066,0.2352290451526641,1.0,-0.039480012668153174,26.28536930680275,10,4.609523809523809,8,27.37296696241083,10
subject-04,1,191,0.781107187271118,elephant,elephant,4-0-10,4-0-10_elephant_10_n02504013_2033.png,True,-0.49650528040791614,0.0186924133449792,1.0,-0.0022400654391010453,26.45265714265406,10,4.024675324675324,8,31.995672158617793,10
subject-04,1,192,0.740975856781006,car,keyboard,16-0-10,16-0-10_keyboard_10_n04505470_4974.png,False,-0.7172320849250668,2.0946316719055176,0.0714285714285714,-4.75179812269596,28.207374334335327,10,0.5409090909090905,7,42.68212796151858,7
subject-04,1,193,0.715065002441406,boat,car,64-0-10,64-0-10_car_10_n02814533_48754.png,False,-0.8597446807159886,2.234894275665283,0.0625,-4.828268870912463,28.99262261390686,10,0.17428266178266139,8,51.76600631970784,6
subject-04,1,194,1.1126401424408,dog,car,32-0-10,32-0-10_car_10_n04285008_10824.png,False,1.3269630395562562,2.3346145153045654,0.0909090909090909,-4.224164347507022,28.926896810531616,10,0.39786879786879753,8,47.69984408384557,6
subject-04,1,195,0.842295169830322,keyboard,car,128-0-10,128-0-10_car_10_n04285008_14653.png,False,-0.1599645353042388,2.244558811187744,0.0769230769230769,-4.7145757844607665,28.126323223114014,10,0.21050616050616008,9,51.552014056378596,7
subject-04,1,196,1.13034391403198,cat,elephant,128-0-10,128-0-10_elephant_10_n02504013_9809.png,False,1.4243357626506352,2.1104483604431152,0.3333333333333333,-2.1576322361013425,28.38765561580658,10,1.508333333333333,2,35.33943241546279,2
subject-04,1,197,0.690144062042236,keyboard,bottle,128-0-10,128-0-10_bottle_10_n04579145_1168.png,False,-0.9968126391587441,1.2275359630584717,0.25,-3.1929342663099565,27.336276650428772,10,4.13003663003663,1,27.029535149717425,4
subject-04,1,198,1.00192594528198,cat,chair,16-0-10,16-0-10_chair_10_n02791124_14.png,False,0.7180225769526235,2.1883623600006104,0.0769230769230769,-4.568016185249569,28.88942241668701,10,0.08956043956043896,7,52.21525110766274,7
subject-04,1,199,0.631685018539429,airplane,airplane,2-0-10,2-0-10_airplane_10_n02690373_4148.png,True,-1.3183439143474138,0.0011814762838184,1.0,-9.87101634359333e-05,24.9688695599325,10,6.833333333333333,0,21.147237618990268,10
subject-04,1,200,0.943612098693848,keyboard,bird,2-0-10,2-0-10_bird_10_n01537544_25558.png,False,0.3972899010281833,2.1833972930908203,0.125,-3.367462110966992,28.55652904510498,10,0.8626373626373622,8,37.69283867883498,0
subject-04,1,201,0.839477062225342,oven,oven,1-0-10,1-0-10_oven_10_n04111531_10749.png,True,-0.17546444220580498,0.0834584832191467,1.0,-0.012251918491326615,26.154269754886627,10,1.0242424242424242,10,55.221996530891936,10
subject-04,1,202,0.956990003585815,cat,bicycle,128-0-10,128-0-10_bicycle_10_n02835271_7476.png,False,0.47086987363003324,2.1840014457702637,0.1,-3.9692905876274973,28.558430790901184,10,1.2325757575757577,3,35.10059119247906,6
subject-04,1,203,0.828841209411621,keyboard,boat,128-0-10,128-0-10_boat_10_n04273569_4605.png,False,-0.23396282180639702,2.1438610553741455,0.0833333333333333,-4.494003292392346,28.196738362312317,10,0.9129329004329001,10,38.83276029662753,7
subject-04,1,204,0.670866012573242,bear,knife,32-0-10,32-0-10_knife_10_n03041632_105081.png,False,-1.1028440665908108,2.2303357124328613,0.3333333333333333,-2.0345505737927465,28.679102182388306,10,2.496897546897547,8,35.8134068308822,7
subject-04,1,205,0.708694934844971,boat,dog,128-0-10,128-0-10_dog_10_n02091831_538.png,False,-0.8947807646919679,2.329261302947998,1.0,-1.6308306336115863,29.49517583847046,10,1.9036435786435784,10,36.273230744635065,10
subject-04,1,206,,na,elephant,16-0-10,16-0-10_elephant_10_n02504013_3172.png,False,,1.0739189386367798,0.25,-3.3000383675346594,27.500324606895447,10,1.2385642135642134,6,37.89927139355607,6
subject-04,1,207,0.788130044937134,bear,cat,64-0-10,64-0-10_cat_10_n02124075_12464.png,False,-0.4578787780650543,2.228440523147583,0.25,-1.8752234733211173,28.799413204193115,10,4.655555555555555,6,29.669029474506672,0
subject-04,1,208,0.891979217529297,keyboard,car,64-0-10,64-0-10_car_10_n02814533_4803.png,False,0.11330328188847755,2.1502063274383545,0.0666666666666666,-4.623095067813872,28.062011003494263,10,0.18804528804528767,7,50.7398073303132,7
subject-04,1,209,1.48590993881226,elephant,bear,32-0-10,32-0-10_bear_10_n02132136_1738.png,False,3.3799886524533935,2.204843044281006,1.0,-1.3217818279451257,28.9206326007843,10,2.6535714285714285,10,30.902063268774587,10
subject-04,1,210,0.693624973297119,elephant,bear,8-0-10,8-0-10_bear_10_n02134418_6133.png,False,-0.9776672380789712,1.4213104248046875,1.0,-1.1038956591507016,28.09805464744568,10,2.6690476190476184,10,30.02957057097142,10
subject-04,1,211,0.629344940185547,bear,keyboard,128-0-10,128-0-10_keyboard_10_n04505470_6.png,False,-1.3312146069226176,2.2730634212493896,0.25,-2.48047738774568,28.344192624092102,10,0.7739177489177487,7,39.78472634781323,6
subject-04,1,212,0.941251993179321,truck,truck,1-0-10,1-0-10_truck_10_n03417042_22395.png,True,0.3843090568303262,0.01051701977849,1.0,-0.0011492416300785714,25.058406610041857,10,2.160939060939061,10,41.81141726235092,10
subject-04,1,213,0.727138042449951,cat,keyboard,8-0-10,8-0-10_keyboard_10_n03085013_22187.png,False,-0.7933416108613667,1.7999521493911743,0.0909090909090909,-5.345704131791481,28.28243887424469,10,0.4535464535464531,8,45.522417695681355,7
subject-04,1,214,0.732713937759399,cat,cat,2-0-10,2-0-10_cat_10_n02123159_2684.png,True,-0.762673563255024,0.0550362467765808,1.0,-0.007960628974788117,25.60643881559372,10,4.788492063492063,7,29.022530628868083,6
subject-04,1,215,1.07686614990234,bird,car,16-0-10,16-0-10_car_10_n04285008_8959.png,False,1.1302020809386444,2.5049188137054443,0.0769230769230769,-4.367879713762948,29.380093336105347,10,0.22765567765567718,9,49.479630796085736,6
subject-04,1,216,1.46457290649414,cat,truck,16-0-10,16-0-10_truck_10_n03417042_17037.png,False,3.2626325891497303,2.1565184593200684,0.0666666666666666,-5.325666926602129,29.038928508758545,10,0.1591575091575088,2,48.919878145532145,7
subject-04,1,217,0.80624794960022,dog,dog,1-0-10,1-0-10_dog_10_n02108422_5595.png,True,-0.35822827677368346,0.0451937839388847,1.0,-0.005647782813614136,25.558112733066082,10,2.549242424242424,10,34.478173418874334,10
subject-04,1,218,0.970046997070312,clock,clock,8-0-10,8-0-10_clock_10_n04548280_6463.png,True,0.5426847976117929,0.1744334995746612,1.0,-0.02500257050252368,26.173363238573074,10,7.894444444444444,10,19.12213909128138,10
subject-04,1,219,0.870032072067261,bear,oven,64-0-10,64-0-10_oven_10_n04111531_9210.png,False,-0.007408471919482631,1.930363416671753,0.0909090909090909,-4.899746607277113,28.012702703475952,10,0.04090909090909069,10,62.85264548692557,7
subject-04,1,220,0.665900945663452,cat,keyboard,16-0-10,16-0-10_keyboard_10_n04505470_1833.png,False,-1.1301524897063067,2.2857556343078613,0.0625,-4.772205641325332,28.891642332077026,10,0.314831002331002,8,45.67334749604514,7
subject-04,1,221,0.641419172286987,clock,clock,4-0-10,4-0-10_clock_10_n03196217_5688.png,True,-1.2648049804237929,2.179624080657959,0.5,-1.5252628960540715,28.332961320877075,10,7.840909090909091,2,21.731920450925912,10
subject-04,1,222,0.765527009963989,dog,dog,4-0-10,4-0-10_dog_10_n02113624_1212.png,True,-0.5821979975148293,1.7775757312774658,0.25,-2.3990455885463433,28.3220636844635,10,1.2885642135642135,7,37.363859329344876,6
subject-04,1,223,0.811331033706665,bird,bird,2-0-10,2-0-10_bird_10_n01795545_15255.png,True,-0.3302707458818536,0.2690556943416595,1.0,-0.06075863321288702,27.065910905599594,10,1.7417027417027415,10,33.2365749039884,10
subject-04,1,224,1.15303015708923,bear,dog,16-0-10,16-0-10_dog_10_n02093428_17769.png,False,1.54911263586594,1.2648249864578247,0.25,-3.4722073312628616,28.01635491847992,10,1.4607864357864355,7,36.70186667347727,6
subject-04,1,225,0.726705074310303,bicycle,bicycle,1-0-10,1-0-10_bicycle_10_n03792782_14424.png,True,-0.795722984036766,0.0021055918186903,1.0,-0.00017912800001234402,26.592549679800868,10,3.2373015873015873,9,29.691663093180388,10
subject-04,1,226,0.726750135421753,cat,boat,64-0-10,64-0-10_boat_10_n03662601_18641.png,False,-0.7954751428858025,2.162323236465454,0.1,-4.054197484222846,28.52913236618042,10,1.0813852813852813,3,35.241476306020516,3
subject-04,1,227,0.888479948043823,boat,airplane,32-0-10,32-0-10_airplane_10_n02690373_18845.png,False,0.09405690848794081,2.322275161743164,0.5,-2.100966745413916,29.01406693458557,10,3.8388888888888886,0,26.480700778950677,10
subject-04,1,228,0.778173923492432,bear,elephant,16-0-10,16-0-10_elephant_10_n02504458_1327.png,False,-0.5126385591397241,1.8217058181762695,0.3333333333333333,-2.0694412952479793,28.3287992477417,10,1.5484848484848481,2,35.588222470943066,6
subject-04,1,229,0.950244903564453,bear,truck,64-0-10,64-0-10_truck_10_n04467665_30588.png,False,0.4337710693870336,0.8671330213546753,0.0714285714285714,-5.49034975639663,27.680283665657043,10,0.1833999333999331,3,48.141022627476,7
subject-04,1,230,0.991866111755371,bottle,boat,16-0-10,16-0-10_boat_10_n03662601_17273.png,False,0.662692367832096,2.389214038848877,0.0909090909090909,-3.4229230553444188,28.898847103118896,10,1.2774891774891772,4,32.77202419751265,3
subject-04,1,231,1.32766103744507,oven,bicycle,8-0-10,8-0-10_bicycle_10_n03792782_34550.png,False,2.5096020021594057,1.130537033081055,0.0833333333333333,-5.453148926532919,27.823368310928345,10,0.9786435786435783,3,38.22842304271817,3
subject-04,1,232,0.681699991226196,boat,bottle,128-0-10,128-0-10_bottle_10_n04560804_16276.png,False,-1.0432559727232835,2.2884843349456787,0.0909090909090909,-3.941289745655042,29.181477069854736,10,3.092929292929292,4,28.96424024488757,4
subject-04,1,233,0.821418046951294,keyboard,truck,64-0-10,64-0-10_truck_10_n04467665_23731.png,False,-0.2747910452734302,2.165984630584717,0.0769230769230769,-4.661685865585656,28.42422890663147,10,0.18772893772893742,2,48.54834526574789,7
subject-04,1,234,0.92115592956543,dog,dog,8-0-10,8-0-10_dog_10_n02098105_865.png,True,0.2737784601445162,1.190587282180786,0.25,-3.056924156243269,28.30600118637085,10,1.5547979797979798,9,36.947942097994684,6
subject-04,1,235,1.19718408584595,airplane,airplane,16-0-10,16-0-10_airplane_10_n02690373_19118.png,True,1.791964180589831,2.344666004180908,0.5,-1.8069395070014418,29.065922737121582,10,4.025,0,26.41670203442323,10
subject-04,1,236,0.966720104217529,car,truck,32-0-10,32-0-10_truck_10_n03417042_3862.png,False,0.5243865149633602,0.9969407320022584,0.0833333333333333,-6.237694206653234,27.49015986919403,10,0.181318681318681,10,50.47071019127904,7
subject-04,1,237,1.13644886016846,dog,bicycle,32-0-10,32-0-10_bicycle_10_n03792782_693.png,False,1.4579136489553655,2.303941488265991,0.2,-2.616806581360057,28.87469792366028,10,1.0666666666666667,3,35.489662649395434,6
subject-04,1,238,1.14262104034424,keyboard,knife,64-0-10,64-0-10_knife_10_n03041632_3171.png,False,1.491861329993245,1.4784142971038818,0.1428571428571428,-3.5598128781548675,28.075254440307617,10,1.0926046176046171,7,39.22255603516311,6
subject-04,1,239,0.774242162704468,boat,boat,16-0-10,16-0-10_boat_10_n03344393_2381.png,True,-0.5342636830579792,2.097233295440674,0.1428571428571428,-3.3060408703745106,28.97556710243225,10,2.0902930402930404,0,30.131981705604503,3
subject-04,1,240,0.719922065734863,airplane,airplane,2-0-10,2-0-10_airplane_10_n02690373_2316.png,True,-0.8330302895655023,0.0001040535426,1.0,-7.0333728177157245e-06,26.063818080947385,10,7.583333333333333,0,20.17169755526736,10
subject-04,1,241,0.82970404624939,elephant,elephant,2-0-10,2-0-10_elephant_10_n02504458_3063.png,True,-0.22921712273052514,0.1581192314624786,1.0,-0.026688161675555884,27.16098502278328,10,5.167532467532467,6,31.012720644977197,10
subject-04,1,242,0.783772945404053,truck,truck,1-0-10,1-0-10_truck_10_n04467665_9589.png,True,-0.48184331263579594,0.1937943249940872,1.0,-0.042862016360055856,25.49211771786213,10,1.4311410811410807,10,42.85349562620196,10
subject-04,1,243,0.827858924865723,airplane,airplane,1-0-10,1-0-10_airplane_10_n02690373_4893.png,True,-0.23936549663164525,0.0005816350458189,1.0,-4.4168017171074426e-05,25.094051612424664,10,6.333333333333333,6,19.861978339962228,9
subject-04,1,244,1.4994490146637,knife,keyboard,8-0-10,8-0-10_keyboard_10_n03085013_24166.png,False,3.4544550833518155,0.1325322389602661,0.0666666666666666,-9.163004940392527,26.407299876213074,10,0.32284382284382246,8,49.84707362491489,7
subject-04,1,245,0.873262882232666,elephant,bicycle,32-0-10,32-0-10_bicycle_10_n02835271_3535.png,False,0.010361345205994694,2.414336681365967,0.1428571428571428,-2.792263865711381,29.206382036209106,10,1.1432900432900432,3,34.954759971853356,6
subject-04,1,246,0.744977951049805,cat,bicycle,64-0-10,64-0-10_bicycle_10_n02835271_7900.png,False,-0.6952201189986924,2.2162351608276367,0.1111111111111111,-3.6024951009423902,28.505124926567078,10,1.0158119658119658,3,37.18852645721979,6
subject-04,1,247,0.962816953659058,dog,cat,64-0-10,64-0-10_cat_10_n02125311_42593.png,False,0.502918750506039,2.1692514419555664,0.5,-1.6625726582186815,28.848938465118408,10,4.905555555555555,6,30.3554020977374,0
subject-04,1,248,0.790534973144531,bear,bear,128-0-10,128-0-10_bear_10_n02132136_15806.png,True,-0.4446514040450802,0.6492956876754761,0.25,-4.148400238884385,27.504807353019714,10,1.553571428571428,5,34.141555642344535,0
subject-04,1,249,1.25828003883362,dog,elephant,32-0-10,32-0-10_elephant_10_n02504458_379.png,False,2.127998752760847,1.8754587173461912,1.0,-1.038072098642185,28.566545724868774,10,2.840151515151515,10,33.730580402605106,10
subject-04,1,250,0.826442956924438,keyboard,dog,128-0-10,128-0-10_dog_10_n02101556_1042.png,False,-0.24715347861882514,2.165192127227783,1.0,-1.1275313202375845,28.864835023880005,10,2.201262626262626,10,34.98759539393935,10
subject-04,1,251,1.21632099151611,oven,dog,16-0-10,16-0-10_dog_10_n02097130_2752.png,False,1.8972193013479457,2.1743032932281494,0.125,-3.2505528002172364,28.48591411113739,10,1.3357864357864357,9,37.60632178578052,6
subject-04,1,252,0.652071952819824,car,car,4-0-10,4-0-10_car_10_n02814533_27327.png,True,-1.2062134964754851,0.6369063258171082,0.125,-5.997344217102334,26.84672325849533,10,0.4416416916416913,9,50.7586179367303,6
subject-04,1,253,1.28981590270996,knife,bottle,4-0-10,4-0-10_bottle_10_n04560804_15122.png,False,2.301449529899359,2.2483835220336914,0.1666666666666666,-2.366910172810681,28.598306894302368,10,3.9075757575757564,1,26.10480619477767,10
subject-04,1,254,0.921353101730347,oven,oven,8-0-10,8-0-10_oven_10_n04111531_114.png,True,0.27486292909608956,1.2075493335723877,0.125,-5.576401513452667,27.763516902923584,10,0.14015151515151508,10,62.79060799722164,7
subject-04,1,255,0.797461986541748,cat,bear,64-0-10,64-0-10_bear_10_n02134084_5794.png,False,-0.4065520558963332,2.1248292922973633,0.125,-3.4010408795626508,29.143048763275146,10,1.6202380952380948,6,32.578213789097695,0
subject-04,1,256,0.859241008758545,knife,knife,2-0-10,2-0-10_knife_10_n03041632_25512.png,True,-0.0667605265956167,0.0077827298082411,1.0,-0.000769195672757867,25.84843304986134,10,4.733008658008658,7,30.75590227429807,10
subject-04,1,257,0.771071195602417,car,car,4-0-10,4-0-10_car_10_n02814533_245.png,True,-0.5517043566443478,0.7088464498519897,0.5,-3.038476881619353,26.412563681602478,10,1.0413419913419908,9,47.20855589876548,6
subject-04,1,258,1.2367959022522,dog,bicycle,8-0-10,8-0-10_bicycle_10_n02835271_3642.png,False,2.0098335995622687,2.084115505218506,0.1428571428571428,-3.4152930931388434,28.878612995147705,10,1.1127344877344876,3,35.23667523553717,3
subject-04,1,259,0.688554048538208,bear,bear,32-0-10,32-0-10_bear_10_n02133161_15561.png,True,-1.0055578911999066,2.168396472930908,1.0,-1.6024819211891017,28.384198665618896,10,2.5011904761904757,10,31.770234829919808,10
subject-04,1,260,1.05443692207336,oven,elephant,64-0-10,64-0-10_elephant_10_n02504013_6703.png,False,1.0068388202140168,0.8414860963821411,0.125,-4.922947998649728,26.890893697738647,10,0.9984848484848482,2,39.69541925824383,6
subject-04,1,261,0.796044111251831,boat,boat,128-0-10,128-0-10_boat_10_n02951358_33277.png,True,-0.4143505285142375,2.390331268310547,0.1,-3.569558107009343,29.442800521850586,10,2.244755244755245,1,32.060455068486306,0
subject-04,1,262,1.45227789878845,airplane,airplane,16-0-10,16-0-10_airplane_10_n02690373_4486.png,True,3.195008672144054,1.5823233127593994,0.1666666666666666,-3.462811449359584,28.011719703674316,10,2.811544011544011,0,30.048195664349752,8
subject-04,1,263,0.807681798934937,elephant,elephant,4-0-10,4-0-10_elephant_10_n02504458_6339.png,True,-0.3503419451234256,0.0010955199832096,1.0,-8.821876542843967e-05,26.818204389535822,10,5.181818181818182,6,30.87121427927162,10
subject-04,1,264,0.747452020645142,keyboard,bear,128-0-10,128-0-10_bear_10_n02133161_1624.png,False,-0.681612459614802,2.4132771492004395,0.125,-3.132121719094782,28.83862590789795,4,1.3373015873015865,5,33.64795714932068,0
subject-04,1,265,0.949375867843628,bottle,clock,16-0-10,16-0-10_clock_10_n02708093_3173.png,False,0.42899127576129725,1.1519556045532229,1.0,-0.30196157869649687,26.93596374988556,10,9.249999999999998,10,18.64518469943704,10
subject-04,1,266,0.93124794960022,elephant,elephant,8-0-10,8-0-10_elephant_10_n02504013_3181.png,True,0.3292856986586017,0.3322006464004516,0.25,-4.670713311417505,27.005805373191833,10,1.241341991341991,8,38.675956833996274,2
subject-04,1,267,0.727237939834595,keyboard,keyboard,1-0-10,1-0-10_keyboard_10_n04505470_3314.png,True,-0.7927921640769516,0.0002373842289671,1.0,-1.6629834167370726e-05,24.428267636685632,10,2.9425074925074926,9,35.321656191304065,9
subject-04,1,268,1.11714315414429,oven,knife,16-0-10,16-0-10_knife_10_n03041632_992.png,False,1.351730107377733,2.252927780151367,0.1666666666666666,-2.664845657303098,28.8904128074646,10,1.5600288600288597,8,36.94731751764544,6
subject-04,1,269,0.700670957565308,boat,elephant,128-0-10,128-0-10_elephant_10_n02504458_2190.png,False,-0.938913536838524,1.905291199684143,0.1,-4.076116177662849,29.069652676582336,10,0.8555666555666552,8,38.57703349304719,6
subject-04,1,270,1.06644415855408,knife,knife,1-0-10,1-0-10_knife_10_n03041632_19275.png,True,1.0728799633085397,1.5382235050201416,0.1428571428571428,-4.304968645763666,27.29705023765564,10,2.661976911976912,7,38.31384152647935,5
subject-04,1,271,0.816291809082031,cat,elephant,8-0-10,8-0-10_elephant_10_n02504458_10264.png,False,-0.302985926685498,1.6109495162963867,0.3333333333333333,-2.559711349459154,28.438207864761353,10,1.3436868686868682,8,36.82571280070112,6
subject-04,1,272,0.856084823608398,bear,elephant,32-0-10,32-0-10_elephant_10_n02504013_782.png,False,-0.08411989779384019,1.84405255317688,0.25,-2.1817572840049326,28.461907148361206,10,1.2189255189255186,8,36.22642733579771,6
subject-04,1,273,0.754003047943115,keyboard,clock,128-0-10,128-0-10_clock_10_n02708093_1862.png,False,-0.6455810770484435,0.8167997598648071,1.0,-0.21172347737348837,27.112044095993042,10,8.5,2,19.22494978342262,10
subject-04,1,274,0.907999992370605,bear,elephant,32-0-10,32-0-10_elephant_10_n02504458_3381.png,False,0.20141933469370338,2.252901077270508,1.0,-1.563171741848402,29.22151255607605,10,2.940151515151515,10,34.022303720004814,6
subject-04,1,275,0.907515048980713,boat,airplane,32-0-10,32-0-10_airplane_10_n02690373_4150.png,False,0.1987520918309492,2.350776433944702,0.1,-3.5951123334200767,29.21862483024597,10,3.1055555555555556,0,28.70955018045855,9
subject-04,1,276,0.781279802322388,keyboard,airplane,64-0-10,64-0-10_airplane_10_n02690373_3313.png,False,-0.49555587832697157,2.3391995429992676,0.25,-2.6074710303564625,29.124900102615356,10,2.802777777777778,0,28.84173750256661,9
subject-04,1,277,0.921097040176392,car,car,8-0-10,8-0-10_car_10_n04285008_13958.png,True,0.27345456192076995,1.0682657957077026,0.0909090909090909,-6.8306301228875865,27.540757298469543,10,0.29802697302697256,9,52.04439750837965,6
subject-04,1,278,0.787060022354126,keyboard,keyboard,4-0-10,4-0-10_keyboard_10_n04505470_179.png,True,-0.4637640219038237,1.9232990741729736,0.3333333333333333,-2.153304431229546,28.06271195411682,10,1.1978687978687974,9,41.29284826863229,7
subject-04,1,279,0.760916948318481,bear,chair,32-0-10,32-0-10_chair_10_n04099969_24666.png,False,-0.6075538519859583,2.058094024658203,0.0909090909090909,-3.9597293381877288,28.522849798202515,10,0.14610389610389557,7,52.14520353412417,7
subject-04,1,280,1.33657884597778,boat,bird,16-0-10,16-0-10_bird_10_n01616318_4246.png,False,2.558650946131146,2.3899669647216797,0.1666666666666666,-2.6632229621925143,28.877678632736206,10,0.7456349206349204,9,37.02958176895014,6
subject-04,1,281,0.742549180984497,dog,bear,8-0-10,8-0-10_bear_10_n02134084_3960.png,False,-0.7085786259027794,1.3221540451049805,1.0,-0.8840188989135784,28.051151752471924,10,2.6190476190476186,10,30.18102569218743,10
subject-04,1,282,0.786195039749146,keyboard,boat,128-0-10,128-0-10_boat_10_n03344393_2412.png,False,-0.4685215229392604,2.3721442222595215,0.0714285714285714,-4.200193542981283,28.84860360622406,10,1.2988095238095234,0,35.64858795367656,7
subject-04,1,283,0.958217144012451,keyboard,bicycle,128-0-10,128-0-10_bicycle_10_n03792782_1475.png,False,0.47761928317507457,1.452012538909912,0.0769230769230769,-5.035036936562184,27.2126407623291,10,0.8265984015984014,3,40.75443802956485,6
subject-04,1,284,0.620091915130615,car,car,4-0-10,4-0-10_car_10_n02814533_41953.png,True,-1.3821072792449443,0.1970869451761245,1.0,-0.041937369705340406,26.476208701729774,10,1.6658841158841153,10,42.58009462755762,10
subject-04,1,285,0.963865041732788,elephant,bear,1-0-10,1-0-10_bear_10_n02134418_4177.png,False,0.5086833520914253,1.111305832862854,0.3333333333333333,-1.8842984847709676,27.38836395740509,10,1.3242063492063487,10,33.888492684493976,10
subject-04,1,286,0.843770027160645,clock,clock,8-0-10,8-0-10_clock_10_n04548280_7826.png,True,-0.15185265509331267,0.5254191160202026,1.0,-0.10712036056132303,26.058082222938538,10,9.5,2,17.818890649933603,10
subject-04,1,287,0.857208013534546,boat,boat,32-0-10,32-0-10_boat_10_n03662601_4558.png,True,-0.07794222762350804,2.343292236328125,0.2,-2.5074782022556477,29.203550338745117,10,1.5087412587412585,10,31.049371062868325,10
subject-04,1,288,1.10500884056091,keyboard,oven,8-0-10,8-0-10_oven_10_n04111531_13296.png,False,1.2849900260109204,2.0685324668884277,0.2,-3.2208986755258735,28.720823764801025,10,0.2631313131313131,10,58.49809572739976,6
subject-04,1,289,0.705229043960571,bicycle,bicycle,2-0-10,2-0-10_bicycle_10_n03792782_3388.png,True,-0.9138435520547552,1.679809808731079,0.5,-1.3698475084938861,28.64375114440918,10,1.313528138528138,10,33.906704825708815,10
subject-04,1,290,1.2526171207428,dog,bicycle,8-0-10,8-0-10_bicycle_10_n02835271_18846.png,False,2.096852070127511,1.6549004316329956,0.0909090909090909,-5.515125751143112,28.196967482566833,10,0.8530885780885779,3,40.17665650302414,6
subject-04,1,291,0.820559978485107,bear,bird,16-0-10,16-0-10_bird_10_n01795545_13849.png,False,-0.2795105177724805,2.2096352577209473,0.125,-3.41685473499363,28.481804370880127,10,0.7857142857142855,9,37.40589052042281,6
subject-04,1,292,0.740422964096069,bear,bear,4-0-10,4-0-10_bear_10_n02133161_10700.png,True,-0.7202730565075344,0.5282771587371826,0.5,-2.0739971996275273,26.62339973449707,10,1.6658730158730155,9,33.55806731744839,0
subject-04,1,293,0.926338911056519,keyboard,truck,128-0-10,128-0-10_truck_10_n03796401_2988.png,False,0.30228543782076045,1.9779130220413208,0.0714285714285714,-4.688792730860928,28.3626571893692,10,0.1888944388944386,7,49.293030776103045,7
subject-04,1,294,0.667950868606567,cat,cat,4-0-10,4-0-10_cat_10_n02123159_1113.png,True,-1.1188776843306998,0.0272114016115665,1.0,-0.003204228556081801,25.647042725235224,10,5.409523809523809,6,25.95012399906803,9
subject-04,1,295,0.687847852706909,knife,knife,4-0-10,4-0-10_knife_10_n03041632_1607.png,True,-1.0094420472271874,0.9514753818511964,1.0,-0.3143071215979515,26.72066831588745,10,3.4171717171717173,8,34.17189802341706,10
subject-04,1,296,0.661633014678955,boat,dog,64-0-10,64-0-10_dog_10_n02090721_6770.png,False,-1.1536265872904843,2.161752223968506,0.5,-1.493271362496655,29.307353258132935,10,1.6350288600288598,9,35.473755626784815,10
subject-04,1,297,0.659303903579712,cat,cat,2-0-10,2-0-10_cat_10_n02124075_11153.png,True,-1.166436958738996,0.8759876489639282,1.0,-0.4688722580739531,26.90937376022339,10,5.53452380952381,6,28.110427653482333,0
subject-04,1,298,0.643523931503296,airplane,airplane,1-0-10,1-0-10_airplane_10_n02690373_3119.png,True,-1.2532285694147338,0.004859603010118,1.0,-0.0004613271362737078,25.649759686551988,10,5.366666666666667,9,23.865488469540516,10
subject-04,1,299,1.44909715652466,oven,bicycle,8-0-10,8-0-10_bicycle_10_n02835271_976.png,False,3.1775142340752245,1.5056986808776855,0.1428571428571428,-3.735328226287142,27.917612433433533,10,0.9031135531135529,3,37.58246158969727,6
subject-04,1,300,0.832937955856323,cat,bottle,16-0-10,16-0-10_bottle_10_n04560804_11732.png,False,-0.2114302583301156,1.9762731790542605,0.2,-2.8377503139306914,28.764857172966003,10,4.8575757575757565,1,26.026155832144177,4
subject-04,1,301,0.900722980499268,dog,dog,1-0-10,1-0-10_dog_10_n02109047_26316.png,True,0.16139495580625668,0.6700608730316162,1.0,-0.258202156693386,27.216547966003418,10,1.9809884559884559,10,35.56754983719783,10
subject-04,1,302,1.018306016922,bicycle,bicycle,2-0-10,2-0-10_bicycle_10_n02835271_1932.png,True,0.8081148023213897,0.057902880012989,1.0,-0.009319924380295835,25.638489194214344,10,2.7138888888888886,9,33.12975155092277,10
subject-04,1,303,0.814172983169556,keyboard,elephant,128-0-10,128-0-10_elephant_10_n02504458_8939.png,False,-0.31463970609617514,2.151451110839844,0.125,-3.2136486082958053,28.680046558380127,10,1.067532467532467,8,38.54428913190663,6
subject-04,1,304,0.631991863250732,cat,cat,2-0-10,2-0-10_cat_10_n02123394_830.png,True,-1.3166562341289478,0.2343554496765136,1.0,-0.049859056101326835,26.649661540985107,10,4.871825396825397,6,28.693118181875267,10
subject-04,1,305,0.927922964096069,keyboard,dog,64-0-10,64-0-10_dog_10_n02096437_4563.png,False,0.3109979066408934,2.2859933376312256,0.2,-2.6261023184227144,29.100439071655273,10,1.1345959595959594,5,36.79516009351572,5
subject-04,1,306,0.933773994445801,oven,keyboard,32-0-10,32-0-10_keyboard_10_n04505470_4780.png,False,0.343179227729847,2.2287943363189697,0.0666666666666666,-4.9339621808059135,28.270772695541382,10,0.4170995670995668,7,43.78508970341756,7
subject-04,1,307,0.643676042556763,boat,clock,32-0-10,32-0-10_clock_10_n04548280_16295.png,False,-1.2523919416141234,2.1332170963287354,0.2,-2.9444277884570003,29.037346601486206,10,5.133333333333333,2,24.604827711557263,2
subject-04,1,308,0.797307968139648,bird,dog,32-0-10,32-0-10_dog_10_n02105855_995.png,False,-0.4073991743276735,2.376810073852539,0.5,-1.7834409310668777,29.381624460220337,10,1.7429292929292928,9,35.56462935945837,5
subject-04,1,309,0.897193908691406,boat,bird,4-0-10,4-0-10_bird_10_n02028035_32557.png,False,0.14198466630058307,1.5612636804580688,0.0714285714285714,-5.661837325138157,28.65178120136261,10,0.5844988344988342,0,39.44463950093317,0
subject-04,1,310,0.738993167877197,keyboard,car,128-0-10,128-0-10_car_10_n04285008_13702.png,False,-0.7281370955674921,2.1093688011169434,0.0833333333333333,-4.517289268853912,27.968844532966614,10,0.1776556776556773,8,50.97580288306512,7
subject-04,1,311,0.814886093139648,bear,oven,8-0-10,8-0-10_oven_10_n04111531_1150.png,False,-0.31071752153250837,1.5791938304901123,0.1428571428571428,-3.39953072042871,27.94431495666504,10,0.2595238095238094,9,59.897894194411585,7
subject-04,1,312,1.33858299255371,elephant,bicycle,64-0-10,64-0-10_bicycle_10_n03792782_59.png,False,2.5696739763692786,1.944205641746521,0.1,-4.81078633846625,29.035700917243958,10,1.1134920634920633,3,35.69204913143203,6
subject-04,1,313,1.09242081642151,keyboard,clock,128-0-10,128-0-10_clock_10_n04548280_5278.png,False,1.2157544858595881,1.8497869968414309,0.25,-2.537251087902412,27.625617742538452,10,7.309523809523808,2,21.640949231676377,2
subject-04,1,314,0.662154912948608,cat,cat,1-0-10,1-0-10_cat_10_n02123045_13545.png,True,-1.1507560884573613,0.0010841707699,1.0,-9.006667413674277e-05,24.354636452626437,9,5.469047619047618,6,25.813865088127645,9
subject-04,1,315,0.67989706993103,boat,bird,128-0-10,128-0-10_bird_10_n02009229_5290.png,False,-1.053172241419532,2.244654417037964,0.1428571428571428,-3.412250780474376,29.120879888534546,10,0.68531746031746,0,37.35117445359507,0
subject-04,1,316,0.873797178268433,bear,bicycle,64-0-10,64-0-10_bicycle_10_n03792782_41097.png,False,0.01330003313885738,2.269857406616211,0.1111111111111111,-3.571937290100713,29.34989023208618,10,1.9539682539682541,3,33.196950167341775,3
subject-04,1,317,0.769685029983521,bear,car,16-0-10,16-0-10_car_10_n02814533_28371.png,False,-0.5593284225263859,1.8140102624893188,0.0666666666666666,-5.511239057811839,28.144565105438232,10,0.3230519480519474,7,51.157201063144484,6
subject-04,1,318,0.889464855194092,dog,cat,32-0-10,32-0-10_cat_10_n02123394_2814.png,False,0.09947400793044578,1.8301494121551511,1.0,-0.7720703848902093,28.47401785850525,10,5.678968253968254,6,28.158790642676234,10
subject-04,1,319,1.35741019248962,bottle,airplane,16-0-10,16-0-10_airplane_10_n02690373_1426.png,False,2.673225680962846,2.174006223678589,0.1111111111111111,-3.77119773232741,28.603245735168457,10,3.1630341880341883,0,30.260873249130448,8
subject-04,1,320,0.809202194213867,bird,bird,4-0-10,4-0-10_bird_10_n01592084_9109.png,True,-0.3419796011038605,0.0098653379827737,1.0,-0.001001680732971132,26.44951348938048,10,2.8857142857142857,9,32.37662789195628,10
subject-04,1,321,0.899672985076904,cat,bird,64-0-10,64-0-10_bird_10_n02025239_6209.png,False,0.15561986359013497,1.609227418899536,0.1428571428571428,-3.440046290564452,28.229411840438843,10,0.8849206349206346,0,36.468163685742645,0
subject-04,1,322,1.01359009742737,chair,chair,8-0-10,8-0-10_chair_10_n04099969_6825.png,True,0.782176717844816,0.7766363024711609,0.1428571428571428,-5.300783029301193,27.24024122953415,10,0.17289377289377228,10,52.05902209993558,7
subject-04,1,323,0.711539030075073,chair,chair,4-0-10,4-0-10_chair_10_n04429376_9517.png,True,-0.8791379229467245,0.5132481455802917,1.0,-0.10303647816732141,26.53580516576767,10,1.309340659340659,10,44.41060646496595,10
subject-04,1,324,0.601078033447266,cat,cat,2-0-10,2-0-10_cat_10_n02123394_8164.png,True,-1.4866857543210916,0.0575950294733047,1.0,-0.010088919467089964,26.1540055423975,10,5.55,6,27.595741003617402,10
subject-04,1,325,0.752739906311035,keyboard,boat,128-0-10,128-0-10_boat_10_n03344393_1573.png,False,-0.652528497248486,1.6660165786743164,0.0833333333333333,-4.513794876360033,28.27095055580139,10,1.9871794871794868,0,32.00875091554355,0
subject-04,1,326,0.664736032485962,car,car,1-0-10,1-0-10_car_10_n02814533_149.png,True,-1.1365596424238236,0.086380198597908,1.0,-0.014902276057841808,25.417374804615974,10,3.3309523809523807,8,42.75671980673429,6
subject-04,1,327,0.874557018280029,keyboard,bear,16-0-10,16-0-10_bear_10_n02132136_2900.png,False,0.01747923815537649,1.5803871154785156,1.0,-0.5809326539284418,28.36971163749695,10,2.6857142857142855,10,30.128262913536297,10
subject-04,1,328,0.794266939163208,knife,knife,1-0-10,1-0-10_knife_10_n03041632_38996.png,True,-0.4241251736956497,0.4079376757144928,0.125,-9.02256289790278,25.376515060663223,10,1.719119769119769,7,43.01977981927289,5
subject-04,1,329,0.736034870147705,clock,clock,1-0-10,1-0-10_clock_10_n02708093_3734.png,True,-0.7444080638276153,0.4695957601070404,1.0,-0.18260178556853046,25.47961577773094,10,10.083333333333332,2,16.79321888450247,10
subject-04,1,330,0.916002988815308,oven,truck,16-0-10,16-0-10_truck_10_n03417042_5875.png,False,0.24543670990224858,2.335984230041504,0.0666666666666666,-4.745324351681327,29.205822944641113,10,0.1719780219780216,2,47.36549049760465,7
subject-04,1,331,1.02384281158447,chair,dog,1-0-10,1-0-10_dog_10_n02093991_4081.png,False,0.8385677919977659,1.5204784870147705,0.0833333333333333,-5.334172585134071,26.931156396865845,10,0.6495781995781993,9,43.766425976619836,6
subject-04,1,332,0.779628038406372,keyboard,chair,64-0-10,64-0-10_chair_10_n03376595_3015.png,False,-0.504640764537978,2.0634613037109375,0.1111111111111111,-3.712291919296602,28.68294048309326,10,0.11349206349206287,10,52.112063344842376,7
subject-04,1,333,0.857409954071045,keyboard,clock,128-0-10,128-0-10_clock_10_n04548280_4872.png,False,-0.07683153209511306,1.1809279918670654,0.25,-3.591355590403147,27.43164050579071,10,6.433333333333333,2,24.20654060094526,2
subject-04,1,334,0.817373037338257,elephant,elephant,2-0-10,2-0-10_elephant_10_n02504458_1628.png,True,-0.2970390503911972,0.0005009453743696,1.0,-3.7253596891242945e-05,26.614491490647197,10,3.0341991341991337,10,31.357593192688125,10
subject-04,1,335,0.783332824707031,bear,chair,64-0-10,64-0-10_chair_10_n02791124_7142.png,False,-0.48426402567643256,2.2591660022735596,0.1,-4.16146018941273,28.493260622024536,10,0.09835164835164767,10,53.26825890603322,7
subject-04,1,336,0.780769109725952,clock,clock,1-0-10,1-0-10_clock_10_n04548280_4989.png,True,-0.49836474470456793,0.0985110029578208,1.0,-0.013227237435307633,26.536680839955807,10,6.958333333333333,10,21.66591152705263,10
subject-04,1,337,0.756685018539429,cat,cat,64-0-10,64-0-10_cat_10_n02123394_5071.png,True,-0.6308299389151286,0.2774348556995392,0.125,-5.918268704795207,26.57110658288002,10,3.9373015873015875,6,35.527304339245724,0
subject-04,1,338,0.888514041900635,bottle,chair,32-0-10,32-0-10_chair_10_n02791124_4595.png,False,0.09424442851221772,0.2638603746891022,0.1428571428571428,-6.376503223144041,26.919008165597916,10,0.16501831501831446,10,54.15112012549688,7
subject-04,1,339,0.862268924713135,elephant,elephant,4-0-10,4-0-10_elephant_10_n02504458_6830.png,True,-0.05010665031389684,1.023974061012268,0.3333333333333333,-2.0654200822585986,28.051401019096375,10,1.4111222111222108,8,36.895720748797274,2
subject-04,1,340,0.75822901725769,bear,bear,1-0-10,1-0-10_bear_10_n02133161_4513.png,True,-0.6223377733402972,0.53285151720047,1.0,-0.11199250792464187,27.1886585354805,10,3.0539682539682538,9,29.530139943773165,10
subject-04,1,341,0.959768056869507,keyboard,bottle,64-0-10,64-0-10_bottle_10_n04591713_1310.png,False,0.4861494772863035,1.749708890914917,0.1666666666666666,-3.494492452773981,27.993927717208862,10,3.774242424242424,1,27.652394440874758,4
subject-04,1,342,0.75583291053772,cat,oven,4-0-10,4-0-10_oven_10_n04111531_5279.png,False,-0.63551662819315,2.068516492843628,1.0,-1.1755981625996759,28.843666076660156,10,1.1708333333333332,10,54.976994724514306,6
subject-04,1,343,0.60155200958252,boat,clock,128-0-10,128-0-10_clock_10_n04548280_6811.png,False,-1.4840788325850234,2.3115100860595703,0.2,-2.200579936596257,29.42499852180481,10,6.026923076923077,2,24.761764871134442,10
subject-04,1,344,0.96920919418335,keyboard,clock,128-0-10,128-0-10_clock_10_n03196217_2919.png,False,0.5380767880642423,2.117523670196533,1.0,-1.0040434644042118,28.547558069229126,10,8.208333333333332,10,20.727854491339613,10
subject-04,1,345,0.81920599937439,boat,elephant,8-0-10,8-0-10_elephant_10_n02504458_3234.png,False,-0.28695755426097097,1.7156119346618652,0.3333333333333333,-1.9008867923205455,28.807789087295532,10,1.6126373626373622,8,35.02749128272594,2
subject-04,1,346,0.972980976104736,bear,cat,16-0-10,16-0-10_cat_10_n02123597_7069.png,False,0.5588220103301277,1.0663175582885742,0.5,-1.1701873030044758,27.536242723464966,10,4.992857142857143,6,28.909440023813538,0
subject-04,1,347,0.852658987045288,airplane,airplane,4-0-10,4-0-10_airplane_10_n02690373_4061.png,True,-0.10296238191132055,1.984144926071167,1.0,-1.2010998785334632,28.27111852169037,10,5.176190476190476,10,23.73504462321642,10
subject-04,1,348,0.756676197052002,cat,knife,32-0-10,32-0-10_knife_10_n03041632_24883.png,False,-0.6308784580822504,1.5484845638275146,0.1111111111111111,-4.597230620354761,28.031633138656616,10,0.7275252525252525,7,41.05997544378417,6
subject-04,1,349,1.06032013893127,keyboard,truck,128-0-10,128-0-10_truck_10_n03417042_6298.png,False,1.039197170696512,2.000877141952514,0.0625,-5.606148790737288,28.336993932724,10,0.17788461538461514,7,50.05648702887474,6
subject-04,1,350,0.95027494430542,oven,truck,64-0-10,64-0-10_truck_10_n03417042_26814.png,False,0.4339362968210109,2.0705673694610596,0.0666666666666666,-5.358961126295195,28.013728380203247,10,0.18071928071928037,7,49.045995805792664,7
subject-04,1,351,0.972145080566406,car,oven,4-0-10,4-0-10_oven_10_n04111531_1128.png,False,0.554224491413301,2.023876667022705,1.0,-0.9434464696370253,28.79335904121399,10,1.0074134199134197,10,55.13107545972974,10
subject-04,1,352,0.78971004486084,truck,truck,2-0-10,2-0-10_truck_10_n03417042_1716.png,True,-0.44918860183521603,0.141129270195961,1.0,-0.02126190007792321,26.328705325722694,10,1.3744200244200242,10,40.96566113958082,10
subject-04,1,353,0.811754941940308,bicycle,bicycle,1-0-10,1-0-10_bicycle_10_n02835271_17184.png,True,-0.3279392032024111,0.001041478710249,1.0,-8.410569056240238e-05,25.887760943965986,10,3.4912698412698413,9,30.306955203457132,9
subject-04,1,354,0.69140100479126,bear,elephant,32-0-10,32-0-10_elephant_10_n02504458_6302.png,False,-0.989899313508566,2.33915376663208,0.25,-2.0887059975409388,29.332637548446655,10,1.3365440115440113,8,35.2800695977764,2
subject-04,1,355,0.981413125991821,airplane,airplane,8-0-10,8-0-10_airplane_10_n02690373_1161.png,True,0.6051997774526131,2.0888545513153076,1.0,-0.8744167443914262,28.70352029800415,10,4.058333333333334,10,25.27737586687307,10
subject-04,1,356,0.75911283493042,elephant,elephant,1-0-10,1-0-10_elephant_10_n02504013_6287.png,True,-0.6174766773264095,0.0017195595428347,1.0,-0.00014550552331207833,26.94119008909911,10,5.248484848484848,6,29.776148442760284,10
subject-04,1,357,0.772852182388306,bottle,truck,16-0-10,16-0-10_truck_10_n03417042_1875.png,False,-0.5419087302014765,1.9262633323669431,0.0625,-6.742470423917412,28.20101797580719,10,0.1358058608058605,2,50.88878411759957,7
subject-04,1,358,0.760797023773193,car,bottle,32-0-10,32-0-10_bottle_10_n04591713_1244.png,False,-0.6082134503930211,1.5716078281402588,0.5,-2.4359968747651175,27.727596402168274,10,4.7742424242424235,1,25.19895461692462,10
subject-04,1,359,0.706496000289917,cat,airplane,128-0-10,128-0-10_airplane_10_n02690373_7142.png,False,-0.906875150593253,2.1332204341888428,0.0666666666666666,-5.238541408567832,28.138773322105408,10,2.7388888888888885,1,31.71770323027136,1
subject-04,1,360,0.892262935638428,oven,oven,2-0-10,2-0-10_oven_10_n04111531_21382.png,True,0.11486376320936366,1.4124287366867063,1.0,-0.5973013310073748,27.884510397911072,10,1.1087662337662336,10,55.75462300628685,10
subject-04,1,361,0.704215049743652,bear,elephant,64-0-10,64-0-10_elephant_10_n02504458_6729.png,False,-0.9194206336158696,1.4155330657958984,0.3333333333333333,-3.2326044031371577,28.223889589309692,10,1.4742424242424241,6,36.08016476507804,6
subject-04,1,362,1.19997620582581,airplane,dog,16-0-10,16-0-10_dog_10_n02090379_7924.png,False,1.8073211526477315,2.38516616821289,0.1111111111111111,-3.153634703816446,29.3718523979187,10,1.1555555555555557,9,36.98060007968002,6
subject-04,1,363,1.03968405723572,dog,cat,32-0-10,32-0-10_cat_10_n02123597_6721.png,False,0.9256964141856882,1.6972675323486328,0.3333333333333333,-2.965733910185273,28.211695194244385,10,4.187301587301587,6,31.33363391828486,5
subject-04,1,364,1.13956999778748,bear,elephant,2-0-10,2-0-10_elephant_10_n02504013_10152.png,False,1.4750802548139557,0.0014955789083614,1.0,-0.00012082591411638808,26.94691703619901,10,4.102813852813853,8,31.802840751900952,10
subject-04,1,365,0.967331886291504,boat,car,32-0-10,32-0-10_car_10_n03100240_16210.png,False,0.5277513847695746,1.408980369567871,0.0714285714285714,-5.400878669239133,27.873335123062134,10,0.2614468864468861,8,51.747150096282866,7
subject-04,1,366,0.885055065155029,bear,dog,8-0-10,8-0-10_dog_10_n02113712_9172.png,False,0.07521966968582232,0.0609454773366451,1.0,-0.010177129593663552,26.356568064540625,10,3.021897546897547,9,32.64727399057042,10
subject-04,1,367,0.910850048065186,bottle,keyboard,16-0-10,16-0-10_keyboard_10_n03085013_25675.png,False,0.21709495965998163,1.7928590774536133,0.125,-3.8631959573075068,28.36250352859497,10,0.466280941280941,7,44.722122179074404,7
subject-04,1,368,0.765010833740234,airplane,airplane,4-0-10,4-0-10_airplane_10_n02690373_2324.png,True,-0.5850370244557687,0.2383921444416046,1.0,-0.03922663071992336,25.74935057759285,10,5.5,0,23.405793489590774,10
subject-04,1,369,0.802772045135498,bear,knife,64-0-10,64-0-10_knife_10_n03041632_20504.png,False,-0.37734613994779376,1.9337141513824463,0.5,-1.375887843665694,28.634723901748657,10,1.5878066378066376,7,36.209122057615225,10
subject-04,1,370,0.864670038223267,cat,elephant,32-0-10,32-0-10_elephant_10_n02504458_62.png,False,-0.03690025755537636,1.8778680562973025,0.5,-1.3935542102532632,28.549598813056946,10,2.173484848484848,8,34.20847470625005,10
subject-04,1,371,0.940207004547119,bear,car,16-0-10,16-0-10_car_10_n03100240_7257.png,False,0.37856150251987264,2.226470470428467,0.0666666666666666,-4.785101794871325,28.867669105529785,10,0.2773809523809519,9,50.47659814299221,6
subject-04,1,372,1.18191695213318,oven,knife,16-0-10,16-0-10_knife_10_n03041632_18766.png,False,1.7079932382512493,1.7879908084869385,0.2,-3.0632677521447507,28.146713733673096,10,1.7103896103896101,7,36.41525907987153,6
subject-04,1,373,0.793990135192871,clock,clock,4-0-10,4-0-10_clock_10_n03196217_820.png,True,-0.4256476264801445,0.9824650883674622,1.0,-0.3535388890525433,26.180919349193573,10,8.833333333333332,10,17.484913060789008,10
subject-04,1,374,0.715811014175415,airplane,airplane,2-0-10,2-0-10_airplane_10_n02690373_6002.png,True,-0.8556415327722473,0.0004116414056625,1.0,-3.2187026175591366e-05,26.237354647921165,10,5.416666666666666,0,22.924903220594622,10
subject-04,1,375,0.667494058609009,bear,clock,32-0-10,32-0-10_clock_10_n04548280_1119.png,False,-1.1213901903902064,2.16259241104126,0.3333333333333333,-2.129507432792382,29.240015983581543,10,4.908333333333333,2,24.97606110651051,10
subject-04,1,376,1.37731003761292,knife,keyboard,16-0-10,16-0-10_keyboard_10_n03085013_24618.png,False,2.7826770540124994,2.078157424926758,0.0909090909090909,-3.853639299443626,29.069262742996216,10,0.4388999888999886,9,44.7119143334867,7
subject-04,1,377,0.935075998306274,keyboard,truck,128-0-10,128-0-10_truck_10_n04467665_19747.png,False,0.35034039453098265,0.0456748753786087,0.0714285714285714,-9.484175644784866,25.734520629048347,10,0.14798534798534757,6,56.07337611485285,6
subject-04,1,378,,na,clock,8-0-10,8-0-10_clock_10_n02708093_3171.png,False,,1.6034138202667236,0.5,-1.7246585927724334,27.96635103225708,10,6.958333333333333,2,22.052560052335622,10
subject-04,1,379,0.733031988143921,bicycle,bicycle,1-0-10,1-0-10_bicycle_10_n02835271_2570.png,True,-0.7609242505810199,0.010188328102231,1.0,-0.0010787700826084949,26.11540268547833,10,4.103968253968254,8,30.43349489279744,10
subject-04,1,380,1.04479312896729,bear,bicycle,64-0-10,64-0-10_bicycle_10_n03792782_14047.png,False,0.9537968799212116,0.1849062740802765,0.0769230769230769,-7.258498481172306,26.280044585466385,10,1.051165501165501,3,40.185304357155495,6
subject-04,1,381,0.704780101776123,cat,dog,32-0-10,32-0-10_dog_10_n02097474_8052.png,False,-0.9163127842625075,1.832801103591919,0.1666666666666666,-3.180802637168642,28.212568044662476,10,1.1607864357864355,9,37.62022892180961,6
subject-04,1,382,1.03258895874023,boat,boat,2-0-10,2-0-10_boat_10_n02951358_7137.png,True,0.8866725792039442,0.2919193506240845,1.0,-0.06213484693010131,26.502188205718994,10,2.3101190476190476,10,30.19679561177677,10
subject-04,1,383,0.78821587562561,keyboard,keyboard,1-0-10,1-0-10_keyboard_10_n03085013_8677.png,True,-0.45740669968226844,0.0166514758020639,1.0,-0.0019817306078306874,24.6317964438349,10,3.4039682539682534,9,35.69481814956408,6
subject-04,1,384,0.645787954330444,bear,bicycle,64-0-10,64-0-10_bicycle_10_n03792782_9412.png,False,-1.2407761907398382,2.352187156677246,0.0769230769230769,-4.064013511445264,29.30285882949829,10,1.1278610278610275,3,34.65676360317721,6
subject-04,1,385,0.801712989807129,boat,keyboard,64-0-10,64-0-10_keyboard_10_n03085013_22929.png,False,-0.3831710626598716,2.276329040527344,0.0666666666666666,-5.333570888408397,29.262999773025513,10,0.21483516483516438,8,48.00556082106892,7
subject-04,1,386,0.851339817047119,cat,oven,128-0-10,128-0-10_oven_10_n04111531_4795.png,False,-0.1102179643890176,1.9803447723388672,0.0666666666666666,-6.004792960566792,28.68119168281555,10,0.004166666666666596,10,65.30266953719968,7
subject-04,1,387,0.997276067733765,dog,bottle,32-0-10,32-0-10_bottle_10_n04591713_4865.png,False,0.6924477305650505,0.7847395539283752,0.25,-4.28965141508489,26.999439537525177,10,4.579004329004328,1,27.112636451623032,4
subject-04,1,388,0.917179107666016,elephant,elephant,1-0-10,1-0-10_elephant_10_n02504013_5894.png,True,0.25190549507529747,0.0010594333289191,1.0,-8.958979414317587e-05,26.840314766275696,10,4.649675324675325,7,30.793262576836824,10
subject-04,1,389,0.99478006362915,keyboard,keyboard,128-0-10,128-0-10_keyboard_10_n04505470_4902.png,True,0.678719428927777,2.300166130065918,0.0909090909090909,-3.910253126271256,28.71726906299591,10,0.3977022977022974,9,42.99732020584655,7
subject-04,1,390,0.990606069564819,chair,oven,1-0-10,1-0-10_oven_10_n04111531_1612.png,False,0.6557619949069856,0.6189318895339966,0.5,-1.3970448354058116,25.827044248580933,10,0.6644230769230768,10,57.257831836858976,6
subject-04,1,391,0.938483953475952,bottle,clock,16-0-10,16-0-10_clock_10_n04548280_7050.png,False,0.36908452898538563,1.4521260261535645,0.5,-1.8303373765016595,27.363526105880737,10,7.266666666666666,2,21.460541238828952,10
subject-04,1,392,0.704434871673584,cat,bird,128-0-10,128-0-10_bird_10_n02051845_2316.png,False,-0.9182115884243918,2.4553728103637695,0.125,-2.800128527284432,29.321014642715454,10,0.9646825396825394,4,35.42477121321387,0
subject-04,1,393,1.0462589263916,keyboard,bottle,4-0-10,4-0-10_bottle_10_n03937543_4912.png,False,0.9618589296361376,1.2407928705215454,1.0,-0.3677767567263216,27.293153047561646,10,4.9178321678321675,10,22.965725693736502,10
subject-04,1,394,0.925861120223999,keyboard,clock,8-0-10,8-0-10_clock_10_n03196217_5433.png,False,0.29965753482323315,1.7709168195724487,1.0,-0.7804671187910563,27.840113043785095,10,8.541666666666666,10,19.575938538330348,10
subject-04,1,395,0.729717016220093,bird,bird,2-0-10,2-0-10_bird_10_n02025239_15032.png,True,-0.7791569667873991,0.0119885131716728,1.0,-0.0011835542997189281,26.529876343905926,10,2.9920634920634916,9,31.75118468540648,10
subject-04,1,396,1.13556504249573,cat,bear,8-0-10,8-0-10_bear_10_n02132136_20770.png,False,1.4530525529414786,1.6190943717956543,1.0,-0.791947280901793,28.402960777282715,10,2.4285714285714284,10,30.341951897249853,10
subject-04,1,397,0.691367149353027,keyboard,keyboard,1-0-10,1-0-10_keyboard_10_n03085013_24284.png,True,-0.9900855222040024,0.0060076410882174,1.0,-0.0006472178193112718,25.132083147298545,10,3.1675324675324674,9,35.410845277710386,10
subject-04,1,398,0.98508095741272,truck,boat,4-0-10,4-0-10_boat_10_n03344393_3773.png,False,0.6253732603437948,1.5612529516220093,1.0,-0.5985160523024793,28.116875052452087,10,2.3748376623376624,10,29.571823182682266,10
subject-04,1,399,0.961230039596558,bear,bicycle,16-0-10,16-0-10_bicycle_10_n03792782_2905.png,False,0.4941905457398088,1.5798990726470947,0.1,-5.091588270596744,28.311880588531494,10,1.130988455988456,3,37.36179246465157,3
subject-04,1,400,0.974674940109253,keyboard,knife,4-0-10,4-0-10_knife_10_n03041632_14293.png,False,0.5681390017460054,1.6924772262573242,0.3333333333333333,-2.0598102819014934,27.918108701705933,10,1.667171717171717,8,37.752017316419334,5
subject-04,1,401,0.668986797332764,cat,chair,8-0-10,8-0-10_chair_10_n04099969_7191.png,False,-1.1131799605162023,2.048451662063598,0.1,-3.9721885314769048,28.51975905895233,10,0.12527472527472466,10,51.34753446524711,7
subject-04,1,402,0.566684007644653,cat,cat,1-0-10,1-0-10_cat_10_n02124075_13436.png,True,-1.675856741606492,0.2772038578987121,0.5,-2.702356413407962,26.35319858789444,10,4.978968253968254,6,30.410065519871544,0
subject-04,1,403,0.754696130752563,chair,chair,2-0-10,2-0-10_chair_10_n03376595_17811.png,True,-0.6417690441074244,0.4371555149555206,0.3333333333333333,-3.631830033306484,25.587973028421402,10,0.4746753246753241,10,49.78696884441201,7
subject-04,1,404,0.876362085342407,boat,cat,32-0-10,32-0-10_cat_10_n02123597_5768.png,False,0.02740730881119572,0.9783358573913574,0.3333333333333333,-3.5358143764907437,27.72518801689148,10,4.169444444444444,6,32.9447123181552,0
subject-04,1,405,0.624222040176392,boat,bird,128-0-10,128-0-10_bird_10_n02025239_1723.png,False,-1.3593911297309074,2.082237243652344,0.0833333333333333,-4.43648886604824,29.072986125946045,10,0.6178682428682425,8,40.35591906835492,6
subject-04,1,406,0.699824810028076,truck,truck,2-0-10,2-0-10_truck_10_n03796401_26820.png,True,-0.9435674428955209,0.0013359087752178,1.0,-0.00011045350653276935,25.521830369834788,10,3.1597735597735594,8,40.21837912215957,10
subject-04,1,407,0.783890962600708,cat,cat,128-0-10,128-0-10_cat_10_n02123394_6014.png,True,-0.48119420485946246,1.7304991483688354,1.0,-1.001674011921737,28.243737816810608,10,5.405555555555555,6,28.554624493365935,10
subject-04,1,408,0.989630937576294,knife,knife,8-0-10,8-0-10_knife_10_n03041632_50423.png,True,0.6503986599469692,2.258106470108032,0.125,-3.5106889088951543,28.397982835769653,10,1.2794733044733042,5,37.657479639352864,5
subject-04,1,409,0.689352035522461,bear,dog,32-0-10,32-0-10_dog_10_n02096051_2151.png,False,-1.0011688735688102,2.210901260375977,0.25,-2.1071406587029573,28.413036823272705,10,1.7345959595959595,9,35.534429476277204,6
subject-04,1,410,0.571545839309692,cat,bear,128-0-10,128-0-10_bear_10_n02132136_4219.png,False,-1.6491161238791834,1.8459537029266355,0.1666666666666666,-3.3462782404844322,28.653113842010498,10,1.4773809523809516,5,33.452073260654224,0
subject-04,1,411,1.05116391181946,bottle,cat,16-0-10,16-0-10_cat_10_n02124075_6716.png,False,0.9888368978837013,2.1351938247680664,0.5,-1.9619638343764736,28.758705615997314,10,4.853968253968254,6,30.71205055831727,5
subject-04,1,412,0.796693086624146,cat,truck,32-0-10,32-0-10_truck_10_n03417042_2812.png,False,-0.4107810914088146,2.2355542182922363,0.0714285714285714,-4.74962728920762,28.928659200668335,10,0.16849816849816818,3,48.84576201813425,7
subject-04,1,413,0.568645000457764,boat,bird,32-0-10,32-0-10_bird_10_n01582220_10508.png,False,-1.665071061888603,2.18331241607666,0.1,-4.274076977164557,29.303816080093384,10,0.4850288600288599,0,40.70523601373468,6
subject-04,1,414,0.89642596244812,bird,truck,32-0-10,32-0-10_truck_10_n03417042_6033.png,False,0.13776087610346419,1.6469135284423828,0.0666666666666666,-4.75180825970628,28.00663161277771,10,0.1591575091575088,2,49.32153700172175,7
subject-04,1,415,1.26835608482361,cat,dog,8-0-10,8-0-10_dog_10_n02086240_3031.png,False,2.1834181322425796,1.91811203956604,0.25,-2.643967106330892,27.94547402858734,10,1.4698773448773448,9,37.60292836161824,6
subject-04,1,416,0.728203773498535,airplane,airplane,1-0-10,1-0-10_airplane_10_n02690373_3728.png,True,-0.7874799709417374,0.0040615662001073,1.0,-0.00038947297907282534,25.052738533820957,10,6.333333333333333,0,20.82402613851835,9
subject-04,1,417,0.937947034835815,keyboard,bird,64-0-10,64-0-10_bird_10_n02013706_5454.png,False,0.3661314164352711,2.0833585262298584,0.125,-3.8234254235840455,28.61986517906189,10,0.7924603174603172,0,37.34912348731375,6
subject-04,1,418,0.735712051391602,dog,dog,4-0-10,4-0-10_dog_10_n02099601_9973.png,True,-0.7461836030784349,0.6873086094856262,1.0,-0.26261448030484313,27.184922993183136,10,1.95523088023088,10,34.62159928406944,10
subject-04,1,419,0.701457977294922,keyboard,keyboard,4-0-10,4-0-10_keyboard_10_n04505470_751.png,True,-0.9345848403341193,0.0013532517477869,1.0,-0.0001137321294849034,24.8246797202155,10,2.9020313020313018,9,35.00997120466303,9
subject-04,1,420,0.763449907302856,keyboard,elephant,64-0-10,64-0-10_elephant_10_n02504458_5941.png,False,-0.5936222943783217,0.1101283505558967,0.0714285714285714,-8.170252077361225,26.065447635948658,10,0.721176046176046,2,43.83052430750899,6
subject-04,1,421,0.667114973068237,bear,elephant,32-0-10,32-0-10_elephant_10_n02504013_7732.png,False,-1.123475203247527,0.2830179929733276,0.5,-4.8278902605429925,26.908254265785217,10,1.6758658008658005,10,38.12410552138782,6
subject-04,1,422,0.643063068389893,boat,boat,1-0-10,1-0-10_boat_10_n04273569_6158.png,True,-1.2557633680645401,0.0190378706902265,1.0,-0.002070900846567197,26.275016931816936,10,2.1172619047619046,10,31.583291416150992,10
subject-04,1,423,0.968786001205444,car,car,16-0-10,16-0-10_car_10_n03100240_16803.png,True,0.5357491793713206,2.1748287677764893,0.0769230769230769,-5.049278139578073,28.8483989238739,10,0.29716117216117177,9,49.54663314609616,6
subject-04,1,424,0.996429920196533,oven,bottle,64-0-10,64-0-10_bottle_10_n03983396_14002.png,False,0.6877938245080536,0.5042106509208679,0.0833333333333333,-5.6810304571996175,26.254229366779327,10,3.6976190476190474,1,30.42067613984618,4
subject-04,1,425,0.690509080886841,boat,bird,8-0-10,8-0-10_bird_10_n02013706_406.png,False,-0.9948049947030472,0.6011794209480286,0.1,-6.200936291313126,27.793660938739777,10,0.6298340548340545,0,41.0424040063013,0
subject-04,1,426,0.728121995925903,bear,bicycle,16-0-10,16-0-10_bicycle_10_n02835271_3989.png,False,-0.787929756734229,1.14682137966156,0.1111111111111111,-5.376136035419919,28.114654660224915,10,1.0413419913419915,3,37.21037960757054,6
subject-04,1,427,1.08584690093994,oven,chair,64-0-10,64-0-10_chair_10_n03376595_1770.png,False,1.179597215724469,1.701138973236084,0.2,-3.7185944655073646,27.31704545021057,10,0.2586080586080581,10,52.38602440786336,6
subject-04,1,428,0.928112030029297,cat,oven,8-0-10,8-0-10_oven_10_n04111531_12952.png,False,0.31203779041187246,1.741000413894653,0.1111111111111111,-4.02523347191036,28.272883415222168,10,0.1143578643578643,10,60.117084559856835,7
subject-04,1,429,0.715968132019043,bear,bear,32-0-10,32-0-10_bear_10_n02133161_1480.png,True,-0.8547773670659755,1.408217430114746,1.0,-0.9084205024193821,27.964227199554443,10,2.6857142857142855,10,30.627573905148218,10
subject-04,1,430,1.18331789970398,bicycle,car,64-0-10,64-0-10_car_10_n02814533_14484.png,False,1.7156986065214321,0.7864736914634705,0.0666666666666666,-5.656635550699119,27.222024977207184,10,0.20836940836940798,8,51.885916371776496,6
subject-04,1,431,0.829280138015747,keyboard,keyboard,16-0-10,16-0-10_keyboard_10_n03085013_23535.png,True,-0.23154866540996827,1.4208993911743164,0.25,-3.0238858908675,28.08185338973999,10,0.8571178821178818,9,43.60587849826155,6
subject-04,1,432,0.869029998779297,bottle,car,32-0-10,32-0-10_car_10_n03100240_21737.png,False,-0.012919987038543556,1.1349551677703855,0.0714285714285714,-5.274540840342548,27.64474582672119,10,0.3554945054945052,9,50.52702307712505,6
subject-04,1,433,1.13281321525574,bear,bottle,16-0-10,16-0-10_bottle_10_n04560804_30659.png,False,1.4379171954577314,2.191807985305786,0.1428571428571428,-2.610586859600781,28.97527027130127,10,4.542857142857143,2,26.18416306477405,10
subject-04,1,434,0.964794158935547,car,dog,32-0-10,32-0-10_dog_10_n02108915_8875.png,False,0.5137936005851164,0.1587175875902176,0.1111111111111111,-7.019424490216517,26.241728022694588,10,1.3325757575757575,9,42.11884269765103,6
subject-04,1,435,0.642320871353149,keyboard,keyboard,2-0-10,2-0-10_keyboard_10_n03085013_24159.png,True,-1.2598455347468278,0.0006771321641281,1.0,-5.322836438867695e-05,24.45673634961713,10,3.575396825396825,8,33.652333387541255,6
subject-04,1,436,0.766350030899048,keyboard,keyboard,2-0-10,2-0-10_keyboard_10_n04505470_279.png,True,-0.5776712903554184,0.0002517176326364,1.0,-1.907366822926733e-05,24.09795767790638,10,3.143290043290043,9,35.78717126542234,6
subject-04,1,437,1.3361279964447,knife,cat,16-0-10,16-0-10_cat_10_n02123045_873.png,False,2.556171223292668,2.1927528381347656,0.25,-2.296119031192727,28.46925449371338,10,4.772222222222222,6,30.65436084128449,0
subject-04,1,438,0.643833875656128,boat,dog,64-0-10,64-0-10_dog_10_n02104029_5234.png,False,-1.2515238419213295,2.134669780731201,1.0,-1.1067870693586694,29.156679153442383,10,2.017929292929293,10,34.77675847789205,10
subject-04,1,439,0.691901922225952,bicycle,bicycle,4-0-10,4-0-10_bicycle_10_n03792782_30530.png,True,-0.9871442116134582,0.6117757558822632,1.0,-0.13563877953917536,27.213253140449524,10,1.8020202020202019,10,33.49358719157047,10
