subject_id,Session,trial,rt,object_response,category,condition,item_id,response_correct,rt_zscore,output_entropy,output_rank_correct,output_logprob_correct,auc_entropy,layer_biggest_change_entropy,auc_rank_correct,layer_biggest_change_rank_correct,auc_logprob_correct,layer_biggest_change_logprob_correct
subject-01,1,1,0.828052043914795,oven,oven,1-10-10,1-10-10_oven_10_n04111531_17072.png,True,-0.4227482683495018,0.0053649405017495,1.0,-0.00048529954724988697,26.014070198871195,9,3.8712662337662334,8,29.818613165879942,6
subject-01,1,2,0.925548076629639,boat,airplane,16-10-10,16-10-10_airplane_10_n02690373_4183.png,False,0.0511567988974066,2.1286542415618896,1.0,-1.1859240314750383,29.878851175308228,9,3.61025641025641,9,29.89986886247604,3
subject-01,1,3,0.775381088256836,car,car,8-10-10,8-10-10_car_10_n03100240_1137.png,True,-0.6787692785176788,2.513396978378296,0.5,-2.1603120086291847,29.969392776489258,4,1.9081349206349203,9,42.37159412984507,7
subject-01,1,4,0.519556999206543,clock,clock,2-10-10,2-10-10_clock_10_n04548280_7083.png,True,-1.922269436922583,0.1579302251338958,1.0,-0.021301172010396965,26.4544697701931,9,4.886446886446886,6,30.505113698888998,9
subject-01,1,5,0.72134804725647,bottle,bottle,2-10-10,2-10-10_bottle_10_n02823428_7810.png,True,-0.9414110621451967,0.3469841778278351,1.0,-0.05978420312384608,26.696432024240494,9,4.432081807081807,7,26.82584972256616,0
subject-01,1,6,1.26470518112183,boat,dog,128-10-10,128-10-10_dog_10_n02091244_8368.png,False,1.699718960208482,2.4290337562561035,0.1428571428571428,-2.9631477636619774,30.828289270401,10,1.2158730158730156,8,34.41513541958431,0
subject-01,1,7,0.738478899002075,bicycle,bicycle,1-10-10,1-10-10_bicycle_10_n02835271_2930.png,True,-0.8581420590644002,0.0224849358201026,1.0,-0.0023256143621447406,24.887219075113535,9,7.666666666666666,6,18.75384596611406,8
subject-01,1,8,0.642343997955322,oven,knife,4-10-10,4-10-10_knife_10_n03041632_52848.png,False,-1.3254309884363942,1.2270536422729492,0.3333333333333333,-3.714558201258237,28.926571130752563,10,1.9678571428571425,5,32.8575827448546,5
subject-01,1,9,0.56015682220459,bottle,bottle,2-10-10,2-10-10_bottle_10_n02823428_4097.png,True,-1.7249233366522627,0.0717318654060363,1.0,-0.00863682920257251,24.694119706749916,9,4.7709706959706955,7,23.883929906781162,0
subject-01,1,10,1.02044796943665,dog,dog,8-10-10,8-10-10_dog_10_n02105641_10264.png,True,0.5124426464351147,0.7031204700469971,1.0,-0.13260389777102088,26.59764015674591,9,4.394877344877345,8,26.182105801419226,9
subject-01,1,11,1.3359100818634,car,boat,8-10-10,8-10-10_boat_10_n03662601_10278.png,False,2.04582907704717,2.5215001106262207,0.3333333333333333,-2.157772365048564,30.735371351242065,10,5.166666666666666,4,26.77470137894348,0
subject-01,1,12,1.07602500915527,bear,truck,32-10-10,32-10-10_truck_10_n04467665_76958.png,False,0.7825894412515845,2.3906447887420654,0.125,-3.185176770051045,30.063936471939087,9,1.13525641025641,2,34.424451987473056,0
subject-01,1,13,0.869771003723145,cat,dog,16-10-10,16-10-10_dog_10_n02088238_12552.png,False,-0.21996230975288086,2.1529784202575684,1.0,-1.0701487559869978,30.01123309135437,10,3.903968253968254,8,29.679298348962313,10
subject-01,1,14,0.923352003097534,boat,dog,8-10-10,8-10-10_dog_10_n02102040_994.png,False,0.04048220685574555,1.3212311267852783,1.0,-0.4144900077939806,28.445958375930786,10,3.221428571428571,9,29.672688589451052,9
subject-01,1,15,0.902994871139526,cat,bear,128-10-10,128-10-10_bear_10_n02133161_1944.png,False,-0.058468978345097025,2.226743221282959,0.3333333333333333,-2.5011531304445627,30.62393856048584,10,9.583333333333334,2,23.092010944813296,4
subject-01,1,16,0.736793041229248,car,car,16-10-10,16-10-10_car_10_n02814533_43040.png,True,-0.8663366134370586,2.328220844268799,0.125,-3.4262700749554904,30.29985547065735,9,0.17170329670329648,10,45.76428941070998,7
subject-01,1,17,1.20865201950073,oven,oven,128-10-10,128-10-10_oven_10_n04111531_18592.png,True,1.4272578498662474,2.413649082183838,0.125,-3.1625223837700025,30.739556074142456,10,0.46848845598845584,7,40.10599787935536,6
subject-01,1,18,1.37067413330078,airplane,chair,16-10-10,16-10-10_chair_10_n02791124_4294.png,False,2.214808877306244,2.469489097595215,0.0769230769230769,-3.880857090997785,30.685916900634766,4,0.9745421245421242,0,38.5204231505112,6
subject-01,1,19,0.914475917816162,oven,knife,32-10-10,32-10-10_knife_10_n03041632_2630.png,False,-0.0026623363120856815,2.570796251296997,0.25,-2.4062883608843313,30.9143807888031,4,1.5828144078144075,9,32.98772677071957,5
subject-01,1,20,0.792237043380737,elephant,elephant,1-10-10,1-10-10_elephant_10_n02504458_723.png,True,-0.5968364826482635,0.0808828100562095,1.0,-0.009840828811168273,24.603722617030144,9,6.3428571428571425,6,21.516425735709554,9
subject-01,1,21,1.18988704681396,keyboard,chair,4-10-10,4-10-10_chair_10_n03376595_6107.png,False,1.3360457728679984,0.3818833529949188,1.0,-0.07023729211298112,28.183694809675217,10,3.8475940725940725,8,29.4747914109006,9
subject-01,1,22,0.825675010681152,cat,clock,32-10-10,32-10-10_clock_10_n03196217_1337.png,False,-0.434302462536382,2.3659849166870117,0.5,-1.9099225716122523,30.3945472240448,10,0.8566239316239312,10,38.94317858536373,6
subject-01,1,23,1.10373997688293,bottle,boat,128-10-10,128-10-10_boat_10_n02951358_9550.png,False,0.9173053192108196,2.671231269836426,0.1666666666666666,-2.728979097608215,31.119104623794556,4,3.342857142857143,4,29.42248031236183,0
subject-01,1,24,1.27160501480103,bird,bird,128-10-10,128-10-10_bird_10_n01616318_2334.png,True,1.7332574135453218,2.1644644737243652,0.0714285714285714,-4.255964009115408,30.372013807296753,10,0.11739926739926687,7,45.104145544766,6
subject-01,1,25,1.08963108062744,clock,bottle,32-10-10,32-10-10_bottle_10_n03937543_1658.png,False,0.8487253242863741,2.5873026847839355,0.5,-1.8900363455091957,30.790616273880005,4,2.8555666555666557,8,33.39795509551384,0
subject-01,1,26,1.08706307411194,elephant,elephant,2-10-10,2-10-10_elephant_10_n02504013_6731.png,True,0.8362428543177961,0.023000381886959,1.0,-0.0023686902982458223,24.81213491410017,9,6.116666666666666,1,21.675609693193298,9
subject-01,1,27,0.772952795028687,keyboard,keyboard,4-10-10,4-10-10_keyboard_10_n04505470_4447.png,True,-0.6905726353675621,0.0652252808213234,1.0,-0.007694024910638848,25.436960941180587,9,4.9914141414141415,6,25.851732321479815,6
subject-01,1,28,0.928697824478149,airplane,airplane,1-10-10,1-10-10_airplane_10_n02690373_4839.png,True,0.06646697536709649,0.0146312117576599,1.0,-0.001445861343283812,24.050957911647856,9,7.644022644022644,3,20.844216246479853,3
subject-01,1,29,1.39457392692566,clock,keyboard,64-10-10,64-10-10_keyboard_10_n04505470_1651.png,False,2.3309800997611414,2.140716791152954,0.0833333333333333,-4.1740371902142055,29.966533184051514,10,1.1600288600288597,6,36.984189687784735,6
subject-01,1,30,1.14040589332581,boat,keyboard,32-10-10,32-10-10_keyboard_10_n03085013_20601.png,False,1.095529633715538,2.3932955265045166,0.5,-1.7945187655126897,30.47849416732788,9,4.456060606060606,6,31.91194548033385,6
subject-01,1,31,,na,airplane,64-10-10,64-10-10_airplane_10_n02690373_2217.png,False,,2.6902356147766113,0.3333333333333333,-2.3772754138777774,31.14454436302185,4,3.4384670884670885,4,31.786855623669375,7
subject-01,1,32,0.658030033111572,oven,bicycle,4-10-10,4-10-10_bicycle_10_n03792782_25019.png,False,-1.249184895764069,1.493346929550171,1.0,-0.5866435768685864,29.961053371429443,10,6.15,8,24.986001522255002,10
subject-01,1,33,0.473824977874756,cat,cat,8-10-10,8-10-10_cat_10_n02123597_13890.png,True,-2.144561934792374,0.1607489883899688,1.0,-0.02199151384288841,25.246986359357834,9,3.7825396825396824,8,28.801587512128666,9
subject-01,1,34,1.14561295509338,boat,boat,1-10-10,1-10-10_boat_10_n04612504_214.png,True,1.1208399246925709,0.0417698174715042,1.0,-0.004684316075668927,24.992440402507782,9,7.351190476190476,4,20.72454490279203,8
subject-01,1,35,1.48520302772522,cat,chair,128-10-10,128-10-10_chair_10_n02791124_2555.png,False,2.771506641333977,2.471299886703491,0.1428571428571428,-2.984316471889878,30.844969034194946,10,1.0794011544011541,0,36.62643120874245,6
subject-01,1,36,0.659149885177612,car,car,4-10-10,4-10-10_car_10_n04285008_2081.png,True,-1.243741560749449,0.169406846165657,1.0,-0.023618631018621647,25.427173778414726,9,3.0081709956709957,8,35.073184603233166,8
subject-01,1,37,0.998796939849854,bicycle,dog,32-10-10,32-10-10_dog_10_n02094114_8202.png,False,0.4072021320615163,1.72661554813385,1.0,-0.556994684509147,29.339171528816223,10,3.28015873015873,9,29.680316377912554,9
subject-01,1,38,1.09865593910217,boat,chair,64-10-10,64-10-10_chair_10_n04099969_4541.png,False,0.892593018624972,2.5658187866210938,0.0625,-4.122718371018784,30.38036847114563,4,0.4846361971361969,6,42.01882735743345,6
subject-01,1,39,0.866456985473633,chair,boat,128-10-10,128-10-10_boat_10_n04612504_12864.png,False,-0.2360709656403047,2.305264711380005,0.1666666666666666,-3.0002787899033425,30.26771593093872,10,3.033333333333333,7,29.902973289185347,2
subject-01,1,40,0.874287128448486,airplane,airplane,4-10-10,4-10-10_airplane_10_n02690373_18460.png,True,-0.19801049969392337,0.0134415114298462,1.0,-0.0013126998404175698,25.048946634866297,9,5.338467088467088,7,23.19175982116084,9
subject-01,1,41,1.17604207992554,cat,bottle,64-10-10,64-10-10_bottle_10_n03983396_8982.png,False,1.2687486759340334,2.582515239715576,0.125,-3.047982300425314,31.026255130767822,4,0.47689810189810167,0,37.90296502926435,0
subject-01,1,42,0.940145969390869,boat,dog,16-10-10,16-10-10_dog_10_n02099601_10407.png,False,0.12211368973734114,2.0047788619995117,0.2,-3.2597476376947654,29.60695719718933,10,1.317460317460317,7,35.01564882915282,6
subject-01,1,43,0.739727020263672,boat,airplane,32-10-10,32-10-10_airplane_10_n02690373_5253.png,False,-0.8520752379442074,2.6185050010681152,0.25,-2.4536626004403495,30.695820808410645,4,1.7808913308913306,8,33.966165244302665,3
subject-01,1,44,0.869636058807373,elephant,elephant,2-10-10,2-10-10_elephant_10_n02504013_2832.png,True,-0.22061824494945004,0.067689761519432,1.0,-0.008147498433615867,25.705356553196907,9,5.457575757575757,1,24.56907446225143,9
subject-01,1,45,0.513876914978027,clock,clock,1-10-10,1-10-10_clock_10_n02708093_8002.png,True,-1.949878977775963,0.0392024889588356,1.0,-0.004333634015832964,25.637702509760857,9,4.845833333333333,6,30.74488009057483,9
subject-01,1,46,0.657395124435425,chair,chair,2-10-10,2-10-10_chair_10_n03376595_1766.png,True,-1.2522710360970315,0.2969445884227752,1.0,-0.049470314542915686,25.336476784199476,9,4.15261544011544,8,28.772681784121556,6
subject-01,1,47,0.989163160324097,truck,truck,2-10-10,2-10-10_truck_10_n03417042_17616.png,True,0.3603746170656099,0.2383599281311035,1.0,-0.03458222990931284,26.094980537891388,9,4.385714285714286,8,24.538018256896194,9
subject-01,1,48,1.24484205245972,car,bear,16-10-10,16-10-10_bear_10_n02134418_2804.png,False,1.603169007741359,1.5841560363769531,0.2,-3.303589178200794,28.67322063446045,10,8.116666666666665,2,22.488690415861573,4
subject-01,1,49,1.46058297157288,dog,car,64-10-10,64-10-10_car_10_n04285008_12101.png,False,2.6518343937398354,2.0260777473449707,0.0833333333333333,-4.044762178781988,29.817511558532715,10,0.060714285714285485,10,48.22717353021127,7
subject-01,1,50,0.800395965576172,bear,bear,16-10-10,16-10-10_bear_10_n02134418_3828.png,True,-0.5571778989703122,2.39475679397583,1.0,-1.0953207107359761,30.311489582061768,9,10.75,2,19.536060861576008,10
subject-01,1,51,0.734286785125732,bird,bird,2-10-10,2-10-10_bird_10_n01530575_5747.png,True,-0.8785189293139376,0.6441701054573059,1.0,-0.1184087821418035,26.478500872850418,9,3.930927405927406,7,32.638975907341134,8
subject-01,1,52,1.00006914138794,cat,truck,128-10-10,128-10-10_truck_10_n03796401_3386.png,False,0.4133860016885154,2.5398850440979004,0.0769230769230769,-3.6505159043565265,30.770710468292236,10,0.9050366300366297,0,36.369899007165,0
subject-01,1,53,1.13001894950867,keyboard,keyboard,16-10-10,16-10-10_keyboard_10_n04505470_3234.png,True,1.0450411659175847,2.563504695892334,0.3333333333333333,-2.405513430967204,30.67047142982483,9,3.267929292929293,6,33.9136302784263,6
subject-01,1,54,0.776087999343872,truck,truck,1-10-10,1-10-10_truck_10_n04467665_72639.png,True,-0.6753331515603986,0.579836368560791,1.0,-0.22528249983691337,26.575253129005432,9,3.2095238095238092,10,26.96960058449037,10
subject-01,1,55,1.1074481010437,bear,chair,32-10-10,32-10-10_chair_10_n04429376_27524.png,False,0.9353296303631452,2.2973780632019043,0.1,-3.500627986261132,30.61366057395935,10,1.013690476190476,0,38.23588321001597,6
subject-01,1,56,0.795408010482788,boat,bottle,64-10-10,64-10-10_bottle_10_n04557648_11440.png,False,-0.581423164425045,1.795280694961548,0.1666666666666666,-3.6934207313046787,30.023520946502686,10,0.7822510822510819,0,37.216365268775405,0
subject-01,1,57,1.40327095985413,oven,keyboard,32-10-10,32-10-10_keyboard_10_n03085013_20216.png,False,2.3732543119526244,2.5158729553222656,0.0666666666666666,-3.900513825533584,30.785391807556152,10,1.2731601731601727,6,37.246342811987475,6
subject-01,1,58,0.665127992630005,boat,boat,8-10-10,8-10-10_boat_10_n02951358_34653.png,True,-1.2146833997623077,0.5900698900222778,0.2,-4.65004119203908,27.915477633476257,10,3.8027777777777776,4,30.832926252815287,2
subject-01,1,59,0.669102907180786,keyboard,keyboard,2-10-10,2-10-10_keyboard_10_n03085013_8932.png,True,-1.1953622838662574,0.3195432722568512,1.0,-0.057772824910033986,26.888416439294815,10,4.531060606060606,7,28.472263254683376,9
subject-01,1,60,1.21475315093994,chair,cat,1-10-10,1-10-10_cat_10_n02125311_35338.png,False,1.4569140012446087,0.0382655784487724,1.0,-0.004261560947119064,26.684518449008465,9,4.698290598290598,7,28.49880478056303,9
subject-01,1,61,1.05440711975098,bird,bicycle,16-10-10,16-10-10_bicycle_10_n03792782_5449.png,False,0.6775100134369122,2.2322447299957275,0.125,-3.322112741011259,30.440317630767822,10,2.0706349206349204,3,30.910412300208254,6
subject-01,1,62,0.816334962844849,bicycle,bicycle,4-10-10,4-10-10_bicycle_10_n03792782_9432.png,True,-0.4797022175284497,0.158917486667633,1.0,-0.02190091509569097,27.085879027843475,10,4.183333333333334,9,24.623084283810208,9
subject-01,1,63,1.21808791160583,car,bottle,1-10-10,1-10-10_bottle_10_n04591713_4291.png,False,1.473123481093324,0.3861259222030639,1.0,-0.07737770240552973,28.19341003894806,10,3.782911532911533,8,29.82187227569942,9
subject-01,1,64,0.755951166152954,truck,truck,4-10-10,4-10-10_truck_10_n04467665_67057.png,True,-0.7732135167583645,0.0938960090279579,1.0,-0.011679099565400957,25.91462830454111,9,4.426190476190476,8,24.114723947044613,9
subject-01,1,65,0.987732172012329,bird,keyboard,1-10-10,1-10-10_keyboard_10_n03085013_22790.png,False,0.3534189226313408,0.0432649925351142,1.0,-0.00490830921546814,25.84153438359499,9,5.024747474747475,6,26.709080763522795,9
subject-01,1,66,0.881647109985352,dog,dog,4-10-10,4-10-10_dog_10_n02086079_2896.png,True,-0.16223537687055697,0.8729145526885986,1.0,-0.18204588754933954,27.6162588596344,9,3.18015873015873,9,27.84479158607913,9
subject-01,1,67,0.831305980682373,boat,knife,8-10-10,8-10-10_knife_10_n03041632_40508.png,False,-0.4069316542810458,2.0798134803771973,0.0833333333333333,-4.085873972888101,29.4361355304718,9,1.4928321678321677,5,34.87517088926823,5
subject-01,1,68,1.18108701705933,car,boat,1-10-10,1-10-10_boat_10_n03344393_7942.png,False,1.2932709175583446,0.0611752569675445,1.0,-0.007243278523210376,25.418789319694042,9,7.160714285714286,3,21.309754176336973,9
subject-01,1,69,0.809026956558228,bear,bear,2-10-10,2-10-10_bear_10_n02134418_4352.png,True,-0.5152247010004839,0.0213965587317943,1.0,-0.0022047607194926803,23.996409691870213,9,10.083333333333332,4,14.90255277163009,9
subject-01,1,70,0.930731058120728,dog,cat,16-10-10,16-10-10_cat_10_n02123045_5157.png,False,0.07635004136767211,1.5960445404052734,1.0,-0.6262988774227919,29.177436113357544,10,2.7027777777777775,9,32.17832021989819,9
subject-01,1,71,1.18455910682678,dog,dog,16-10-10,16-10-10_dog_10_n02109047_14287.png,True,1.310147921564685,2.4980623722076416,0.5,-1.816396035651444,30.462292671203613,4,3.246825396825397,8,31.115701906663215,6
subject-01,1,72,0.922544956207275,truck,truck,2-10-10,2-10-10_truck_10_n03417042_14274.png,True,0.03655934353351958,0.0814091861248016,1.0,-0.009887179341941539,25.472613975405693,9,4.992857142857143,7,23.87059680331346,9
subject-01,1,73,0.934284925460815,airplane,airplane,2-10-10,2-10-10_airplane_10_n02690373_5885.png,True,0.09362454673874143,0.0797078758478164,1.0,-0.00997242177061737,27.463786140084267,10,2.7640262515262513,9,32.48926876634736,9
subject-01,1,74,0.970005989074707,cat,cat,32-10-10,32-10-10_cat_10_n02123394_571.png,True,0.2672561559713417,1.8714807033538816,0.2,-2.945779816178336,29.539746284484863,10,0.8468364968364965,7,38.40024243610743,7
subject-01,1,75,1.13007283210754,cat,cat,32-10-10,32-10-10_cat_10_n02123045_10171.png,True,1.0453030764377342,2.488842487335205,1.0,-1.8036760473530857,30.37528133392334,4,3.154761904761904,9,33.425940273184075,5
subject-01,1,76,0.679734945297241,bottle,bottle,8-10-10,8-10-10_bottle_10_n04560804_4909.png,True,-1.1436824708703062,1.847428798675537,1.0,-0.748377554039345,29.833735704421997,10,3.491244866244866,8,31.431037106946842,0
subject-01,1,77,0.667834043502808,keyboard,keyboard,8-10-10,8-10-10_keyboard_10_n03085013_7971.png,True,-1.2015299289477563,2.224792957305908,1.0,-0.8973949485972961,29.517453908920288,9,5.17550505050505,6,27.56532531376307,6
subject-01,1,78,0.655058145523071,keyboard,keyboard,16-10-10,16-10-10_keyboard_10_n03085013_21397.png,True,-1.2636305357379347,1.8626865148544312,0.5,-1.5150048527443902,29.81886351108551,10,2.8123737373737376,8,33.78326567845034,10
subject-01,1,79,1.09133815765381,boat,elephant,32-10-10,32-10-10_elephant_10_n02504458_4187.png,False,0.8570230204125704,2.458465099334717,0.1111111111111111,-3.1605831361794894,30.672685384750366,9,2.640415140415141,1,32.645485804125556,0
subject-01,1,80,0.672982931137085,cat,clock,8-10-10,8-10-10_clock_10_n03196217_6689.png,False,-1.1765024086207951,2.16414737701416,0.0909090909090909,-3.8521053762637014,30.13779926300049,10,0.10771312021311988,4,44.631440295417306,6
subject-01,1,81,0.742294073104858,knife,knife,4-10-10,4-10-10_knife_10_n03041632_26236.png,True,-0.839597403560046,0.1212112456560134,1.0,-0.020120157075449317,26.92701669037342,9,3.99563492063492,9,24.627555467409394,9
subject-01,1,82,0.518115043640137,car,car,8-10-10,8-10-10_car_10_n03100240_1262.png,True,-1.929278440577771,1.3192436695098877,0.1428571428571428,-4.406591146461439,29.535011768341064,10,0.5042790542790541,9,44.05076770121155,0
subject-01,1,83,0.724296092987061,clock,keyboard,64-10-10,64-10-10_keyboard_10_n04505470_5059.png,False,-0.9270813117820313,2.509019374847412,0.0714285714285714,-3.8205454466371402,30.627790451049805,5,0.8588023088023087,6,37.94883883203617,6
subject-01,1,84,1.11187410354614,bird,bird,1-10-10,1-10-10_bird_10_n01537544_26417.png,True,0.9568433776936496,0.0408749245107173,1.0,-0.004754083959743713,24.98613515868783,9,3.9350940725940724,7,30.840800423519994,8
subject-01,1,85,1.50014495849609,oven,bird,32-10-10,32-10-10_bird_10_n02009912_5714.png,False,2.8441358192563078,2.4978175163269043,0.1111111111111111,-3.2055238831174515,30.22707724571228,4,0.256299256299256,10,43.03858588130959,6
subject-01,1,86,0.947460889816284,bottle,chair,128-10-10,128-10-10_chair_10_n03376595_5972.png,False,0.15766978119647856,2.4312570095062256,0.0769230769230769,-3.957394708143851,30.42533588409424,10,0.7620171495171493,0,40.70086812304368,6
subject-01,1,87,0.747545957565308,clock,chair,2-10-10,2-10-10_chair_10_n04429376_805.png,False,-0.8140692401148517,0.0293861217796802,1.0,-0.0031626114492445535,25.752157662063837,9,4.6147186147186146,7,26.568513031364194,9
subject-01,1,88,,na,bicycle,128-10-10,128-10-10_bicycle_10_n03792782_4083.png,False,,2.247556686401367,0.0833333333333333,-4.0796876706917224,30.293754816055298,10,2.1595238095238094,0,31.45449698214212,6
subject-01,1,89,0.629324197769165,clock,clock,1-10-10,1-10-10_clock_10_n02708093_798.png,True,-1.3887171459440384,0.0195196419954299,1.0,-0.0019829847891441646,26.36156590282917,9,4.24120879120879,6,31.26156445717992,9
subject-01,1,90,0.823009967803955,bear,bear,1-10-10,1-10-10_bear_10_n02133161_1660.png,True,-0.44725660322052563,0.0757497102022171,1.0,-0.009148535386989854,25.10000565648079,9,8.916666666666666,4,16.605589261093044,9
subject-01,1,91,0.834322929382324,car,car,8-10-10,8-10-10_car_10_n04285008_9464.png,True,-0.39226698294295714,2.499959945678711,0.0833333333333333,-3.5227912269550727,30.55065631866455,10,0.1565226440226437,8,45.711824666629546,0
subject-01,1,92,0.884393930435181,chair,oven,16-10-10,16-10-10_oven_10_n04111531_3314.png,False,-0.14888373482170877,2.341851234436035,0.2,-3.0085983793503126,30.437446117401123,10,2.18271312021312,8,36.614186647391286,6
subject-01,1,93,1.0841121673584,knife,cat,128-10-10,128-10-10_cat_10_n02123394_5753.png,False,0.8218991972013479,1.8740241527557373,0.25,-2.9559984410577727,29.994131326675415,10,1.3562271062271058,7,35.06651703960462,4
subject-01,1,94,0.680179834365845,boat,boat,2-10-10,2-10-10_boat_10_n02951358_34042.png,True,-1.1415199707346255,0.1063194721937179,1.0,-0.014119113752518248,25.84409026801586,9,6.517857142857142,3,21.741380354166353,9
subject-01,1,95,0.709867000579834,boat,truck,64-10-10,64-10-10_truck_10_n03417042_7588.png,False,-0.997217704178208,2.567816972732544,0.0666666666666666,-3.3862228079908405,30.72263216972351,4,0.8535464535464532,0,35.609356207711535,0
subject-01,1,96,0.955595016479492,bird,truck,32-10-10,32-10-10_truck_10_n03417042_4200.png,False,0.19720783967929884,2.165396213531494,0.1111111111111111,-3.7763230635958016,30.19539475440979,10,0.9591630591630589,0,36.27080093823386,0
subject-01,1,97,0.835479974746704,airplane,airplane,4-10-10,4-10-10_airplane_10_n02690373_4335.png,True,-0.38664286013564275,0.0229686144739389,1.0,-0.0024090794078894112,25.57870360650122,9,5.288034188034188,7,24.940513604683552,9
subject-01,1,98,0.855570077896118,car,elephant,128-10-10,128-10-10_elephant_10_n02504458_6823.png,False,-0.2889896385746506,2.543394088745117,0.0769230769230769,-3.7004365493256985,31.077494382858276,10,3.3114219114219114,1,32.055574588131606,0
subject-01,1,99,0.602923154830933,boat,boat,4-10-10,4-10-10_boat_10_n03344393_4214.png,True,-1.5170463474575526,0.0600932724773883,1.0,-0.00704343217431092,25.090469036251307,9,8.18452380952381,3,20.391700598521552,9
subject-01,1,100,0.575103044509888,keyboard,keyboard,4-10-10,4-10-10_keyboard_10_n03085013_22949.png,True,-1.652273298599985,0.0636551603674888,1.0,-0.007500754376214174,24.569583386182785,9,5.233008658008658,6,23.801156830881865,6
subject-01,1,101,0.826666116714478,chair,bear,64-10-10,64-10-10_bear_10_n02132136_31664.png,False,-0.42948493141954247,2.601139545440674,0.1428571428571428,-2.808977612380844,30.44356632232666,4,5.276190476190475,6,25.10759899084305,3
subject-01,1,102,0.86435604095459,bottle,bottle,8-10-10,8-10-10_bottle_10_n03983396_1985.png,True,-0.24628315813526705,1.9126105308532717,0.5,-1.3370611090496496,29.8064866065979,10,1.796403596403596,8,33.302923446418646,0
subject-01,1,103,0.730192899703979,airplane,airplane,2-10-10,2-10-10_airplane_10_n02690373_9266.png,True,-0.8984183343673863,0.0115601038560271,1.0,-0.0011037120269524955,25.22649459168315,9,7.687301587301587,3,22.657338359443173,8
subject-01,1,104,0.796041011810303,elephant,bottle,128-10-10,128-10-10_bottle_10_n02823428_5961.png,False,-0.578346295260935,2.4927356243133545,0.25,-2.1543718274019943,30.596233129501343,9,0.6773920523920522,10,36.710728162808834,0
subject-01,1,105,0.791881084442139,bottle,bottle,4-10-10,4-10-10_bottle_10_n04579145_1856.png,True,-0.5985667145360245,0.0990379378199577,1.0,-0.012387691375964231,26.199548237025738,9,4.941666666666666,7,24.807949870723636,0
subject-01,1,106,1.017826795578,car,clock,64-10-10,64-10-10_clock_10_n02708093_7810.png,False,0.49970174263462397,2.6006155014038086,1.0,-1.8192870511904247,30.59570050239563,5,1.4414585414585412,10,39.462742163302316,6
subject-01,1,107,0.715456008911133,dog,dog,1-10-10,1-10-10_dog_10_n02100735_4949.png,True,-0.9700508616377058,0.8205838203430176,1.0,-0.16392747419917256,26.625097155570984,9,3.8206349206349204,8,27.762418808283726,9
subject-01,1,108,0.821612119674683,bear,chair,32-10-10,32-10-10_chair_10_n03376595_7275.png,False,-0.45405121109591623,2.7102866172790527,0.0714285714285714,-3.1416314344235388,31.093021869659424,4,0.6987484737484735,0,38.63867841186164,10
subject-01,1,109,0.606955051422119,bottle,bottle,2-10-10,2-10-10_bottle_10_n03983396_16741.png,True,-1.4974482553919284,0.0958244130015373,1.0,-0.01193096435225379,25.01764389127493,9,5.426190476190476,6,22.948665176553728,0
subject-01,1,110,0.707011938095093,boat,boat,32-10-10,32-10-10_boat_10_n04612504_8719.png,True,-1.0110954850596376,2.589887857437134,0.0909090909090909,-3.1805154299875658,30.717145919799805,4,2.808766233766234,2,30.015207544966394,2
subject-01,1,111,1.3626880645752,chair,chair,1-10-10,1-10-10_chair_10_n02791124_3570.png,True,2.1759904933059055,0.0097097354009747,1.0,-0.0009192876192705586,25.36974206753075,9,3.894047619047619,8,27.969180838646473,9
subject-01,1,112,0.890607833862305,elephant,bear,32-10-10,32-10-10_bear_10_n02132136_9557.png,False,-0.11867942558473761,2.4321084022521973,0.25,-2.506190529780728,30.40289878845215,10,8.533333333333331,2,22.572657365467578,4
subject-01,1,113,0.722338199615479,bicycle,bird,64-10-10,64-10-10_bird_10_n02002556_5730.png,False,-0.9365981666127878,2.415951728820801,0.0769230769230769,-4.03022865885409,30.456456184387207,10,0.19995004995004959,3,43.11103804855821,7
subject-01,1,114,1.02623581886292,bicycle,oven,4-10-10,4-10-10_oven_10_n04111531_8959.png,False,0.5405760083288632,2.353635311126709,0.3333333333333333,-1.8084785018206089,30.54644227027893,10,1.213131313131313,9,36.26561229687777,6
subject-01,1,115,0.889865159988403,car,cat,128-10-10,128-10-10_cat_10_n02123159_8101.png,False,-0.12228938695807336,1.9695568084716797,0.5,-2.1772215608962338,30.05566930770874,10,2.7484848484848485,5,31.45266873884222,4
subject-01,1,116,0.655789136886597,cat,cat,8-10-10,8-10-10_cat_10_n02123597_8890.png,True,-1.2600773602738424,0.0908789932727813,1.0,-0.011524369280600785,25.302180349826813,9,3.5976190476190473,8,29.291472892006276,9
subject-01,1,117,0.793623208999634,elephant,elephant,1-10-10,1-10-10_elephant_10_n02504458_220.png,True,-0.5900986606821115,0.105384424328804,1.0,-0.013356075280373489,24.83803929761052,9,7.783333333333333,1,20.22398250900618,9
subject-01,1,118,0.811702013015747,boat,bicycle,128-10-10,128-10-10_bicycle_10_n02835271_2651.png,False,-0.5022218866798475,1.7346386909484863,0.0625,-4.761022464425173,29.9432213306427,10,1.43015873015873,3,34.02119867112986,6
subject-01,1,119,1.04150581359863,car,keyboard,64-10-10,64-10-10_keyboard_10_n04505470_1581.png,False,0.6147998272944201,2.478900194168091,0.0714285714285714,-3.727385363758152,30.733343839645386,10,1.2957542457542455,6,36.82463143145841,5
subject-01,1,120,0.70906400680542,truck,truck,4-10-10,4-10-10_truck_10_n04467665_1719.png,True,-1.0011208662666131,0.0786506086587905,1.0,-0.009532020572881128,25.651305064558983,9,4.576190476190476,8,23.793631044232043,9
subject-01,1,121,0.669098854064941,truck,truck,2-10-10,2-10-10_truck_10_n04467665_30756.png,True,-1.1953819851000782,0.0729055553674697,1.0,-0.008706452519413248,25.274521000683308,9,5.826190476190476,6,22.515465455900614,8
subject-01,1,122,0.876966953277588,airplane,oven,64-10-10,64-10-10_oven_10_n04111531_1818.png,False,-0.18498450745114195,2.5006418228149414,0.0714285714285714,-3.707317957107053,30.84776759147644,10,0.46251110001109985,6,40.1556717925033,6
subject-01,1,123,0.896359920501709,elephant,elephant,64-10-10,64-10-10_elephant_10_n02504013_2974.png,True,-0.09071989810704417,2.1728663444519043,1.0,-0.9402569234442345,30.166557550430298,10,5.226190476190476,1,26.198576946309807,0
subject-01,1,124,0.790277004241943,oven,bicycle,128-10-10,128-10-10_bicycle_10_n03792782_7713.png,False,-0.6063637675439831,2.4554381370544434,0.0714285714285714,-3.7007731413732494,30.68965792655945,10,1.204340104340104,3,34.29009716685896,6
subject-01,1,125,0.792073011398315,clock,clock,16-10-10,16-10-10_clock_10_n04548280_9700.png,True,-0.5976338031698861,0.4203686416149139,1.0,-0.08155728056276551,27.49843868613243,10,3.2668803418803414,8,33.62397843787322,9
subject-01,1,126,0.720026969909668,bottle,bottle,16-10-10,16-10-10_bottle_10_n04591713_1174.png,True,-0.9478325054741336,2.46099853515625,0.1428571428571428,-2.8157003761848567,30.70514988899231,10,0.6519591519591516,0,36.89801380455421,0
subject-01,1,127,0.897893190383911,chair,bear,64-10-10,64-10-10_bear_10_n02134418_1395.png,False,-0.0832670372428709,2.042656421661377,1.0,-0.9724282782776034,29.924779891967773,10,10.75,10,20.030186950987154,10
subject-01,1,128,1.02161717414856,oven,bottle,128-10-10,128-10-10_bottle_10_n04591713_36.png,False,0.5181258729438666,2.586643695831299,0.1666666666666666,-2.705868876353526,30.917371034622192,10,0.6856893106893104,0,36.58596871945827,0
subject-01,1,129,0.817462921142578,cat,knife,8-10-10,8-10-10_knife_10_n03041632_21034.png,False,-0.4742194800461931,1.4917399883270264,1.0,-0.8083678274564656,29.12519145011902,10,3.6150793650793647,9,27.560906735344695,9
subject-01,1,130,0.673210859298706,bicycle,bicycle,1-10-10,1-10-10_bicycle_10_n03792782_11115.png,True,-1.1753945039424947,0.0374721921980381,1.0,-0.004108692246550193,23.97934032138437,8,6.75,6,18.781975234553343,8
subject-01,1,131,0.714810132980347,car,truck,16-10-10,16-10-10_truck_10_n03417042_5381.png,False,-0.9731903111915923,2.332181453704834,0.3333333333333333,-1.9322490436643494,30.08527374267578,9,1.8393217893217892,9,31.647709053662954,9
subject-01,1,132,1.04685807228088,airplane,boat,64-10-10,64-10-10_boat_10_n04612504_15258.png,False,0.640815886000657,2.4135618209838867,0.0833333333333333,-3.7282306443859365,30.280775785446167,10,2.5511904761904765,7,30.951424838133697,0
subject-01,1,133,0.910473108291626,boat,boat,2-10-10,2-10-10_boat_10_n03662601_11972.png,True,-0.02211904305265641,0.0262154024094343,1.0,-0.0028128211599300007,24.821382207795978,9,7.586111111111111,4,20.797529523146217,9
subject-01,1,134,1.03026795387268,bicycle,dog,64-10-10,64-10-10_dog_10_n02092002_11459.png,False,0.5601752592905697,2.4434738159179688,0.3333333333333333,-2.4652269979413193,30.618235111236572,10,1.7968253968253964,8,33.15457447644697,0
subject-01,1,135,0.814174890518188,knife,clock,64-10-10,64-10-10_clock_10_n04548280_6605.png,False,-0.4902018162579535,2.7002716064453125,0.5,-2.217388439297419,31.460514307022095,4,1.8948773448773446,6,37.72925258479317,6
subject-01,1,136,0.834196805953979,boat,boat,64-10-10,64-10-10_boat_10_n03662601_5600.png,True,-0.3928800389835659,2.0303118228912354,0.2,-3.1510359345378705,30.06749939918518,10,3.467857142857143,3,29.632901510226645,2
subject-01,1,137,0.987905025482178,car,bear,32-10-10,32-10-10_bear_10_n02134084_8153.png,False,0.35425912230892376,2.504920959472656,0.1666666666666666,-2.5640781755830453,29.79201650619507,9,5.892857142857143,4,24.011156131944112,3
subject-01,1,138,0.889622211456299,chair,cat,64-10-10,64-10-10_cat_10_n02124075_9225.png,False,-0.12347030209111265,2.51797866821289,0.25,-2.4676508806808535,30.948439359664917,10,1.4709457209457206,9,34.75410097651775,4
subject-01,1,139,0.689804792404175,bicycle,bicycle,8-10-10,8-10-10_bicycle_10_n03792782_3591.png,True,-1.094735334894679,0.0626693293452262,1.0,-0.0075335440731896415,26.80014853924513,9,4.444444444444445,8,24.596259192842773,9
subject-01,1,140,0.79540491104126,car,dog,64-10-10,64-10-10_dog_10_n02107142_31661.png,False,-0.5814382300744345,1.8496358394622805,1.0,-0.7672961340391597,29.885716676712036,10,3.24563492063492,9,30.226050603930968,10
subject-01,1,141,0.697145938873291,elephant,elephant,8-10-10,8-10-10_elephant_10_n02504458_651.png,True,-1.0590517648637712,0.706932544708252,1.0,-0.3080109517043663,26.2558713555336,9,5.566666666666666,1,24.388558005251937,9
subject-01,1,142,0.874939918518066,airplane,dog,128-10-10,128-10-10_dog_10_n02110958_15217.png,False,-0.19483744215293372,1.777316331863403,1.0,-0.7009264413567458,29.441027641296387,10,3.261111111111111,8,29.614449077592354,9
subject-01,1,143,0.97678804397583,keyboard,oven,4-10-10,4-10-10_oven_10_n04111531_523.png,False,0.3002221146313144,2.1532177925109863,0.1428571428571428,-3.1613001430625545,30.02718949317932,10,3.4914682539682538,7,33.95961044183934,6
subject-01,1,144,0.576834917068481,car,car,4-10-10,4-10-10_car_10_n02814533_42884.png,True,-1.6438550772786766,0.2902987599372864,1.0,-0.06351143290824232,26.145671784877777,9,3.5183913308913306,8,32.93226669410661,8
subject-01,1,145,0.838704109191895,bird,car,64-10-10,64-10-10_car_10_n04285008_8017.png,False,-0.3709711080805596,1.9574825763702393,0.1,-3.8957319254455354,30.205557346343994,10,0.07321428571428559,10,47.24288768199515,7
subject-01,1,146,0.76447582244873,car,car,1-10-10,1-10-10_car_10_n03100240_16766.png,True,-0.7317771864522654,0.9215314388275146,1.0,-0.5069312581953168,28.23150646686554,10,3.12761544011544,8,36.32510665727585,9
subject-01,1,147,0.745828151702881,elephant,elephant,8-10-10,8-10-10_elephant_10_n02504458_4593.png,True,-0.8224190865658514,1.7536121606826782,0.5,-1.7455956276751334,28.905104756355286,10,3.4833333333333334,1,29.33087663737268,0
subject-01,1,148,0.961798906326294,bird,chair,64-10-10,64-10-10_chair_10_n02791124_1358.png,False,0.2273634752797767,2.412039041519165,0.0833333333333333,-3.6608432467667336,30.751142501831055,10,0.715451215451215,0,38.35802793745215,6
subject-01,1,149,0.863641023635864,dog,dog,16-10-10,16-10-10_dog_10_n02095314_5363.png,True,-0.24975868756018818,1.840469241142273,1.0,-0.9989323327731165,29.799271941184998,10,3.5357142857142856,8,30.542031768963426,10
subject-01,1,150,0.671494960784912,clock,clock,8-10-10,8-10-10_clock_10_n04548280_1413.png,True,-1.1837350792246377,0.1351304352283477,1.0,-0.018167072987477124,26.161558508872986,9,3.3080086580086574,8,32.833717521792664,9
subject-01,1,151,0.745173931121826,dog,dog,1-10-10,1-10-10_dog_10_n02105641_10948.png,True,-0.8255990974834853,0.1865569502115249,1.0,-0.025897859072149795,25.856802240014076,9,4.6345238095238095,8,25.237165991911933,9
subject-01,1,152,0.751358032226562,dog,dog,1-10-10,1-10-10_dog_10_n02113624_1691.png,True,-0.7955396502598918,0.6734048128128052,1.0,-0.1259379179533682,26.58715522289276,9,3.966666666666667,9,25.86004982648266,9
subject-01,1,153,0.623127937316895,car,car,4-10-10,4-10-10_car_10_n03100240_2235.png,True,-1.4188356968690887,0.6268155574798584,1.0,-0.16299206386912884,27.86604595184326,10,2.9795995670995667,8,37.01532683615905,8
subject-01,1,154,1.32261800765991,bottle,chair,2-10-10,2-10-10_chair_10_n04099969_56470.png,False,1.9812194601853268,0.4773397743701935,1.0,-0.08609176434065248,27.778900057077408,9,3.539880952380952,8,30.621898654801946,9
subject-01,1,155,1.03437304496765,oven,oven,2-10-10,2-10-10_oven_10_n04111531_5429.png,True,0.5801291324610445,0.2840875387191772,1.0,-0.044044737565029225,27.40005886554718,10,5.001028138528138,6,28.09735377194613,6
subject-01,1,156,0.764369010925293,chair,keyboard,64-10-10,64-10-10_keyboard_10_n03085013_19317.png,False,-0.7322963719082032,2.6231441497802734,0.1,-3.1419504591280685,30.906484127044678,4,0.8656565656565656,6,37.5705233145141,6
subject-01,1,157,0.940083980560303,bird,bird,64-10-10,64-10-10_bird_10_n01601694_19650.png,True,0.12181237674952047,2.571340799331665,0.1,-3.2147932646799924,30.94808292388916,4,0.20603979353979326,3,42.09882935414251,6
subject-01,1,158,0.936152935028076,airplane,clock,128-10-10,128-10-10_clock_10_n03196217_11199.png,False,0.1027044977371567,2.451366424560547,0.3333333333333333,-2.2491206217918274,30.780258893966675,10,0.6414835164835162,10,39.27886654911802,6
subject-01,1,159,0.857720136642456,bicycle,bottle,32-10-10,32-10-10_bottle_10_n03937543_2209.png,False,-0.2785387134816444,2.1868324279785156,0.125,-3.285068709455995,30.20411968231201,10,0.5598346098346098,0,38.10969336527643,0
subject-01,1,160,1.04154205322266,truck,car,64-10-10,64-10-10_car_10_n03100240_16939.png,False,0.6149759795027178,2.4994077682495117,0.0769230769230769,-3.658757314052095,30.768526077270508,10,0.040613553113552886,10,46.809353864345155,7
subject-01,1,161,0.786520004272461,bottle,bottle,8-10-10,8-10-10_bottle_10_n04591713_2501.png,True,-0.6246256523982261,2.366111516952514,1.0,-1.587210525388753,30.534348249435425,10,1.8944555444555442,10,34.3683205964308,0
subject-01,1,162,0.604345083236694,airplane,airplane,16-10-10,16-10-10_airplane_10_n02690373_10395.png,True,-1.510134691075355,0.0544805712997913,1.0,-0.006350192742863283,26.74006535485387,10,3.946367521367521,8,29.336259741696527,9
subject-01,1,163,0.98390007019043,keyboard,oven,8-10-10,8-10-10_oven_10_n04111531_3286.png,False,0.33479198550338995,2.154943466186523,0.3333333333333333,-2.600106228564969,30.10724639892578,10,1.5795634920634918,9,34.56567625079797,6
subject-01,1,164,0.699475049972534,cat,boat,64-10-10,64-10-10_boat_10_n04273569_13401.png,False,-1.0477305087944029,2.5257015228271484,0.1428571428571428,-2.98585287533391,30.621931552886963,9,3.3373015873015874,4,29.16044071122607,2
subject-01,1,165,0.639289855957031,elephant,elephant,64-10-10,64-10-10_elephant_10_n02504458_12776.png,True,-1.3402764475671771,2.6129164695739746,0.0833333333333333,-3.239933802074989,30.826831817626953,5,2.695970695970696,1,31.768586682969456,0
subject-01,1,166,0.699115991592407,bird,bird,2-10-10,2-10-10_bird_10_n01828970_997.png,True,-1.0494758063315583,0.6818336248397827,1.0,-0.1267737209375734,26.015603959560394,9,3.3404512154512154,8,32.614939201310264,9
subject-01,1,167,0.703192949295044,dog,bear,8-10-10,8-10-10_bear_10_n02132136_10318.png,False,-1.0296586829017063,0.4765876233577728,1.0,-0.08500908461875063,26.889267295598984,10,10.583333333333332,2,16.137431670621943,10
subject-01,1,168,0.910807847976685,bear,oven,32-10-10,32-10-10_oven_10_n04111531_7883.png,False,-0.02049195291841385,2.2785520553588867,0.3333333333333333,-2.475143185741963,30.397883892059326,10,1.570833333333333,7,36.15260828809543,6
subject-01,1,169,0.636577844619751,boat,clock,128-10-10,128-10-10_clock_10_n02708093_725.png,False,-1.3534588907844016,2.7011842727661133,0.3333333333333333,-2.420850850912306,31.31124258041382,3,0.6048340548340543,10,40.300427450266746,6
subject-01,1,170,1.00869607925415,airplane,bottle,16-10-10,16-10-10_bottle_10_n04557648_2052.png,False,0.45531949842451863,2.593127489089966,0.125,-2.989085309547586,30.446935653686523,9,0.49313186813186793,0,39.033072193802404,0
subject-01,1,171,0.988246917724609,elephant,keyboard,32-10-10,32-10-10_keyboard_10_n04505470_5036.png,False,0.35592097932637173,2.532572031021118,0.0714285714285714,-3.6112781870300803,30.605225801467896,4,0.6571900321900319,6,39.108373216392934,6
subject-01,1,172,0.774029016494751,elephant,elephant,8-10-10,8-10-10_elephant_10_n02504458_13352.png,True,-0.6853413783405263,0.2190179228782653,1.0,-0.033627354466558255,26.56965261697769,10,4.162301587301587,1,27.085697791116925,9
subject-01,1,173,0.889981031417847,chair,chair,4-10-10,4-10-10_chair_10_n04429376_30620.png,True,-0.12172616345006382,0.1085646450519561,1.0,-0.014122317723120318,26.255593985319138,9,4.026165501165501,7,28.555299540604516,9
subject-01,1,174,1.17378091812134,airplane,boat,16-10-10,16-10-10_boat_10_n03662601_2980.png,False,1.2577577052551574,2.272581100463867,1.0,-0.9814949802860944,30.09316372871399,9,5.5,8,24.59622644932137,9
subject-01,1,175,0.707643032073975,boat,boat,8-10-10,8-10-10_boat_10_n03662601_4734.png,True,-1.0080278870643842,1.0879855155944824,1.0,-0.2613736909374143,29.164078950881958,10,5.809523809523809,7,24.99279197036239,10
subject-01,1,176,0.837337970733643,cat,bear,2-10-10,2-10-10_bear_10_n02134418_4754.png,False,-0.3776115827737202,0.7102720737457275,1.0,-0.13469050595295615,26.020452320575714,9,8.916666666666666,4,16.374684995547764,9
subject-01,1,177,0.875182151794434,elephant,elephant,2-10-10,2-10-10_elephant_10_n02504013_8522.png,True,-0.19366000370820843,0.028566651046276,1.0,-0.0030230034902878366,24.744381938129663,9,6.666666666666666,1,20.57675794266812,0
subject-01,1,178,0.821087121963501,bear,bottle,64-10-10,64-10-10_bottle_10_n03937543_4863.png,False,-0.4566031003235513,2.6074459552764893,0.3333333333333333,-2.08352108737889,30.861108779907227,5,0.8415806415806413,10,35.92400002367642,0
subject-01,1,179,1.4508421421051,truck,car,16-10-10,16-10-10_car_10_n04285008_10802.png,False,2.6044865343918513,2.0798499584198,0.0714285714285714,-3.9559715117541057,29.996280431747437,10,0.130631868131868,8,46.870535177448026,7
subject-01,1,180,1.12508988380432,bicycle,knife,64-10-10,64-10-10_knife_10_n03041632_6708.png,False,1.0210821478012626,2.068183660507202,1.0,-1.0765180257567828,30.295193910598755,10,4.161111111111111,9,28.915978197822323,5
subject-01,1,181,0.972612142562866,dog,dog,1-10-10,1-10-10_dog_10_n02107142_61109.png,True,0.27992404931705417,0.8204652070999146,1.0,-0.16918573094221956,28.356688380241394,10,3.121825396825397,9,29.255154332108294,10
subject-01,1,182,0.704191923141479,clock,clock,2-10-10,2-10-10_clock_10_n03196217_8139.png,True,-1.0248029082133414,0.6737361550331116,1.0,-0.1436011572006696,27.633624374866486,9,3.826573426573426,8,32.18385245781381,9
subject-01,1,183,0.629978895187378,elephant,elephant,1-10-10,1-10-10_elephant_10_n02504458_6611.png,True,-1.3855348172341915,0.0306181833148002,1.0,-0.003272996249214004,25.00137984752655,9,5.949999999999999,1,21.41849229752307,0
subject-01,1,184,0.789853096008301,boat,truck,64-10-10,64-10-10_truck_10_n04467665_4401.png,False,-0.6084242848222421,2.4040727615356445,0.25,-2.713869335971068,30.74500060081482,10,1.0888278388278385,10,33.97555160338093,0
subject-01,1,185,0.787573099136353,boat,boat,4-10-10,4-10-10_boat_10_n03344393_732.png,True,-0.6195068082935665,0.0501494035124778,1.0,-0.005760360660594569,25.327963031828403,9,7.2178571428571425,4,21.106241021932988,9
subject-01,1,186,0.73546314239502,knife,knife,4-10-10,4-10-10_knife_10_n03041632_41381.png,True,-0.8728009359219517,0.0202020611613988,1.0,-0.0020521463651264546,25.735487326979637,9,6.916666666666666,5,21.900583195651276,9
subject-01,1,187,1.07523393630981,dog,oven,32-10-10,32-10-10_oven_10_n04111531_22715.png,False,0.7787442239685238,2.3630776405334473,0.2,-2.872763354962816,30.317809343338013,10,1.367694805194805,7,36.399602959865334,6
subject-01,1,188,0.657014131546021,cat,cat,16-10-10,16-10-10_cat_10_n02123045_3568.png,True,-1.2541229520760304,0.3272003531455993,1.0,-0.05191583590784991,27.334074795246124,10,3.826165501165501,8,29.537929928286122,9
subject-01,1,189,0.858876943588257,truck,truck,2-10-10,2-10-10_truck_10_n03796401_18976.png,True,-0.272915749570437,0.0939834415912628,1.0,-0.011758041735538087,25.752968415617943,9,5.45952380952381,7,22.869058178513644,9
subject-01,1,190,1.09074592590332,car,oven,8-10-10,8-10-10_oven_10_n04111531_15710.png,False,0.8541443224827528,2.417644739151001,0.1666666666666666,-2.983298639190599,30.419976711273193,9,3.086111111111111,9,33.73215629431423,6
subject-01,1,191,0.814478874206543,boat,elephant,32-10-10,32-10-10_elephant_10_n02504013_7232.png,False,-0.4887242237215151,2.5202698707580566,0.125,-3.202952146311881,30.262035608291626,9,2.9607142857142854,1,32.71358398032588,0
subject-01,1,192,0.646176099777222,oven,clock,64-10-10,64-10-10_clock_10_n02708093_5126.png,False,-1.3068040513084385,2.678828239440918,0.5,-2.297838939689706,31.062779188156128,4,0.9436868686868682,10,40.17397037512057,6
subject-01,1,193,1.20804309844971,bicycle,cat,32-10-10,32-10-10_cat_10_n02123159_1598.png,False,1.4242980292089726,2.3008947372436523,0.0666666666666666,-4.046795685543238,30.512377500534058,10,0.801165501165501,5,37.19298244137729,5
subject-01,1,194,0.656158924102783,car,car,1-10-10,1-10-10_car_10_n04285008_1661.png,True,-1.2582799124118744,0.0742998123168945,1.0,-0.009647804964419976,25.348596274852753,9,4.008567821067821,7,31.52288935274735,8
subject-01,1,195,0.67579984664917,clock,clock,2-10-10,2-10-10_clock_10_n02708093_5551.png,True,-1.1628100511164852,0.0418633967638015,1.0,-0.004642337917539184,24.808547005057335,9,4.864285714285714,6,28.012694706577744,6
subject-01,1,196,0.875379085540771,chair,airplane,128-10-10,128-10-10_airplane_10_n02690373_693.png,False,-0.19270275552382346,2.607532024383545,0.1428571428571428,-3.0243769238156646,31.07545828819275,10,2.769383394383394,3,32.470253402211455,3
subject-01,1,197,0.693403959274292,elephant,elephant,2-10-10,2-10-10_elephant_10_n02504013_3409.png,True,-1.0772406392632747,0.0508583113551139,1.0,-0.0057959709886488105,24.654809169471264,9,7.333333333333333,1,20.109470150782993,0
subject-01,1,198,0.853233098983765,bird,dog,64-10-10,64-10-10_dog_10_n02113712_8182.png,False,-0.300349138215549,1.5169527530670166,1.0,-0.4228094631131657,29.16461682319641,10,3.283333333333333,9,29.716185699700702,10
subject-01,1,199,0.685045957565308,bottle,bottle,1-10-10,1-10-10_bottle_10_n03983396_8322.png,True,-1.1178669011905746,0.0697945281863212,1.0,-0.00836848207857019,25.58272870630026,9,4.866605616605616,7,24.912904237728892,0
subject-01,1,200,0.994920015335083,bottle,keyboard,64-10-10,64-10-10_keyboard_10_n04505470_1040.png,False,0.3883573224654435,2.548040866851806,0.0666666666666666,-3.78548428729279,30.872103214263916,4,0.7274891774891774,6,38.14807938749435,6
subject-01,1,201,1.10655784606934,bird,oven,32-10-10,32-10-10_oven_10_n04111531_11230.png,False,0.9310023122995991,2.601794719696045,0.2,-2.5958134911895803,30.742745399475098,5,0.6880341880341878,7,38.92252115042967,6
subject-01,1,202,0.524711847305298,cat,cat,1-10-10,1-10-10_cat_10_n02123394_6269.png,True,-1.8972129441929446,0.0900432169437408,1.0,-0.011279298007795235,25.627934515476227,9,4.902777777777778,7,27.00466215211415,9
subject-01,1,203,0.82643723487854,elephant,elephant,2-10-10,2-10-10_elephant_10_n02504013_2075.png,True,-0.43059747168227314,0.0549153387546539,1.0,-0.006281513020524412,24.943245626986027,9,6.199999999999999,1,20.865318928302496,9
subject-01,1,204,1.33217787742615,elephant,bear,1-10-10,1-10-10_bear_10_n02133161_3795.png,False,2.0276877173880816,0.1067622452974319,1.0,-0.01364395163122313,25.65634961426258,9,8.916666666666666,5,17.366803613043647,9
subject-01,1,205,1.16811513900757,bear,oven,2-10-10,2-10-10_oven_10_n04111531_4322.png,False,1.2302176981681974,0.080309584736824,1.0,-0.010343094103172547,27.21968598663807,10,3.4351190476190476,8,32.272301151385165,9
subject-01,1,206,0.633823156356812,bottle,bottle,4-10-10,4-10-10_bottle_10_n03937543_5799.png,True,-1.3668487764047794,0.3433372974395752,1.0,-0.056560645754819915,28.54304313659668,10,3.3626123876123875,8,31.160762418746277,10
subject-01,1,207,0.817444086074829,keyboard,keyboard,8-10-10,8-10-10_keyboard_10_n04505470_4414.png,True,-0.4743110328386468,0.621565580368042,1.0,-0.1267951019840208,28.33913564682007,10,3.039393939393939,9,31.624247919998396,10
subject-01,1,208,0.757343053817749,dog,dog,4-10-10,4-10-10_dog_10_n02091032_8315.png,True,-0.7664478812856464,1.0551884174346924,1.0,-0.2980149284694802,28.764946460723877,10,3.4634920634920636,9,28.1555177355192,10
subject-01,1,209,0.863006114959717,knife,knife,2-10-10,2-10-10_knife_10_n03041632_39952.png,True,-0.25284482789315055,0.0257553048431873,1.0,-0.0027061328710021567,25.335537100676447,9,6.783333333333333,5,21.07331674556843,5
subject-01,1,210,0.748892068862915,chair,chair,8-10-10,8-10-10_chair_10_n02791124_634.png,True,-0.8075261126946814,0.057728961110115,1.0,-0.006706443263338522,25.689990144222975,9,3.528113553113553,8,30.401508723179717,9
subject-01,1,211,0.910861968994141,boat,boat,32-10-10,32-10-10_boat_10_n03344393_3355.png,True,-0.020228883502123384,2.2265100479125977,1.0,-1.0593804936972764,30.124356269836426,9,5.083333333333333,8,25.585676494972446,9
subject-01,1,212,1.1447741985321,clock,dog,32-10-10,32-10-10_dog_10_n02102040_7188.png,False,1.1167629281881106,0.8657844662666321,0.3333333333333333,-3.6189451830881962,28.987466871738434,10,1.748412698412698,8,34.226283483536285,6
subject-01,1,213,0.962264060974121,chair,chair,2-10-10,2-10-10_chair_10_n02791124_8711.png,True,0.2296244815845504,0.0255736038088798,1.0,-0.0026899363724515917,26.029661528766155,9,4.036385836385836,8,27.626912161134552,9
subject-01,1,214,1.13426303863525,car,bear,64-10-10,64-10-10_bear_10_n02132136_6002.png,False,1.0656706755184144,2.6294660568237305,0.25,-2.4107789784932097,30.808844327926636,4,8.0,3,24.089454646380272,4
subject-01,1,215,0.678045034408569,boat,boat,4-10-10,4-10-10_boat_10_n02951358_30184.png,True,-1.1518967264767852,0.4588600397109985,1.0,-0.10991848340655934,27.915778517723083,10,6.017857142857142,7,23.944341962449055,10
subject-01,1,216,0.885705947875977,bear,bottle,128-10-10,128-10-10_bottle_10_n02823428_3414.png,False,-0.14250632954483863,2.5923380851745605,0.1666666666666666,-2.5287403447414922,30.987667083740234,4,0.6126123876123873,0,37.22791183046617,0
subject-01,1,217,0.7518150806427,truck,truck,4-10-10,4-10-10_truck_10_n04467665_13231.png,True,-0.7933180464227543,0.1750992089509964,1.0,-0.025168507966605618,27.582156255841255,10,4.40952380952381,8,25.78247862673242,9
subject-01,1,218,0.789707899093628,chair,chair,4-10-10,4-10-10_chair_10_n04099969_8063.png,True,-0.6091300525514111,0.0929227545857429,1.0,-0.011602575633317952,26.02490747720003,9,3.0666666666666664,9,31.584057020441495,9
subject-01,1,219,0.739268064498901,bird,bird,4-10-10,4-10-10_bird_10_n01534433_10234.png,True,-0.8543061129502015,0.9771203398704528,1.0,-0.23057111828074242,29.001757323741913,10,3.443131868131868,8,33.28538059884892,9
subject-01,1,220,0.766978979110718,elephant,elephant,4-10-10,4-10-10_elephant_10_n02504013_12533.png,True,-0.7196099362247764,0.0600674636662006,1.0,-0.0070100583041274875,25.411878932267427,9,5.333333333333333,1,23.92980903646027,9
subject-01,1,221,0.724914789199829,boat,knife,16-10-10,16-10-10_knife_10_n03041632_18995.png,False,-0.9240739763843461,1.8519214391708376,0.125,-3.639457711419081,29.326943516731262,9,1.31031746031746,5,35.227478711067526,5
subject-01,1,222,1.02670407295227,truck,chair,32-10-10,32-10-10_chair_10_n04429376_7123.png,False,0.5428520802830027,2.4232845306396484,0.0714285714285714,-3.910454793264874,30.37845253944397,10,0.7684523809523807,0,40.526498849486515,6
subject-01,1,223,1.25855803489685,cat,clock,64-10-10,64-10-10_clock_10_n03196217_9065.png,False,1.6698391418814515,2.572934150695801,1.0,-1.658068009965465,31.104331016540527,9,1.68016983016983,10,36.65262087660143,6
subject-01,1,224,1.05865406990051,dog,dog,4-10-10,4-10-10_dog_10_n02086079_4143.png,True,0.6981534297910313,0.4156599640846252,1.0,-0.06755170796222046,25.265071123838425,9,4.311111111111111,8,24.365606543328003,9
subject-01,1,225,0.734143972396851,elephant,bear,4-10-10,4-10-10_bear_10_n02132136_20162.png,False,-0.8792131080820316,0.0627090632915496,1.0,-0.007364022120186446,25.131887510418892,9,10.25,3,15.820702129473755,9
subject-01,1,226,0.937953948974609,bottle,bottle,1-10-10,1-10-10_bottle_10_n03983396_4165.png,True,0.11145879892950088,1.1037806272506714,1.0,-0.25494857952733224,28.758880853652954,9,3.655891330891331,8,28.3359515697981,9
subject-01,1,227,0.951887130737305,bird,bird,4-10-10,4-10-10_bird_10_n01824575_4470.png,True,0.1791846874231002,0.7598053216934204,1.0,-0.1499440908471736,27.708574533462524,10,3.3539682539682536,8,32.17763771233494,9
subject-01,1,228,0.847543001174927,cat,oven,64-10-10,64-10-10_oven_10_n04111531_9695.png,False,-0.3280073527054223,2.481654405593872,0.1428571428571428,-2.9815270277401265,30.753382921218872,10,0.5134670884670882,6,40.11613260157133,6
subject-01,1,229,0.85564112663269,bear,bottle,64-10-10,64-10-10_bottle_10_n02823428_23181.png,False,-0.28864428753476357,2.598801612854004,0.125,-2.895057601027922,30.448589086532593,4,0.5980269730269727,0,38.02936667996591,0
subject-01,1,230,0.791237115859985,bicycle,bicycle,2-10-10,2-10-10_bicycle_10_n02835271_13674.png,True,-0.6016968929210585,0.0199137907475233,1.0,-0.002022940245683833,25.23636350594461,9,6.25,6,20.343626657298955,8
subject-01,1,231,1.2091178894043,clock,chair,2-10-10,2-10-10_chair_10_n04429376_55747.png,False,1.4295223328593696,0.0572720393538475,1.0,-0.006627838855162729,25.92078021913767,9,4.534462759462759,7,27.0154094752599,9
subject-01,1,232,,na,boat,32-10-10,32-10-10_boat_10_n02951358_8346.png,False,,2.0654351711273193,0.0625,-5.217753749106822,30.135570526123047,10,1.501388888888889,4,35.77465276835144,0
subject-01,1,233,1.03661799430847,keyboard,elephant,16-10-10,16-10-10_elephant_10_n02504013_1088.png,False,0.5910412982046375,2.5461435317993164,0.2,-2.597015233545561,30.33233332633972,4,2.8777777777777778,1,31.36384955200076,0
subject-01,1,234,0.576802968978882,car,car,8-10-10,8-10-10_car_10_n03100240_11191.png,True,-1.6440103693570132,1.3974969387054443,1.0,-0.7084441730145252,29.561941146850586,10,2.9178571428571427,8,39.86778605105891,10
subject-01,1,235,0.768281936645508,chair,chair,8-10-10,8-10-10_chair_10_n04099969_19966.png,True,-0.7132765689999732,0.1210673451423645,1.0,-0.016431118053247235,26.610775887966156,9,3.7926587301587302,8,30.142747922904686,9
subject-01,1,236,0.975971937179565,elephant,bicycle,32-10-10,32-10-10_bicycle_10_n03792782_15016.png,False,0.29625521325702153,2.500805377960205,0.1,-3.4541570457030124,30.63988447189331,10,2.2773809523809523,0,30.838333192697853,6
subject-01,1,237,0.979804992675781,boat,boat,128-10-10,128-10-10_boat_10_n02951358_17867.png,True,0.3148867859694036,2.1126279830932617,0.125,-3.9005142858663233,30.144770622253418,10,1.8273809523809517,2,33.47344071556802,0
subject-01,1,238,0.535699129104614,cat,cat,2-10-10,2-10-10_cat_10_n02123045_2364.png,True,-1.8438063759975514,0.2549687623977661,1.0,-0.050706153989462405,25.38092477992177,9,4.902777777777778,7,26.507731348832646,9
subject-01,1,239,1.0354311466217,bear,bear,2-10-10,2-10-10_bear_10_n02132136_9433.png,True,0.5852723133839367,0.0725824236869812,1.0,-0.009081708256990706,26.065559327602386,9,9.416666666666666,4,17.498398753878522,9
subject-01,1,240,1.10959506034851,car,clock,32-10-10,32-10-10_clock_10_n03196217_3167.png,False,0.9457654898067619,1.7014604806900024,1.0,-0.5842020010921487,28.941980481147766,10,2.0058663558663556,10,38.622627638679205,10
subject-01,1,241,0.745024919509888,keyboard,clock,32-10-10,32-10-10_clock_10_n03196217_3129.png,False,-0.826323407550363,2.3548359870910645,1.0,-1.306025181442928,30.214813947677612,10,3.093528693528693,8,37.24189236017953,6
subject-01,1,242,1.24102306365967,chair,keyboard,128-10-10,128-10-10_keyboard_10_n03085013_6067.png,False,1.5846058098992861,2.514744281768799,0.0714285714285714,-3.9256615114097837,30.925106287002563,10,0.4735653235653233,6,39.94678687527734,6
subject-01,1,243,0.974881887435913,keyboard,keyboard,2-10-10,2-10-10_keyboard_10_n03085013_24648.png,True,0.2909567402557788,0.0294930506497621,1.0,-0.003134568714626339,24.86724595911801,9,5.091414141414141,6,24.988329128495895,6
subject-01,1,244,1.05867409706116,airplane,oven,32-10-10,32-10-10_oven_10_n04111531_6695.png,False,0.6982507770640459,2.488874912261963,1.0,-1.779761230027678,30.46958875656128,5,2.7422979797979794,9,36.62082758893174,6
subject-01,1,245,0.924631834030151,dog,dog,4-10-10,4-10-10_dog_10_n02111500_4875.png,True,0.046703161158168416,0.6627274751663208,1.0,-0.12218832137766972,25.714552640914917,9,4.311544011544012,8,25.615717095919297,9
subject-01,1,246,1.01226902008057,boat,oven,32-10-10,32-10-10_oven_10_n04111531_13018.png,False,0.4726867154841724,2.385899782180786,0.125,-3.156202279653675,30.3718101978302,10,1.583867521367521,7,36.116899867552824,6
subject-01,1,247,1.28217720985413,bird,keyboard,128-10-10,128-10-10_keyboard_10_n03085013_23030.png,False,1.784646343618411,2.5039236545562744,0.0833333333333333,-3.559661228006493,30.65358018875122,5,0.7088383838383837,6,38.0773608832029,6
subject-01,1,248,1.13396406173706,dog,cat,8-10-10,8-10-10_cat_10_n02123045_8409.png,False,1.0642174198002425,1.5958987474441528,0.5,-2.271538366020987,29.1763733625412,10,2.313034188034188,7,33.59751788505121,9
subject-01,1,249,0.595607995986938,bicycle,bicycle,4-10-10,4-10-10_bicycle_10_n03792782_37777.png,True,-1.5526035978128012,0.0395949482917785,1.0,-0.004431156428778672,25.020328514277935,9,7.166666666666666,3,20.260090316720298,8
subject-01,1,250,1.0476541519165,car,airplane,64-10-10,64-10-10_airplane_10_n02690373_614.png,False,0.6446854401019584,2.3793890476226807,0.25,-2.3520859075744314,30.4417622089386,10,1.492074592074592,4,33.12874020432774,3
subject-01,1,251,0.861320018768311,chair,keyboard,128-10-10,128-10-10_keyboard_10_n03085013_19775.png,False,-0.2610405411619159,2.0651097297668457,0.0909090909090909,-3.9250758617903676,30.281611680984497,10,1.0814935064935063,6,37.62707581878019,6
subject-01,1,252,0.565083026885986,bear,bear,8-10-10,8-10-10_bear_10_n02133161_1244.png,True,-1.7009782252892485,1.034613847732544,1.0,-0.4727247276755126,27.540513277053833,9,10.75,2,17.30325339175763,9
subject-01,1,253,0.598956108093262,keyboard,keyboard,2-10-10,2-10-10_keyboard_10_n04505470_4368.png,True,-1.5363292197820726,0.0678134113550186,1.0,-0.008045226641733344,25.700042512267828,9,5.213636363636364,6,26.84017946500366,9
subject-01,1,254,0.782777070999146,oven,oven,2-10-10,2-10-10_oven_10_n04111531_7728.png,True,-0.6428191623821562,0.0355320535600185,1.0,-0.004508869862506933,25.224138911813498,9,4.559722222222222,7,26.333026123866137,6
subject-01,1,255,1.20070314407349,keyboard,clock,8-10-10,8-10-10_clock_10_n04548280_1.png,False,1.3886202536586032,2.3968374729156494,0.2,-2.969606406005666,30.635233640670776,10,0.4581349206349203,9,41.88078191838364,6
subject-01,1,256,0.758424997329712,bird,cat,64-10-10,64-10-10_cat_10_n02123394_3062.png,False,-0.7611888107520398,2.435159921646118,0.2,-2.4485721910537355,30.736603260040283,10,0.9649572649572649,9,35.24982061180407,9
subject-01,1,257,0.81809401512146,elephant,elephant,2-10-10,2-10-10_elephant_10_n02504013_466.png,True,-0.47115188205094016,0.0240735933184623,1.0,-0.0024890259763780177,24.773779397830367,9,7.333333333333333,1,20.750829368867045,0
subject-01,1,258,0.775908946990967,elephant,elephant,1-10-10,1-10-10_elephant_10_n02504013_6275.png,True,-0.6762034825367607,0.0440802797675132,1.0,-0.0049176533349502664,25.204733170568943,9,6.75,1,21.800215881990482,9
subject-01,1,259,0.795782804489136,bird,bird,4-10-10,4-10-10_bird_10_n01560419_5466.png,True,-0.5796013797448255,0.5155584216117859,1.0,-0.0994595768953937,26.252005398273468,9,4.053968253968254,7,30.94504650439489,8
subject-01,1,260,0.995888948440552,truck,truck,8-10-10,8-10-10_truck_10_n03796401_5227.png,True,0.3930670762443285,1.802033543586731,0.5,-1.04684871843206,29.640183091163635,10,2.169047619047619,9,30.058378867641895,10
subject-01,1,261,0.769526958465576,chair,chair,2-10-10,2-10-10_chair_10_n04099969_25124.png,True,-0.7072248135291752,0.0488964840769767,1.0,-0.005609720221144677,25.691485533490777,9,4.562301587301587,7,26.435692324024117,9
subject-01,1,262,0.975310087203979,boat,elephant,64-10-10,64-10-10_elephant_10_n02504013_7209.png,False,0.29303811766396504,2.4555649757385254,0.2,-2.808417120700658,30.494204998016357,9,3.266666666666667,1,30.133942811058084,0
subject-01,1,263,1.03289985656738,bird,cat,1-10-10,1-10-10_cat_10_n02123597_4756.png,False,0.5729683134158293,0.0665850043296814,1.0,-0.00871607270255767,25.676387161016464,9,4.354761904761904,7,28.667685778269774,9
subject-01,1,264,1.16286587715149,cat,bicycle,16-10-10,16-10-10_bicycle_10_n02835271_4654.png,False,1.2047022825801796,2.475677251815796,0.1,-3.3311001395098687,30.8090877532959,9,2.8754329004329002,3,29.98616070622352,6
subject-01,1,265,0.642570018768311,keyboard,keyboard,1-10-10,1-10-10_keyboard_10_n04505470_2389.png,True,-1.3243323549269466,0.0018401574343442,1.0,-0.00014967846429347293,24.33384690526873,9,5.856493506493506,5,23.718861549150205,5
subject-01,1,266,0.706284999847412,clock,knife,128-10-10,128-10-10_knife_10_n03041632_379.png,False,-1.0146289592899091,2.3407886028289795,0.25,-2.202794640574452,29.929982662200928,10,2.8956349206349206,5,29.482390608083897,5
subject-01,1,267,1.11618208885193,oven,clock,8-10-10,8-10-10_clock_10_n02708093_899.png,False,0.9777834714512116,2.2455568313598633,1.0,-1.1813872623081465,30.56167197227478,10,1.9416416916416912,10,36.94653078125756,10
subject-01,1,268,1.01211404800415,cat,truck,128-10-10,128-10-10_truck_10_n03417042_10154.png,False,0.4719334330145973,2.4054079055786133,0.0909090909090909,-3.6899178440301776,30.80271005630493,10,0.9908841158841157,2,35.62851637801653,0
subject-01,1,269,0.782022953033447,bottle,bottle,2-10-10,2-10-10_bottle_10_n04579145_3415.png,True,-0.6464847507686283,0.0583896078169345,1.0,-0.006776232354791564,25.695035133510828,9,5.21541514041514,6,25.027778393321636,9
subject-01,1,270,0.847641944885254,bear,chair,16-10-10,16-10-10_chair_10_n02791124_146.png,False,-0.32752641082101414,2.438901424407959,0.0769230769230769,-3.829516827906754,30.029210329055786,4,0.8072191697191693,0,41.03468460437619,6
subject-01,1,271,1.04147601127625,clock,elephant,128-10-10,128-10-10_elephant_10_n02504458_2835.png,False,0.6146549652810818,2.515216827392578,0.1,-3.206082313441815,30.897421836853027,10,2.666666666666667,1,30.6939496257947,0
subject-01,1,272,0.935308933258057,bicycle,bicycle,1-10-10,1-10-10_bicycle_10_n03792782_13835.png,True,0.09860200551834813,0.0419856682419776,1.0,-0.004730068885462356,25.271276272833347,9,5.15,8,21.94044103133237,9
subject-01,1,273,1.33722114562988,elephant,bicycle,32-10-10,32-10-10_bicycle_10_n02835271_12926.png,False,2.0522018467396137,2.372020721435547,0.25,-2.5989224120893994,30.57446551322937,10,2.1909090909090905,3,30.4576269300992,6
subject-01,1,274,0.895339012145996,dog,dog,2-10-10,2-10-10_dog_10_n02110185_11605.png,True,-0.09568229123725652,0.8476410508155823,1.0,-0.17138872547490142,27.17795032262802,9,4.671825396825397,7,26.802229859522733,9
subject-01,1,275,0.862823009490967,airplane,elephant,128-10-10,128-10-10_elephant_10_n02504458_3091.png,False,-0.2537348601033333,2.5028486251831055,0.0909090909090909,-3.556446697810112,30.860857248306274,10,2.844877344877345,1,31.78536254515114,0
subject-01,1,276,0.678953886032104,oven,chair,128-10-10,128-10-10_chair_10_n04099969_5233.png,False,-1.147479014516868,2.436434030532837,0.1111111111111111,-3.276644331934462,30.34002709388733,9,0.8225579975579973,0,39.220535141353146,6
subject-01,1,277,0.776445150375366,dog,dog,2-10-10,2-10-10_dog_10_n02097209_7628.png,True,-0.6735971251920999,0.9405515789985656,1.0,-0.19863079519427737,27.303816854953766,9,4.13015873015873,8,25.796299724676093,9
subject-01,1,278,0.648267030715942,bear,cat,8-10-10,8-10-10_cat_10_n02123597_10941.png,False,-1.2966405324499743,0.620919406414032,1.0,-0.11620083844825663,26.911681354045868,9,3.7317821067821066,8,29.31129702003475,9
subject-01,1,279,0.778426170349121,clock,clock,16-10-10,16-10-10_clock_10_n02708093_3006.png,True,-0.663967857438963,1.0962519645690918,1.0,-0.26923968612267113,28.102110266685486,10,3.0935897435897433,8,35.28553062259003,6
subject-01,1,280,0.967839002609253,truck,truck,1-10-10,1-10-10_truck_10_n03796401_26620.png,True,0.256722949254739,0.0991001725196838,1.0,-0.012404287103940594,25.32262308895588,9,4.392857142857142,8,23.980543427480963,9
subject-01,1,281,1.38759589195251,keyboard,bear,128-10-10,128-10-10_bear_10_n02134418_12733.png,False,2.29706152850118,2.5072216987609863,0.25,-2.4363540979602205,30.582494974136353,10,7.333333333333333,4,23.126250815658068,5
subject-01,1,282,0.837571859359741,knife,knife,2-10-10,2-10-10_knife_10_n03041632_4806.png,True,-0.37647470569274777,0.0238536521792411,1.0,-0.002483409192567645,26.33772563189268,9,6.809523809523809,5,22.067281419838636,9
subject-01,1,283,0.951349973678589,keyboard,oven,4-10-10,4-10-10_oven_10_n04111531_17922.png,False,0.17657369449400823,1.2746598720550537,1.0,-0.47975657853317366,29.26899266242981,10,4.061706349206349,7,30.64941495363704,6
subject-01,1,284,0.867071151733398,bottle,bottle,1-10-10,1-10-10_bottle_10_n04579145_6818.png,True,-0.2330856492686532,0.0648410394787788,1.0,-0.00781674526237725,25.470618553459644,9,4.61025641025641,7,25.841126810768852,9
subject-01,1,285,0.950824022293091,keyboard,keyboard,4-10-10,4-10-10_keyboard_10_n04505470_494.png,True,0.17401716968194728,0.0554021596908569,1.0,-0.006404540040826296,25.69638854265213,9,4.900407925407926,6,27.810567293744274,6
subject-01,1,286,0.935015916824341,bottle,cat,8-10-10,8-10-10_cat_10_n02123045_10834.png,False,0.09717772220283374,0.1231497526168823,1.0,-0.01652225273340092,25.7513188123703,9,3.73525641025641,8,29.439993965954635,9
subject-01,1,287,1.18253302574158,clock,cat,128-10-10,128-10-10_cat_10_n02123394_176.png,False,1.3002996224473489,2.3334755897521973,0.1428571428571428,-3.244159512067965,30.612045764923096,10,1.1150183150183146,5,35.297564715524565,5
subject-01,1,288,0.85027289390564,oven,chair,128-10-10,128-10-10_chair_10_n03376595_2891.png,False,-0.31473799228017063,2.4383859634399414,0.1,-3.374603490021223,30.653870344161987,10,0.8746392496392494,0,38.25448922527529,6
subject-01,1,289,0.776098012924194,dog,dog,8-10-10,8-10-10_dog_10_n02093256_5647.png,True,-0.6752844779239053,0.5045039653778076,1.0,-0.09024524302616303,27.3760085105896,10,4.561111111111111,8,26.624816809519608,9
subject-01,1,290,1.09986186027527,bicycle,knife,64-10-10,64-10-10_knife_10_n03041632_33326.png,False,0.8984547151342442,2.586392402648926,0.25,-2.5022777506833016,30.93768048286438,10,1.7614468864468862,9,32.20468311654572,5
subject-01,1,291,0.954124927520752,boat,airplane,8-10-10,8-10-10_airplane_10_n02690373_2856.png,False,0.19006208628348348,1.8058698177337649,1.0,-0.8450494800843049,29.16612458229065,9,4.353846153846154,8,28.706224001468197,3
subject-01,1,292,1.08575916290283,airplane,bicycle,128-10-10,128-10-10_bicycle_10_n03792782_9651.png,False,0.8299048515085475,2.607245445251465,0.0833333333333333,-3.2809233543472343,30.79253625869751,4,1.3170995670995669,6,33.173876447528954,6
subject-01,1,293,0.94138503074646,bicycle,bicycle,2-10-10,2-10-10_bicycle_10_n02835271_7438.png,True,0.12813647280546658,0.045220136642456,1.0,-0.005086401594965688,25.755006715655327,9,7.033333333333333,6,20.456866861639213,9
subject-01,1,294,1.06130909919739,airplane,bicycle,128-10-10,128-10-10_bicycle_10_n02835271_26639.png,False,0.7110588968387054,2.5289554595947266,0.125,-3.0900334759316213,30.788450956344604,9,3.686111111111111,3,28.533869942796137,6
subject-01,1,295,0.893095016479492,keyboard,keyboard,8-10-10,8-10-10_keyboard_10_n04505470_4458.png,True,-0.10658982139642417,0.0547245554625988,1.0,-0.006301426655330729,25.600992675870657,9,4.942171717171718,6,27.956681615497093,9
subject-01,1,296,0.953119993209839,dog,dog,64-10-10,64-10-10_dog_10_n02106662_24847.png,True,0.18517733919244178,2.5537538528442383,0.5,-1.9211630011558216,30.764142513275146,4,1.5690476190476188,10,33.22829933556836,10
subject-01,1,297,0.840620994567871,bear,chair,32-10-10,32-10-10_chair_10_n03376595_8995.png,False,-0.3616535833802113,2.3558175563812256,0.0714285714285714,-4.579935345057407,30.057415008544922,10,0.7363095238095235,0,43.96061783438874,6
subject-01,1,298,,na,bicycle,64-10-10,64-10-10_bicycle_10_n03792782_6030.png,False,,2.680234909057617,0.0714285714285714,-3.369369090100041,30.98909091949463,4,1.5587301587301585,8,32.996632375892226,6
subject-01,1,299,1.02466177940369,bear,elephant,4-10-10,4-10-10_elephant_10_n02504458_7258.png,False,0.5329249762303845,0.1109131574630737,1.0,-0.014223399198260782,25.426661878824234,9,5.757575757575758,8,25.073089516069818,9
subject-01,1,300,0.840179920196533,car,boat,128-10-10,128-10-10_boat_10_n03662601_23903.png,False,-0.3637975411781782,2.6753110885620117,0.0714285714285714,-3.1625963309275735,31.232420921325684,4,2.132142857142857,2,30.77755084868219,0
subject-01,1,301,1.18777799606323,elephant,bird,16-10-10,16-10-10_bird_10_n02002724_578.png,False,1.3257941779054103,0.9519243836402892,0.1428571428571428,-4.594827063762833,28.90078455209732,10,0.4944805194805191,7,42.20647580390072,6
subject-01,1,302,1.089919090271,oven,chair,64-10-10,64-10-10_chair_10_n03376595_2393.png,False,0.8501252707836667,2.6858649253845215,0.1,-2.9682077379827962,31.079347133636475,4,1.0023199023199023,0,36.90010847351781,6
subject-01,1,303,0.663516044616699,boat,boat,16-10-10,16-10-10_boat_10_n03662601_5118.png,True,-1.2225186963417958,2.5981926918029785,0.5,-2.1943648681891825,30.644932746887207,4,4.160714285714286,8,27.430609853535792,2
subject-01,1,304,1.05122208595276,clock,chair,8-10-10,8-10-10_chair_10_n04429376_21845.png,False,0.6620283203433703,2.208980083465576,1.0,-0.9788448785303848,30.580907344818115,10,3.6279761904761902,8,33.117651061637915,6
subject-01,1,305,1.18721914291382,bird,dog,8-10-10,8-10-10_dog_10_n02102040_2216.png,False,1.323077725430601,1.7458587884902954,1.0,-0.592342357329686,29.796263813972473,10,3.2218253968253965,9,30.88655735910016,10
subject-01,1,306,0.791076898574829,airplane,airplane,8-10-10,8-10-10_airplane_10_n02690373_3032.png,True,-0.6024756711049675,0.4319986999034881,1.0,-0.09487194328629847,26.20012804865837,9,5.0428321678321675,7,25.127047517884204,9
subject-01,1,307,0.781042098999023,dog,dog,8-10-10,8-10-10_dog_10_n02100735_2228.png,True,-0.6512524493528637,1.1729638576507568,1.0,-0.2712391677453681,27.558045506477356,9,4.119047619047619,8,28.413025897209362,9
subject-01,1,308,0.640625,bird,bird,8-10-10,8-10-10_bird_10_n01532829_13864.png,True,-1.3337866293679268,0.5648593306541443,1.0,-0.10140341461264533,27.955680072307587,10,3.2390984015984015,8,34.371943252208354,9
subject-01,1,309,0.926362037658691,boat,bird,64-10-10,64-10-10_bird_10_n01601694_13787.png,False,0.055113270206730965,2.2827858924865723,0.0833333333333333,-3.733230153311397,30.63227128982544,10,0.2202131202131199,7,42.080588386130145,6
subject-01,1,310,1.03821086883545,bear,bear,64-10-10,64-10-10_bear_10_n02134084_22150.png,True,0.5987838830955764,2.5654449462890625,0.2,-2.463564592743932,30.53395414352417,9,5.8999999999999995,5,24.25880089734879,4
subject-01,1,311,1.24416089057922,bear,knife,16-10-10,16-10-10_knife_10_n03041632_29427.png,False,1.5998580415636023,2.2878167629241943,0.125,-3.3439602903027343,30.04730463027954,9,1.3753718503718502,5,35.4059166899776,5
subject-01,1,312,0.889810085296631,chair,chair,4-10-10,4-10-10_chair_10_n02791124_2804.png,True,-0.12255709195879023,0.1310351192951202,1.0,-0.017327555797947848,28.317140132188797,10,3.128708791208791,9,32.138976673832296,6
subject-01,1,313,0.770008087158203,bottle,bottle,4-10-10,4-10-10_bottle_10_n04591713_5046.png,True,-0.7048861611852308,0.0099949268624186,1.0,-0.000973340554289591,23.173993813805282,8,4.622557997557998,7,24.75902892196338,8
subject-01,1,314,1.35202813148499,airplane,bicycle,128-10-10,128-10-10_bicycle_10_n03792782_4210.png,False,2.1241750894654334,2.569223403930664,0.0833333333333333,-3.2766109817582993,30.80017328262329,10,3.8833333333333333,2,28.924166498863592,0
subject-01,1,315,0.975647211074829,clock,cat,128-10-10,128-10-10_cat_10_n02123159_1596.png,False,0.2946767967592771,1.5877208709716797,0.25,-2.9845821991688415,29.625686168670654,10,2.2587412587412583,5,33.33651883983881,4
subject-01,1,316,0.815112113952637,car,car,2-10-10,2-10-10_car_10_n03100240_17588.png,True,-0.485646195661298,0.0731662362813949,1.0,-0.009099813095978806,25.354399919509888,9,3.3113095238095234,8,33.41230187751074,9
subject-01,1,317,0.663171052932739,cat,keyboard,4-10-10,4-10-10_keyboard_10_n03085013_23295.png,False,-1.2241956190086376,0.155863955616951,0.25,-5.863812859608367,26.2447979003191,10,0.7532828282828281,10,43.15891875246694,6
subject-01,1,318,1.1028048992157,knife,oven,32-10-10,32-10-10_oven_10_n04111531_4879.png,False,0.9127601286791622,1.6308777332305908,1.0,-0.4995052164798026,29.64814329147339,10,3.6672008547008543,8,32.78972778640195,6
subject-01,1,319,0.968684911727905,car,keyboard,32-10-10,32-10-10_keyboard_10_n04505470_4569.png,False,0.2608347126424047,2.5592727661132812,0.1,-3.087974916155921,30.78430199623108,4,0.9648989898989898,6,36.930436680513715,6
subject-01,1,320,1.41859698295593,boat,truck,8-10-10,8-10-10_truck_10_n04467665_24190.png,False,2.447750471503334,2.2884256839752197,0.5,-1.635683421587178,30.390161752700806,10,1.7063492063492063,10,31.329893554258966,10
subject-01,1,321,0.750504970550537,cat,cat,4-10-10,4-10-10_cat_10_n02124075_15405.png,True,-0.7996861805307672,0.1291094124317169,1.0,-0.017143207590830618,25.744003653526306,9,4.449206349206349,7,28.509069395216763,9
subject-01,1,322,1.18217587471008,dog,knife,8-10-10,8-10-10_knife_10_n03041632_24817.png,False,1.2985635960790205,0.0197470411658287,1.0,-0.00206295702645753,27.217963956296444,10,3.378968253968254,9,27.731071643774484,9
subject-01,1,323,1.19609594345093,elephant,elephant,64-10-10,64-10-10_elephant_10_n02504013_5505.png,True,1.366225745286757,1.553694725036621,0.2,-3.9611132904881807,29.5565664768219,10,2.9373015873015875,1,31.785267453956322,0
subject-01,1,324,0.757983207702637,boat,airplane,8-10-10,8-10-10_airplane_10_n02690373_8846.png,False,-0.7633362452383261,1.8469141721725464,1.0,-0.7846389713371399,29.107858777046204,9,6.671800421800421,4,25.44816443573297,3
subject-01,1,325,1.05797219276428,boat,truck,32-10-10,32-10-10_truck_10_n04467665_50806.png,False,0.6948389869249882,2.563844919204712,0.5,-2.291316917064195,30.736677169799805,4,1.3758658008658007,10,33.69827563276904,0
subject-01,1,326,0.727558135986328,elephant,elephant,4-10-10,4-10-10_elephant_10_n02504458_5539.png,True,-0.9112252952459392,0.1327407658100128,1.0,-0.017512969175844842,25.04384721815586,9,6.616666666666666,1,22.20355264321321,9
subject-01,1,327,0.873445987701416,boat,boat,1-10-10,1-10-10_boat_10_n03344393_1178.png,True,-0.2020990851594489,0.0589292719960212,1.0,-0.006866431319185192,25.633103914558887,9,7.916666666666667,3,21.404503108730324,9
subject-01,1,328,0.795590877532959,truck,truck,4-10-10,4-10-10_truck_10_n04467665_10025.png,True,-0.5805342911109687,0.1159323751926422,1.0,-0.014966589138052435,25.838328436017036,9,4.201190476190476,8,24.736806873028424,9
subject-01,1,329,0.537026882171631,clock,clock,4-10-10,4-10-10_clock_10_n02708093_2869.png,True,-1.8373524835776174,0.0032290862873196,1.0,-0.00027535176003429306,24.187335890717804,9,4.90503663003663,6,27.618130774488236,6
subject-01,1,330,0.908667802810669,oven,bottle,8-10-10,8-10-10_bottle_10_n03983396_4879.png,False,-0.030894204374927278,2.3473968505859375,0.5,-1.7097641411574946,30.401028394699097,10,1.203546453546453,10,35.177084741764865,0
subject-01,1,331,1.03276991844177,airplane,keyboard,128-10-10,128-10-10_keyboard_10_n03085013_10367.png,False,0.5723367150375116,2.0479164123535156,0.0769230769230769,-3.9197679254703917,30.33924388885498,10,0.8784854034854032,6,38.12890674743114,6
subject-01,1,332,0.908858060836792,car,bird,64-10-10,64-10-10_bird_10_n01860187_21300.png,False,-0.02996940528153423,2.516866683959961,0.0666666666666666,-3.7860249795258025,30.902860641479492,10,0.15830835830835788,3,42.73803241958901,6
subject-01,1,333,1.09434199333191,truck,knife,32-10-10,32-10-10_knife_10_n03041632_5302.png,False,0.8716239524647725,2.418495178222656,0.25,-2.227796434419828,30.138242721557617,4,2.0539682539682538,5,30.642996056100817,5
subject-01,1,334,0.77810001373291,bear,bear,4-10-10,4-10-10_bear_10_n02134084_5274.png,True,-0.6655532273133511,0.4961923360824585,1.0,-0.0907717536708361,26.011691093444824,9,10.083333333333332,3,15.783526382214214,9
subject-01,1,335,0.900009155273438,knife,knife,4-10-10,4-10-10_knife_10_n03041632_48816.png,True,-0.0729818342931643,0.977331817150116,0.5,-0.8024477917987618,27.494393527507782,9,3.9595238095238097,8,25.322694901588118,9
subject-01,1,336,0.999923944473267,elephant,elephant,16-10-10,16-10-10_elephant_10_n02504013_3295.png,True,0.41268023395934705,1.968907117843628,0.1,-3.6845406321865717,29.890079021453857,10,2.5909090909090913,1,33.347303085201126,0
subject-01,1,337,1.19987010955811,dog,truck,128-10-10,128-10-10_truck_10_n03417042_2478.png,False,1.3845710706607175,2.2719099521636963,0.0833333333333333,-4.000324644437662,30.66020154953003,10,0.7412698412698411,1,37.13195233865658,0
subject-01,1,338,0.975409984588623,keyboard,oven,32-10-10,32-10-10_oven_10_n04111531_5350.png,False,0.2935236951328039,2.60270357131958,0.1666666666666666,-2.57760926865325,30.77332329750061,9,0.8498015873015871,7,37.667227259493146,6
subject-01,1,339,0.895408868789673,airplane,airplane,8-10-10,8-10-10_airplane_10_n02690373_1663.png,True,-0.09534273467790186,2.490349292755127,0.5,-2.0437804322841493,30.58435821533203,10,1.72021312021312,10,33.92670585276767,3
subject-01,1,340,0.618854999542236,boat,boat,4-10-10,4-10-10_boat_10_n03344393_1422.png,True,-1.4396054328989047,0.0747445598244667,1.0,-0.009125256662915632,25.32543108612299,9,7.7178571428571425,3,21.12207284953782,9
subject-01,1,341,1.18081712722778,dog,cat,32-10-10,32-10-10_cat_10_n02123159_3312.png,False,1.2919590471651772,1.734542965888977,0.3333333333333333,-2.1283267738160365,29.555363297462463,10,1.9709457209457204,7,32.952451522974,5
subject-01,1,342,0.910556077957153,cat,chair,64-10-10,64-10-10_chair_10_n03376595_6171.png,False,-0.021715747207418954,2.2066946029663086,0.1428571428571428,-3.292390699826436,30.09636116027832,10,0.9672619047619043,0,38.2176942859929,6
subject-01,1,343,0.768484830856323,bottle,bottle,8-10-10,8-10-10_bottle_10_n04591713_1616.png,True,-0.7122903484129108,0.8802394866943359,1.0,-0.19706058211636243,28.680111169815063,10,3.7475579975579976,8,29.363195369493702,0
subject-01,1,344,0.878237009048462,chair,bear,128-10-10,128-10-10_bear_10_n02133161_1197.png,False,-0.17881106788910592,2.4989969730377197,1.0,-1.7190901784823946,30.674979209899902,9,9.083333333333332,5,21.90658141728951,4
subject-01,1,345,0.820417165756226,truck,truck,4-10-10,4-10-10_truck_10_n04467665_663.png,True,-0.45985959838424395,0.935244917869568,1.0,-0.23471127401634143,28.7714821100235,10,4.341666666666667,8,26.13030383763376,9
subject-01,1,346,0.715842962265015,bear,bear,4-10-10,4-10-10_bear_10_n02132136_2771.png,True,-0.9681699732560299,0.0673639252781868,1.0,-0.00797895385649615,24.6751506999135,9,10.583333333333332,2,15.225149747087459,9
subject-01,1,347,1.21367502212524,cat,cat,16-10-10,16-10-10_cat_10_n02123394_12.png,True,1.4516734730487009,2.165956974029541,1.0,-0.8589712511093592,29.77968120574951,10,2.5686868686868687,9,33.3157313875772,9
subject-01,1,348,0.843459844589233,car,car,8-10-10,8-10-10_car_10_n04285008_1795.png,True,-0.34785460743405877,2.1016736030578613,0.3333333333333333,-1.8777636341526933,30.139360189437866,10,0.9259670884670883,8,41.08322958195077,7
subject-01,1,349,0.643311023712158,boat,boat,4-10-10,4-10-10_boat_10_n04273569_1023.png,True,-1.3207305058263663,0.9694611430168152,1.0,-0.2110994054760591,27.93387895822525,10,6.017857142857142,3,23.381901109054866,9
subject-01,1,350,0.947160959243774,boat,boat,1-10-10,1-10-10_boat_10_n03662601_21775.png,True,0.15621188989386037,0.0591959878802299,1.0,-0.006953457326091893,26.022295705974102,9,8.68452380952381,2,20.434270205416098,9
subject-01,1,351,1.32096314430237,keyboard,clock,1-10-10,1-10-10_clock_10_n03196217_71.png,False,1.973175562306597,0.0260542780160903,1.0,-0.0027450413989405643,24.098191063851118,9,4.351165501165501,7,28.132298852935207,6
subject-01,1,352,0.784805059432983,keyboard,keyboard,4-10-10,4-10-10_keyboard_10_n04505470_3122.png,True,-0.6329615920959434,0.0396959073841571,1.0,-0.004379370783382917,25.346829287707806,9,4.93576146076146,6,27.24945209999006,6
subject-01,1,353,1.13647699356079,clock,dog,32-10-10,32-10-10_dog_10_n02099849_4640.png,False,1.0764321847681124,2.4859538078308105,0.25,-2.473067613112301,30.801039218902588,10,2.2007936507936505,8,32.485182228129794,0
subject-01,1,354,1.10421800613403,dog,bottle,64-10-10,64-10-10_bottle_10_n02823428_6418.png,False,0.9196289059053798,2.698411464691162,0.1111111111111111,-2.873296241613647,31.120416164398193,4,0.4467393717393716,0,37.78708462997996,0
subject-01,1,355,0.772286891937256,car,car,8-10-10,8-10-10_car_10_n04285008_11704.png,True,-0.6938094321944394,2.5537357330322266,0.2,-2.7240289877907755,30.714193105697632,4,0.5864468864468864,8,43.15853790438967,7
subject-01,1,356,0.887850046157837,boat,clock,32-10-10,32-10-10_clock_10_n02708093_3544.png,False,-0.13208437685450983,2.364227294921875,1.0,-1.2582858245171258,30.7735698223114,10,2.8094627594627593,9,36.50308138283915,6
subject-01,1,357,1.22816705703735,keyboard,clock,8-10-10,8-10-10_clock_10_n04548280_4599.png,False,1.522115814017129,2.103902816772461,0.2,-2.95924382924066,30.22046709060669,10,0.26304945054945017,10,42.45848886233037,6
subject-01,1,358,1.0754919052124,elephant,car,128-10-10,128-10-10_car_10_n03100240_6259.png,False,0.7799981495563171,1.7744487524032593,0.0625,-4.9414531156880885,30.016771912574768,10,0.017857142857142794,4,48.82889639463784,7
subject-01,1,359,0.633496999740601,boat,boat,8-10-10,8-10-10_boat_10_n04273569_3401.png,True,-1.3684341462791676,1.0455031394958496,1.0,-0.31832815201737824,27.913563132286072,9,7.684523809523809,3,22.26745883322187,9
subject-01,1,360,0.951695919036865,knife,truck,64-10-10,64-10-10_truck_10_n04467665_13898.png,False,0.17825525274527643,2.4814975261688232,0.3333333333333333,-2.2733600300205996,30.6624276638031,10,1.167399267399267,10,34.930419224343694,10
subject-01,1,361,0.739109992980957,clock,clock,2-10-10,2-10-10_clock_10_n03196217_1499.png,True,-0.8550744610691468,0.0543862544000148,1.0,-0.006949495977807497,25.125576075166464,9,3.1697552447552444,9,32.22803053589281,9
subject-01,1,362,0.642812967300415,car,car,4-10-10,4-10-10_car_10_n03100240_8702.png,True,-1.3231514397939066,0.8167636394500732,1.0,-0.43341507038703364,27.710931539535522,9,3.202651515151515,8,35.53334088039131,9
subject-01,1,363,1.08670401573181,bear,bear,4-10-10,4-10-10_bear_10_n02134418_1770.png,True,0.8344975567806258,0.115552082657814,1.0,-0.01624626862336538,26.83300556242466,10,10.75,2,16.81156707608929,9
subject-01,1,364,1.30245494842529,bear,bear,16-10-10,16-10-10_bear_10_n02132136_32838.png,True,1.8832116164155857,1.6776270866394043,0.5,-1.5340324665405076,28.966702699661255,10,9.75,2,19.314437818622974,5
subject-01,1,365,1.08030295372009,car,truck,4-10-10,4-10-10_truck_10_n04467665_68331.png,False,0.8033835140996473,0.1441174447536468,1.0,-0.020235531769187277,27.919495910406113,10,3.1595238095238094,9,28.379638819384898,9
subject-01,1,366,0.678027868270874,airplane,airplane,1-10-10,1-10-10_airplane_10_n02690373_4506.png,True,-1.1519801669964882,0.0225458703935146,1.0,-0.002316652888773422,24.274916287511587,9,6.954700854700855,4,22.20763496029048,3
subject-01,1,367,0.822072982788086,car,car,2-10-10,2-10-10_car_10_n03100240_5308.png,True,-0.45181106492106926,0.1183392107486724,1.0,-0.017522492479019,26.059013932943344,9,3.1291666666666664,8,33.601591530747676,8
subject-01,1,368,1.1238260269165,bear,cat,2-10-10,2-10-10_cat_10_n02124075_15345.png,False,1.014938839537996,2.4637744426727295,0.1666666666666666,-2.605310576725604,30.944483995437622,10,1.0059523809523805,8,36.76185371603818,5
subject-01,1,369,0.956013202667236,oven,bicycle,128-10-10,128-10-10_bicycle_10_n03792782_50972.png,False,0.1992405434509918,2.539013385772705,0.1,-3.2196134472788,30.99078392982483,10,3.2761904761904765,3,28.33957222014652,6
subject-01,1,370,0.891284942626953,chair,knife,8-10-10,8-10-10_knife_10_n03041632_19098.png,False,-0.11538816064083468,2.236555337905884,0.25,-2.307006251291637,30.201252222061157,9,1.7476190476190474,5,32.12530617383149,5
subject-01,1,371,0.983115911483765,bottle,bottle,128-10-10,128-10-10_bottle_10_n04560804_15963.png,True,0.3309803762074379,2.163140773773194,0.125,-3.424454800428776,30.423914432525635,10,0.4598346098346097,0,38.823077941703154,0
subject-01,1,372,0.790831089019775,bottle,bottle,8-10-10,8-10-10_bottle_10_n04557648_7809.png,True,-0.6036704929912952,2.1562294960021973,0.2,-2.6975790574642895,30.036821365356445,9,1.2313852813852808,8,35.53794867410397,0
subject-01,1,373,0.932858943939209,airplane,airplane,1-10-10,1-10-10_airplane_10_n02690373_17764.png,True,0.08669318912272378,0.012936407700181,1.0,-0.001251765416074712,24.220393858850002,8,7.658333333333333,3,21.367325552787033,8
subject-01,1,374,0.926701784133911,cat,elephant,64-10-10,64-10-10_elephant_10_n02504013_7322.png,False,0.05676469715922017,2.506047248840332,0.3333333333333333,-2.481937713541814,30.644218683242798,10,2.747258297258297,1,32.702280375113475,1
subject-01,1,375,1.12234807014465,bear,bear,2-10-10,2-10-10_bear_10_n02134084_2959.png,True,1.0077548425706513,0.0479684397578239,1.0,-0.005414155289143481,24.842742323875427,9,10.75,2,15.668685618376724,9
subject-01,1,376,0.760334968566895,bird,bird,2-10-10,2-10-10_bird_10_n01622779_6563.png,True,-0.7519048940387905,0.3555824756622314,1.0,-0.05557479494656794,25.898044642060995,9,3.9987845487845486,7,32.02319202126032,9
subject-01,1,377,0.711879968643188,airplane,knife,16-10-10,16-10-10_knife_10_n03041632_19620.png,False,-0.9874331443467346,2.451725721359253,1.0,-1.8896296374238366,30.558876514434814,10,2.990079365079365,10,29.564324892499563,5
subject-01,1,378,0.586251020431519,bird,bird,4-10-10,4-10-10_bird_10_n01530575_35977.png,True,-1.5980856344284655,0.5318517088890076,1.0,-0.0933583469421502,27.94461053609848,10,4.374542124542124,7,31.080213675636667,9
subject-01,1,379,1.23967409133911,knife,cat,128-10-10,128-10-10_cat_10_n02123394_1757.png,False,1.578048775725814,2.4305613040924072,0.0909090909090909,-3.275169206544841,30.800674200057983,10,0.9136363636363635,5,35.6833294172125,5
subject-01,1,380,1.28134107589722,dog,dog,2-10-10,2-10-10_dog_10_n02093647_6358.png,True,1.7805820949711268,1.3139057159423828,1.0,-0.32253821431463625,29.485541105270386,10,3.1301587301587297,9,29.559753354206954,10
subject-01,1,381,0.999309062957764,boat,boat,1-10-10,1-10-10_boat_10_n02951358_1470.png,True,0.4096914408993707,0.1120491623878479,1.0,-0.014224487451551977,25.758047681301832,9,5.309523809523809,8,22.989880155249004,9
subject-01,1,382,0.949030876159668,bear,elephant,128-10-10,128-10-10_elephant_10_n02504458_2026.png,False,0.1653011120611328,2.153505563735962,0.1,-3.74400341293898,30.31567883491516,10,2.876923076923077,1,31.657306399874944,0
subject-01,1,383,0.984864950180054,cat,elephant,32-10-10,32-10-10_elephant_10_n02504458_3730.png,False,0.3394820380484547,2.066741943359375,0.125,-3.453495845584849,29.849432468414307,9,2.7694444444444444,1,31.67087718133239,0
subject-01,1,384,0.858630895614624,keyboard,keyboard,8-10-10,8-10-10_keyboard_10_n03085013_20881.png,True,-0.2741117303528707,2.5695877075195312,0.0909090909090909,-3.4525139817373907,31.011987686157227,10,2.6100649350649348,6,36.58415927819154,6
subject-01,1,385,0.760469198226929,dog,dog,4-10-10,4-10-10_dog_10_n02105641_8188.png,True,-0.751252435530545,0.2956424355506897,1.0,-0.04525636144799114,26.0663822889328,9,4.966666666666667,7,24.582506402687187,9
subject-01,1,386,0.94865608215332,elephant,clock,32-10-10,32-10-10_clock_10_n03196217_6320.png,False,0.16347932738091328,2.5640158653259277,1.0,-1.7531560345855624,30.457393646240234,4,1.7771978021978019,10,38.847302527846935,6
subject-01,1,387,1.00013494491577,car,car,32-10-10,32-10-10_car_10_n04285008_12333.png,True,0.41370585701404017,2.5268566608428955,0.0666666666666666,-4.705037809618058,30.24135661125183,4,0.04478021978021948,2,49.5871903385916,0
subject-01,1,388,1.09006094932556,knife,knife,2-10-10,2-10-10_knife_10_n03041632_47743.png,True,0.8508148139673101,0.0173592716455459,1.0,-0.0017958902676761914,25.33186113834381,9,6.176190476190476,5,21.61858647283744,9
subject-01,1,389,0.64186692237854,boat,boat,8-10-10,8-10-10_boat_10_n04612504_8073.png,True,-1.3277499395465178,0.6750615239143372,1.0,-0.12879042157092688,27.81570941209793,9,7.166666666666666,3,22.784185040485916,9
subject-01,1,390,0.70153284072876,oven,knife,128-10-10,128-10-10_knife_10_n03041632_20770.png,False,-1.0377280764948076,2.6032586097717285,0.5,-2.062167377069487,31.157702207565308,10,3.115151515151515,9,29.813763585119943,5
subject-01,1,391,0.849292993545532,oven,car,32-10-10,32-10-10_car_10_n02814533_28783.png,False,-0.31950105527997963,1.5168105363845823,0.0769230769230769,-4.648288829220093,29.27811563014984,10,0.04610805860805839,10,48.142225192124876,0
subject-01,1,392,0.805230855941772,bottle,car,128-10-10,128-10-10_car_10_n02814533_13533.png,False,-0.5336766448162827,2.542006492614746,0.0625,-4.171465173252543,30.48019576072693,4,0.02678571428571419,2,49.52413669571808,7
subject-01,1,393,0.887002944946289,dog,dog,16-10-10,16-10-10_dog_10_n02104029_8137.png,True,-0.1362019347227133,0.5957905650138855,1.0,-0.11735577654268099,26.76545399427414,10,4.166666666666666,8,26.934202825907764,9
subject-01,1,394,0.586884021759033,bicycle,bicycle,4-10-10,4-10-10_bicycle_10_n02835271_3990.png,True,-1.5950087652643603,0.0164685510098934,1.0,-0.0016391591167167464,25.480457555502653,9,6.708333333333333,2,21.62546150363637,9
subject-01,1,395,0.684749126434326,boat,bear,4-10-10,4-10-10_bear_10_n02132136_24311.png,False,-1.1193097268438035,0.1228858456015586,1.0,-0.016203378261241397,26.90891971439123,10,10.25,2,17.368566469252848,9
subject-01,1,396,0.776411056518555,truck,truck,2-10-10,2-10-10_truck_10_n03796401_6966.png,True,-0.6737628473353995,0.040263794362545,1.0,-0.004437981557778127,25.225016528740525,9,5.792857142857143,6,21.961596294084472,9
subject-01,1,397,1.06251382827759,knife,knife,1-10-10,1-10-10_knife_10_n03041632_8468.png,True,0.7169147988674199,0.0285718366503715,1.0,-0.0030513420303813024,25.950256504118443,9,5.186111111111111,5,23.432835554104745,9
subject-01,1,398,1.22198891639709,airplane,elephant,128-10-10,128-10-10_elephant_10_n02504458_6799.png,False,1.4920853391962037,2.5935487747192383,0.125,-2.993793189141471,30.82079005241394,4,3.051190476190476,1,29.847271697019114,0
subject-01,1,399,0.83784008026123,keyboard,keyboard,16-10-10,16-10-10_keyboard_10_n03085013_24402.png,True,-0.3751709475723639,0.093133196234703,1.0,-0.012052818266813887,26.33906029164791,9,5.0540404040404034,6,27.098435162132137,9
subject-01,1,400,1.10186004638672,oven,knife,16-10-10,16-10-10_knife_10_n03041632_25772.png,False,0.9081674234070841,2.2223997116088867,0.2,-2.4231858754531994,30.052560329437256,9,1.5178321678321673,5,33.01978174507014,5
subject-01,1,401,0.811007976531982,cat,elephant,32-10-10,32-10-10_elephant_10_n02504458_5839.png,False,-0.5055954332473518,2.513587474822998,0.0909090909090909,-3.5962633779546813,30.545459270477295,10,2.702020202020202,1,32.282403566083815,0
subject-01,1,402,1.16910004615784,cat,elephant,64-10-10,64-10-10_elephant_10_n02504458_5178.png,False,1.2350050979862583,2.5337367057800293,0.1428571428571428,-2.71805561412461,30.676036596298218,9,2.6234126984126984,1,31.45313299783407,1
subject-01,1,403,0.694796085357666,dog,bicycle,32-10-10,32-10-10_bicycle_10_n02835271_27014.png,False,-1.0704738448944502,2.580325126647949,0.0909090909090909,-3.500517141338189,30.83579921722412,4,1.6409090909090909,3,33.06331480433527,8
subject-01,1,404,0.856554985046387,keyboard,car,128-10-10,128-10-10_car_10_n04285008_15218.png,False,-0.28420223875659495,1.7199139595031738,0.0909090909090909,-3.8148712710388932,29.84866428375244,10,0.09967532467532449,8,46.73263672685019,7
subject-01,1,405,0.726434946060181,bicycle,bicycle,8-10-10,8-10-10_bicycle_10_n02835271_19955.png,True,-0.9166848548060557,1.1682541370391846,1.0,-0.6383039193995939,28.917603492736816,10,6.376190476190476,0,24.685522762022945,10
subject-01,1,406,0.778152942657471,truck,truck,1-10-10,1-10-10_truck_10_n03796401_874.png,True,-0.665295952377593,0.073256179690361,1.0,-0.00875515564829838,25.701039850711823,9,4.542857142857143,8,23.279272869905625,9
subject-01,1,407,0.830058097839355,dog,dog,2-10-10,2-10-10_dog_10_n02108915_6092.png,True,-0.41299731650513216,1.0318212509155271,1.0,-0.2285522082034811,27.85043430328369,10,4.237301587301587,8,28.335285700741192,10
subject-01,1,408,0.882021903991699,bird,clock,16-10-10,16-10-10_clock_10_n04548280_6337.png,False,-0.16041359219034232,2.412719488143921,1.0,-1.6531171606439379,30.70553994178772,10,1.4661477411477408,10,38.42346027120222,6
subject-01,1,409,0.645635843276978,boat,boat,4-10-10,4-10-10_boat_10_n04273569_1388.png,True,-1.3094301098869199,2.3480730056762695,1.0,-1.56293011785804,30.300511598587036,10,4.351190476190476,10,26.797579158412944,2
subject-01,1,410,0.907455921173096,bicycle,clock,64-10-10,64-10-10_clock_10_n02708093_2676.png,False,-0.036784873286851545,1.645257830619812,0.5,-2.7122066997154786,29.56280791759491,10,0.879181929181929,10,40.104509629716794,6
subject-01,1,411,1.37528204917908,dog,dog,64-10-10,64-10-10_dog_10_n02107683_5424.png,True,2.2372068623664245,2.142472505569458,1.0,-0.9576977593773527,29.89698553085327,10,4.216666666666667,8,29.832692353841413,10
subject-01,1,412,0.587019920349121,chair,chair,1-10-10,1-10-10_chair_10_n04099969_29038.png,True,-1.5943481944833648,0.0405503325164318,1.0,-0.004487315454390145,25.424563049338758,9,4.248784548784549,8,25.80551523232644,8
subject-01,1,413,0.536782026290894,clock,clock,16-10-10,16-10-10_clock_10_n04548280_3219.png,True,-1.838542669879514,2.380858898162842,1.0,-1.3012593994156985,30.704941987991333,10,2.453113553113553,10,36.962335693258616,6
subject-01,1,414,0.714631080627441,bottle,clock,32-10-10,32-10-10_clock_10_n03196217_8282.png,False,-0.9740606421679596,2.544626235961914,0.2,-2.513388541061375,30.630155324935913,9,0.4665806415806413,10,40.12793674948454,6
subject-01,1,415,0.828532934188843,keyboard,oven,8-10-10,8-10-10_oven_10_n04111531_22041.png,False,-0.42041077490166445,2.122500419616699,1.0,-1.1385221186977923,29.297815799713135,9,4.500595238095238,7,29.845848712240972,6
subject-01,1,416,1.04017090797424,bear,bear,8-10-10,8-10-10_bear_10_n02134084_6964.png,True,0.6083111679912765,0.739232063293457,1.0,-0.2252315047095502,27.52531361579895,9,9.75,2,17.889154242871616,10
subject-01,1,417,0.920228004455566,oven,bicycle,64-10-10,64-10-10_bicycle_10_n03792782_11921.png,False,0.02529719116560776,2.586782693862915,0.0714285714285714,-3.546718242176625,30.825906991958618,4,1.4865800865800862,3,33.82072151280567,6
subject-01,1,418,0.795928955078125,clock,clock,8-10-10,8-10-10_clock_10_n04548280_1809.png,True,-0.5788909764312302,0.3048474192619324,1.0,-0.04784244952585873,27.500546514987946,10,3.7968364968364967,8,32.81659355895806,6
subject-01,1,419,0.854094982147217,bird,bird,4-10-10,4-10-10_bird_10_n01833805_202.png,True,-0.2961597287887126,0.4123495221138,1.0,-0.06777639544077403,27.110260784626007,9,3.477518315018315,8,31.970967721593716,9
subject-01,1,420,1.25762510299683,clock,keyboard,64-10-10,64-10-10_keyboard_10_n03085013_7511.png,False,1.6653043814147477,2.461308717727661,0.0666666666666666,-3.8849924368692657,30.804800748825073,10,1.1064935064935062,6,36.97978932303117,6
subject-01,1,421,0.707361936569214,bird,bird,1-10-10,1-10-10_bird_10_n02025239_5287.png,True,-1.0093942255745492,0.3566047549247741,1.0,-0.05630649351765017,25.876947715878487,9,3.0889652014652014,8,33.07824256575627,9
subject-01,1,422,0.791218042373657,cat,boat,64-10-10,64-10-10_boat_10_n03662601_27960.png,False,-0.6017896046096187,2.316164493560791,0.1111111111111111,-3.2623617952807615,30.605453968048096,10,2.8968253968253967,7,30.57860781245407,0
subject-01,1,423,0.943100929260254,oven,bottle,1-10-10,1-10-10_bottle_10_n04591713_6855.png,False,0.1364770480876097,2.1367244720458984,0.0833333333333333,-4.199176993528436,30.608420610427856,10,0.47448107448107407,0,38.49977045811096,0
subject-01,1,424,0.980863094329834,bicycle,elephant,128-10-10,128-10-10_elephant_10_n02504013_4424.png,False,0.3200299668923099,1.630063533782959,0.1666666666666666,-3.724099654390339,29.486271381378174,10,3.088888888888889,1,33.02814333285751,1
subject-01,1,425,1.04080700874329,keyboard,clock,2-10-10,2-10-10_clock_10_n04548280_3295.png,False,0.6114031028048096,0.119230568408966,1.0,-0.015895869475178244,26.852536380290985,9,4.640909090909091,6,29.931074804788693,9
subject-01,1,426,0.904423952102661,airplane,airplane,1-10-10,1-10-10_airplane_10_n02690373_6144.png,True,-0.05152255507968501,0.0147624677047133,1.0,-0.0014496815673590599,24.396099395118654,9,6.943589743589744,4,22.60736183322616,3
subject-01,1,427,0.982238054275513,bear,truck,32-10-10,32-10-10_truck_10_n04467665_70894.png,False,0.3267133207414314,2.431367874145508,0.3333333333333333,-2.527265504818633,30.616361141204834,9,1.3595238095238091,10,33.26639857540121,0
subject-01,1,428,1.00192403793335,elephant,boat,128-10-10,128-10-10_boat_10_n02951358_30474.png,False,0.4224022134010441,2.3200018405914307,0.5,-2.11941014834262,30.69187068939209,10,3.7440476190476186,8,29.1070008951239,0
subject-01,1,429,0.592116117477417,bear,bear,4-10-10,4-10-10_bear_10_n02132136_6434.png,True,-1.5695767901960505,0.0500553958117961,1.0,-0.005675236732393021,24.011179316788912,9,10.083333333333332,3,14.229578893076516,9
subject-01,1,430,0.901708126068115,keyboard,keyboard,32-10-10,32-10-10_keyboard_10_n04505470_5009.png,True,-0.06472354063462314,2.440239429473877,0.0714285714285714,-4.220099441415707,30.367219924926758,10,0.8710789210789209,6,38.739582965493334,6
subject-01,1,431,0.571604013442993,oven,keyboard,2-10-10,2-10-10_keyboard_10_n03085013_13005.png,False,-1.6692812578664489,0.1149574369192123,1.0,-0.014676638227740605,24.819602698087692,9,5.142929292929293,6,24.594520763203302,6
subject-01,1,432,0.717787981033325,chair,chair,1-10-10,1-10-10_chair_10_n03376595_6865.png,True,-0.9587156988150546,0.045782133936882,1.0,-0.005158833703749987,25.046833146363497,9,4.5547008547008545,7,24.914793985766405,8
subject-01,1,433,1.18120002746582,bear,bicycle,32-10-10,32-10-10_bicycle_10_n02835271_6122.png,False,1.2938202343130474,1.8678699731826784,0.0714285714285714,-4.0464540834688245,29.657715678215027,10,1.2955738705738704,4,34.99198070753757,6
subject-01,1,434,0.645089149475098,bear,oven,4-10-10,4-10-10_oven_10_n04111531_11499.png,False,-1.3120874586602917,2.0066449642181396,1.0,-0.8488326352596021,29.971091270446777,10,3.4291666666666663,8,32.72643121501443,6
subject-01,1,435,0.77687406539917,bird,bird,1-10-10,1-10-10_bird_10_n02009229_5765.png,True,-0.6715122710955894,0.5160799026489258,1.0,-0.08939326037734638,26.37043035030365,9,3.575396825396825,8,30.976821471800296,9
subject-01,1,436,1.07854604721069,elephant,bottle,32-10-10,32-10-10_bottle_10_n04560804_2181.png,False,0.7948436086870959,2.0789225101470947,0.2,-3.334593155835578,30.001052379608154,10,0.5947552447552445,10,38.80552621986884,0
subject-01,1,437,1.09841895103455,car,bicycle,32-10-10,32-10-10_bicycle_10_n03792782_3774.png,False,0.8914410758946386,2.566315174102783,0.125,-2.8445793596815276,30.40371060371399,4,4.091666666666667,2,28.68367908062825,0
subject-01,1,438,0.954521894454956,bird,bird,16-10-10,16-10-10_bird_10_n01614925_1683.png,True,0.1919916483016532,2.1147923469543457,0.1666666666666666,-3.3081906991776173,30.017988681793213,10,0.5717393717393713,7,41.03251395737035,6
subject-01,1,439,0.560150146484375,clock,clock,8-10-10,8-10-10_clock_10_n02708093_4692.png,True,-1.7249557857432596,0.6669031977653503,1.0,-0.13220775163759027,28.225233018398285,10,4.797557997557997,6,31.318032502972393,6
subject-01,1,440,0.644234180450439,dog,dog,4-10-10,4-10-10_dog_10_n02109961_71298.png,True,-1.3162432601000291,0.6662723422050476,1.0,-0.12324454285835575,26.410962760448456,9,3.5706349206349204,9,26.46743302275456,9
subject-01,1,441,0.743544816970825,keyboard,keyboard,2-10-10,2-10-10_keyboard_10_n03085013_23269.png,True,-0.8335178345826766,0.0298111736774444,1.0,-0.0031653619517044394,24.34937114454806,9,5.104040404040404,6,24.160799320472815,6
subject-01,1,442,1.03128600120544,elephant,elephant,2-10-10,2-10-10_elephant_10_n02504458_5614.png,True,0.5651237456674789,0.0785483717918396,1.0,-0.009574084141771735,25.64710769802332,9,5.333333333333334,1,24.450770940635696,9
