subject_id,Session,trial,rt,object_response,category,condition,item_id,response_correct,rt_zscore,output_entropy,output_rank_correct,output_logprob_correct,auc_entropy,layer_biggest_change_entropy,auc_rank_correct,layer_biggest_change_rank_correct,auc_logprob_correct,layer_biggest_change_logprob_correct
subject-03,1,1,1.02795696258545,boat,bottle,60,60_bottle_10_n02823428_889.png,False,1.0785328641467875,2.339867115020752,0.2,-2.225946177432834,28.700841188430786,10,5.1499999999999995,0,24.930414318237172,10
subject-03,1,2,0.91179895401001,airplane,airplane,90,90_airplane_10_n02690373_1696.png,True,0.472583919724143,0.0179620254784822,1.0,-0.0020028727316379518,26.02489678747952,10,5.416666666666666,0,24.330018753758804,10
subject-03,1,3,0.539807081222534,knife,knife,30,30_knife_10_n03041632_20770.png,True,-1.4679459276258133,0.5613730549812317,1.0,-0.21347029710112994,25.7284477353096,10,2.5758658008658006,10,35.31888243856288,10
subject-03,1,4,0.937772989273071,bottle,truck,150,150_truck_10_n03417042_1279.png,False,0.6080798656608065,0.1153581589460372,0.0769230769230769,-7.804445365576224,25.534582421183586,10,0.17399267399267368,5,53.17008192006646,6
subject-03,1,5,0.601234912872314,bicycle,bicycle,30,30_bicycle_10_n03792782_8374.png,True,-1.147501989210824,0.0489206612110137,1.0,-0.0060596707566602775,25.71585276722908,10,2.2539432789432787,10,31.49016557261961,10
subject-03,1,6,0.961323976516724,elephant,elephant,30,30_elephant_10_n02504458_7033.png,True,0.7309357585554789,0.0001811640104278,1.0,-1.239784296610773e-05,26.213376964791678,10,4.668686868686868,7,30.368392571621598,10
subject-03,1,7,0.928899765014648,boat,car,180,180_car_10_n04285008_11770.png,False,0.5617918745101591,2.1721391677856445,0.1111111111111111,-3.3921159392651803,28.24470353126526,10,0.26108613608613573,7,49.04592563031374,6
subject-03,1,8,0.857043981552124,bottle,bottle,30,30_bottle_10_n04591713_5558.png,True,0.18694956554012923,0.0738227888941764,1.0,-0.012539296041019204,25.520350269973278,10,6.616666666666666,9,20.249224707032173,10
subject-03,1,9,0.71644401550293,boat,airplane,150,150_airplane_10_n02690373_9432.png,False,-0.5465030999989584,0.6297329664230347,0.125,-4.991211417453345,26.191317081451416,10,2.7734126984126983,0,32.83044239126156,6
subject-03,1,10,0.708317995071411,airplane,airplane,60,60_airplane_10_n02690373_10399.png,True,-0.5888932336042351,0.0100044291466474,1.0,-0.0010719081735458963,25.61672273091972,10,4.426190476190476,0,25.21852293517836,10
subject-03,1,11,0.704149007797241,clock,bear,120,120_bear_10_n02132136_3616.png,False,-0.6106411394875741,2.3942666053771973,1.0,-1.1989086839598204,28.57956111431122,10,2.5884920634920636,10,33.022495329536504,10
subject-03,1,12,0.930129051208496,knife,knife,0,0_knife_10_n03041632_62810.png,True,0.5682045590998037,1.0478365421295166,1.0,-0.4248013496188625,26.647035360336304,10,2.6865440115440116,10,34.016393276530934,10
subject-03,1,13,0.789925098419189,boat,bird,180,180_bird_10_n01534433_10801.png,False,-0.16318226681488932,2.094799757003784,0.2,-3.094951176672246,28.88237237930298,10,1.217460317460317,4,34.49845581053144,0
subject-03,1,14,0.875602006912231,keyboard,keyboard,0,0_keyboard_10_n04505470_9514.png,True,0.28375921315234837,0.0001318850845564,1.0,-9.000341864150329e-06,22.611297766241478,9,3.7920995670995667,8,36.079295188721076,9
subject-03,1,15,0.805247068405151,boat,bottle,60,60_bottle_10_n03983396_2205.png,False,-0.0832537999503828,0.0718575716018676,0.1666666666666666,-7.230131014225551,26.019001245498657,10,4.033333333333333,1,30.425046780769257,1
subject-03,1,16,0.687397956848145,bird,bird,90,90_bird_10_n01530575_35115.png,True,-0.6980245387474061,0.0304399915039539,1.0,-0.003532861229139966,26.463463682681322,10,2.3507936507936504,10,32.16058145732461,10
subject-03,1,17,0.668954849243164,cat,cat,90,90_cat_10_n02123394_702.png,True,-0.7942347073114909,0.0008539927657693,1.0,-6.729590827025756e-05,26.7175900710281,10,5.322222222222222,6,29.274307660430683,10
subject-03,1,18,0.766785144805908,clock,dog,150,150_dog_10_n02109525_40708.png,False,-0.2838939649398627,1.9530385732650757,0.1428571428571428,-3.332684397989905,27.80250120162964,10,0.8559884559884557,7,39.57762604508557,6
subject-03,1,19,0.626622915267944,bear,bear,0,0_bear_10_n02134418_2324.png,True,-1.015063137673176,0.0002895967627409,1.0,-2.3007657557313048e-05,26.194901146140182,10,3.2206349206349207,9,28.43074281150116,10
subject-03,1,20,0.664427042007446,cat,cat,0,0_cat_10_n02123394_6517.png,True,-0.8178544305546855,0.1392478197813034,1.0,-0.023102701374707515,25.769127294421196,10,5.3579365079365076,6,27.24127955898387,10
subject-03,1,21,0.914345979690552,car,car,0,0_car_10_n04285008_1867.png,True,0.4858707136479509,0.0071575227193534,1.0,-0.0008363644028402778,25.302782255690545,10,3.5178571428571423,8,38.983314613347055,6
subject-03,1,22,0.870031833648682,cat,knife,30,30_knife_10_n03041632_3063.png,False,0.2547018915720918,1.4290601015090942,1.0,-0.5057034864307355,27.48936438560486,10,2.320310245310245,10,34.99940302562286,10
subject-03,1,23,1.29394793510437,boat,keyboard,150,150_keyboard_10_n04505470_1076.png,False,2.466099257548874,2.2980120182037354,0.1428571428571428,-3.16768565555861,27.580590963363647,4,0.8060245310245306,8,40.54795577433925,6
subject-03,1,24,0.97188401222229,oven,oven,150,150_oven_10_n04111531_15296.png,True,0.78602315689614,2.1348369121551514,0.0625,-6.1688853905561505,28.205699920654297,10,0.0,0,66.50274609188943,7
subject-03,1,25,1.04346299171448,elephant,knife,90,90_knife_10_n03041632_25498.png,False,1.159421492474297,1.4074366092681885,0.25,-3.176526823132051,27.48553764820099,10,1.6186868686868685,7,36.73457341327811,6
subject-03,1,26,0.701529979705811,truck,truck,60,60_truck_10_n03417042_18374.png,True,-0.6243035406158146,0.7460469007492065,0.5,-1.9054132577293799,25.975549817085266,10,0.7895604395604393,10,45.411024153641016,6
subject-03,1,27,1.16704797744751,bird,boat,150,150_boat_10_n04273569_62.png,False,1.8041139469147622,2.2742505073547363,0.25,-2.3724354372182423,28.91344165802002,10,2.5020202020202023,0,30.628311395084165,10
subject-03,1,28,0.948935985565186,bear,bear,180,180_bear_10_n02132136_20883.png,True,0.6663126634055089,2.4347586631774902,0.25,-2.0848372392448677,28.561889171600342,4,1.2718253968253965,5,34.856933536761595,6
subject-03,1,29,0.798708915710449,car,car,60,60_car_10_n02814533_38071.png,True,-0.11736067533862382,0.154741883277893,1.0,-0.034437857739820756,25.826998114585876,10,2.183125208125208,9,42.83188236816319,10
subject-03,1,30,0.876748085021973,knife,cat,180,180_cat_10_n02123597_3944.png,False,0.28973783511170326,0.9927570819854736,0.2,-3.7879221346588436,26.23470175266266,10,2.544047619047619,6,33.50566755190846,0
subject-03,1,31,0.976285219192505,knife,knife,60,60_knife_10_n03041632_4714.png,True,0.8089824582004086,0.0035478891804814,1.0,-0.00034016195160556487,26.264262777753174,10,4.677020202020202,7,30.24462380325787,10
subject-03,1,32,0.898185014724731,clock,car,150,150_car_10_n02814533_85659.png,False,0.40156555223903634,2.3161349296569824,0.1,-3.3214501297133037,27.868440747261047,5,0.30146520146520117,7,48.47265630634426,6
subject-03,1,33,0.632050037384033,boat,clock,180,180_clock_10_n03196217_4492.png,False,-0.9867520555719268,0.0184166841208934,1.0,-0.0020441429673853256,25.41930214688182,10,9.333333333333332,2,16.248880804213723,10
subject-03,1,34,0.639739036560059,boat,elephant,180,180_elephant_10_n02504013_698.png,False,-0.9466416835750304,0.3216243982315063,0.0714285714285714,-6.719611747842014,25.672014951705933,10,1.063095238095238,2,40.94210869844721,6
subject-03,1,35,0.771675825119019,elephant,elephant,90,90_elephant_10_n02504013_3081.png,True,-0.25838128088490536,1.3034000396728516,1.0,-0.4176344253615657,27.172781944274902,10,2.435714285714285,10,33.27841028835531,10
subject-03,1,36,0.621587991714478,bird,bird,90,90_bird_10_n01601694_2723.png,True,-1.041328279869463,0.6533082723617554,1.0,-0.16709697383411146,26.92480766773224,10,1.9047619047619044,10,33.09239356411005,10
subject-03,1,37,0.74352502822876,bear,bear,150,150_bear_10_n02133161_2340.png,True,-0.40523250422720497,2.536224842071533,0.5,-2.038824798935176,28.487518548965454,4,1.5440476190476187,10,35.59236875948708,6
subject-03,1,38,0.883117914199829,bicycle,keyboard,150,150_keyboard_10_n03085013_15162.png,False,0.3229666353796385,1.1116299629211426,0.3333333333333333,-3.122876032289316,26.80802083015442,10,1.317532467532467,9,40.357376539676,7
subject-03,1,39,0.654864072799683,airplane,airplane,90,90_airplane_10_n02690373_19118.png,True,-0.8677405397266316,0.0007099246140569,1.0,-5.6506799726318206e-05,25.796075019752607,10,6.25,0,23.111441767506406,6
subject-03,1,40,0.802574872970581,boat,boat,90,90_boat_10_n03344393_3072.png,True,-0.09719355341832446,0.971541166305542,0.0909090909090909,-5.438575253120772,27.23510479927063,10,2.3023559773559774,0,35.226450498228246,6
subject-03,1,41,0.924504995346069,airplane,truck,60,60_truck_10_n04467665_67115.png,False,0.5388661539824473,0.5351958274841309,1.0,-0.11333476976765214,26.695390224456787,10,1.2795537795537792,10,41.78397344691123,10
subject-03,1,42,1.03223991394043,bear,dog,150,150_dog_10_n02089973_2756.png,False,1.100875274148402,1.7486718893051147,0.1428571428571428,-3.8195544351467468,27.75144124031067,10,0.547330447330447,8,42.00920789739002,6
subject-03,1,43,0.738069772720337,elephant,elephant,90,90_elephant_10_n02504458_3153.png,True,-0.4336903467593266,0.0001865265658125,1.0,-1.3172713255167626e-05,26.623160683899187,10,5.408008658008658,6,28.16364621688759,10
subject-03,1,44,1.03589916229248,knife,bottle,120,120_bottle_10_n04557648_1136.png,False,1.1199640800215245,1.3899775743484497,0.3333333333333333,-2.324041830498839,27.139522910118103,10,4.842857142857142,0,25.095581267439034,10
subject-03,1,45,0.799916982650757,keyboard,keyboard,30,30_keyboard_10_n04505470_6963.png,True,-0.11105868293836609,0.0916543155908584,1.0,-0.01756113254405812,24.350220695137978,10,3.0524531024531023,9,34.486386941667426,10
subject-03,1,46,0.655588150024414,truck,truck,90,90_truck_10_n03417042_5228.png,True,-0.8639633242303684,1.5201327800750732,0.5,-1.0895738618644684,27.31417155265808,10,0.6700299700299698,10,44.40212510156049,10
subject-03,1,47,0.545460939407349,clock,clock,60,60_clock_10_n04548280_5734.png,True,-1.4384520559503278,0.0156090594828128,1.0,-0.0017820969406187905,25.559851560741663,10,10.083333333333332,2,17.34342511994656,10
subject-03,1,48,0.78703784942627,car,truck,120,120_truck_10_n03796401_28190.png,False,-0.17824386696627606,0.7437904477119446,0.0714285714285714,-6.4909943165284245,25.42013841867447,10,0.17032967032966997,3,51.81137025897745,6
subject-03,1,49,0.842911958694458,bicycle,bicycle,60,60_bicycle_10_n02835271_4730.png,True,0.11322856740853778,0.0229405798017978,1.0,-0.0028407353247714207,25.494007650762796,10,2.3586691086691083,10,32.260588241694485,10
subject-03,1,50,1.23869204521179,bear,bear,60,60_bear_10_n02134084_21921.png,True,2.177851821455845,0.5447917580604553,1.0,-0.16181812632277898,26.857371866703033,10,2.8678571428571424,10,29.864498815112064,10
subject-03,1,51,0.742652893066406,car,dog,180,180_dog_10_n02105162_9615.png,False,-0.40978207758425017,2.33345627784729,0.1428571428571428,-2.494371095541977,29.054938793182373,10,0.6806637806637805,9,38.25216300282253,6
subject-03,1,52,0.764412879943848,clock,chair,120,120_chair_10_n02791124_4319.png,False,-0.29626910296680814,1.5149528980255127,0.3333333333333333,-2.7052443632934247,27.187925457954407,10,0.4004329004328999,10,51.060750333156605,7
subject-03,1,53,0.652318954467773,boat,oven,120,120_oven_10_n04111531_2922.png,False,-0.8810173837907234,0.8611615896224976,0.0769230769230769,-5.436173683085637,26.5701904296875,10,0.018589743589743496,10,63.861938650638926,6
subject-03,1,54,0.651999950408936,cat,cat,0,0_cat_10_n02123045_10887.png,True,-0.8826814978289155,0.0191839169710874,1.0,-0.002016310754535777,25.45839743129909,10,4.24563492063492,8,30.90465501594633,6
subject-03,1,55,0.636057138442993,airplane,airplane,60,60_airplane_10_n02690373_243.png,True,-0.9658486440323362,0.0008268228266388,1.0,-6.669982188721537e-05,25.54906009347178,10,5.2,0,24.950109868277266,10
subject-03,1,56,0.910104990005493,bird,dog,150,150_dog_10_n02110806_2269.png,False,0.46374720056017465,1.8941892385482788,0.2,-3.3878456420848835,27.77963387966156,10,0.7369769119769118,9,40.57473638331666,6
subject-03,1,57,0.673888921737671,bicycle,bicycle,60,60_bicycle_10_n03792782_1477.png,True,-0.7684956639479023,0.0051540741696953,1.0,-0.0005498251602732751,26.124727667309344,10,3.033766233766234,9,30.474646365759128,10
subject-03,1,58,1.16133499145508,airplane,car,180,180_car_10_n03100240_4619.png,False,1.7743116295879626,2.071133852005005,0.1,-3.852376893775855,28.129950046539307,10,0.29993894993894954,7,48.467679700590644,6
subject-03,1,59,0.687126874923706,airplane,elephant,180,180_elephant_10_n02504013_5021.png,False,-0.6994386625601361,0.5859367847442627,0.1,-5.575455981414161,25.777834057807922,10,1.1051587301587302,2,39.84908431508711,2
subject-03,1,60,0.907013893127441,clock,chair,120,120_chair_10_n04429376_16869.png,False,0.44762220915118944,1.6470226049423218,0.25,-3.2934637089192833,26.90499520301819,10,0.2864468864468859,10,51.211169817364414,7
subject-03,1,61,0.976883172988892,knife,bottle,0,0_bottle_10_n03937543_3079.png,False,0.8121017392226803,0.00162303308025,1.0,-0.00014926116941171687,25.420620559249073,10,7.45,9,19.528247699750057,10
subject-03,1,62,1.01073598861694,cat,elephant,180,180_elephant_10_n02504013_3029.png,False,0.9886980681983757,1.9157918691635132,0.25,-2.7394881883019355,27.839542746543884,10,1.421067821067821,2,36.46583913587151,6
subject-03,1,63,0.788789033889771,airplane,truck,120,120_truck_10_n04467665_51397.png,False,-0.16910865201070466,0.3629790246486664,0.0714285714285714,-7.347663861082825,24.793372601270676,10,0.17032967032966997,3,53.2839657624276,6
subject-03,1,64,0.752145051956177,bicycle,knife,120,120_knife_10_n03041632_36280.png,False,-0.3602653569544093,0.6443271636962891,1.0,-0.14413429386559587,27.451786160469055,10,3.2294011544011543,8,32.153639839082864,10
subject-03,1,65,0.572016000747681,clock,clock,90,90_clock_10_n04548280_6022.png,True,-1.2999251339964077,0.0242156945168972,1.0,-0.0028098325374960598,25.764543052762747,10,9.25,2,17.676199154038684,10
subject-03,1,66,0.875952005386353,bicycle,bicycle,120,120_bicycle_10_n02835271_19213.png,True,0.28558501241100226,0.0628964602947235,0.25,-7.366981740939211,25.31488248705864,10,1.1318181818181816,10,42.20313853794514,6
subject-03,1,67,0.937669992446899,bird,bird,60,60_bird_10_n01560419_6863.png,True,0.6075425732359173,0.1386537402868271,1.0,-0.021910053803547082,26.410415396094322,10,3.5158730158730154,8,31.41686133316711,10
subject-03,1,68,0.823467016220093,bird,bird,0,0_bird_10_n01817953_2257.png,True,0.011792235026443306,0.0059775672852993,1.0,-0.0005585919003111395,25.891052421182394,10,2.894047619047619,9,31.73087267726437,10
subject-03,1,69,0.745253086090088,bicycle,bird,90,90_bird_10_n01582220_261.png,False,-0.39621793132074107,1.2427167892456057,0.0625,-6.2140994453543,26.858724236488342,10,0.6093004218004215,3,41.79668947590777,6
subject-03,1,70,0.877120018005371,clock,oven,0,0_oven_10_n04111531_22886.png,False,0.291678057757132,1.118146538734436,0.1666666666666666,-4.464806464453225,26.48738968372345,10,0.2020202020202019,10,60.74459849005243,6
subject-03,1,71,0.924815893173218,bicycle,bicycle,0,0_bicycle_10_n02835271_4963.png,True,0.5404879811168363,0.020379215478897,1.0,-0.002267724660410899,25.810007482767105,10,3.0420995670995667,9,31.026671562737803,10
subject-03,1,72,0.806611776351929,dog,dog,60,60_dog_10_n02090721_1105.png,True,-0.07613467532060524,0.0312000270932912,1.0,-0.003894990569148103,26.353050565347075,10,3.3186868686868687,9,33.51092321769933,10
subject-03,1,73,0.750670909881592,truck,truck,30,30_truck_10_n04467665_6523.png,True,-0.3679553547856276,0.8461498022079468,0.5,-1.5680100891208135,26.123218536376953,10,1.0841380841380837,10,44.41642536767781,6
subject-03,1,74,1.14062905311584,car,car,120,120_car_10_n04285008_13247.png,True,1.666297196198343,1.0678237676620483,0.0714285714285714,-6.1220460290993906,25.95181715488434,10,0.29755799755799706,7,52.00541678757904,6
subject-03,1,75,0.692528009414673,cat,cat,90,90_cat_10_n02123597_13823.png,True,-0.671263147297574,0.4959070384502411,1.0,-0.09954707906695505,26.589489787817,10,5.826190476190476,6,26.063627759515686,10
subject-03,1,76,0.595971822738647,keyboard,keyboard,0,0_keyboard_10_n04505470_1342.png,True,-1.174957383376139,0.0136878546327352,1.0,-0.0016739662370630134,24.426328664645553,10,2.8913419913419913,9,34.850193830083214,10
subject-03,1,77,0.622269868850708,car,car,120,120_car_10_n04285008_3884.png,True,-1.0377712050195083,1.1084473133087158,0.0769230769230769,-5.256849049357422,26.765625,10,0.2502497502497499,7,51.54449372775197,6
subject-03,1,78,0.767457962036133,elephant,elephant,60,60_elephant_10_n02504458_6715.png,True,-0.28038415192357413,0.0020060944370925,1.0,-0.00016750307967645082,25.651329796295613,10,2.8499999999999996,10,31.132767348034815,10
subject-03,1,79,0.707731008529663,bear,bird,150,150_bird_10_n01833805_30804.png,False,-0.5919553029331142,1.558948993682861,0.1428571428571428,-4.309080234197962,26.940547466278076,10,0.8039682539682539,6,39.62980626134807,6
subject-03,1,80,0.559151172637939,cat,cat,30,30_cat_10_n02123045_11826.png,True,-1.3670356940764223,0.0050611686892807,1.0,-0.0005093918029385839,24.669278640765697,10,5.53452380952381,6,26.21853271509334,9
subject-03,1,81,0.88870096206665,airplane,airplane,90,90_airplane_10_n02690373_1854.png,True,0.3520911185130085,0.3501685857772827,0.2,-6.386019616573519,25.593560338020325,10,2.076190476190476,4,34.67173679276426,6
subject-03,1,82,0.814389944076538,truck,truck,90,90_truck_10_n03796401_6772.png,True,-0.03555914738179729,0.8954203128814697,0.25,-3.6408588009128677,26.182693243026733,10,0.38353313353313323,10,47.11893542229026,6
subject-03,1,83,0.616265058517456,boat,bear,150,150_bear_10_n02134084_3860.png,False,-1.0690958508835002,2.188457727432251,0.2,-2.868702498757718,28.07886230945587,10,1.0563492063492061,10,36.60553038195761,6
subject-03,1,84,0.710241079330444,bird,bird,0,0_bird_10_n02011460_5925.png,True,-0.5788612875413854,2.0938022136688232,0.5,-1.6334848464131209,27.854689478874207,10,1.7928571428571427,8,34.14276168288556,6
subject-03,1,85,0.815810203552246,bicycle,bicycle,90,90_bicycle_10_n02835271_22739.png,True,-0.028150233087673553,0.9247926473617554,1.0,-0.575656011833391,26.845295310020447,10,1.8558663558663555,10,33.97451475314192,10
subject-03,1,86,0.821799993515015,airplane,boat,120,120_boat_10_n03662601_7885.png,False,0.0030960576310245184,2.051473379135132,1.0,-1.0828394074833343,28.49495267868042,10,3.2650183150183154,10,30.022761486657373,10
subject-03,1,87,0.92209005355835,cat,cat,90,90_cat_10_n02123045_12691.png,True,0.5262683878442644,0.0123850768432021,1.0,-0.0012780843348280959,25.54196137841791,10,5.478968253968254,6,27.347224323879544,9
subject-03,1,88,0.857363939285278,bottle,knife,60,60_knife_10_n03041632_105581.png,False,0.18861865450818424,1.4034273624420166,0.25,-3.396313906379383,26.718859910964966,10,1.7345959595959597,7,37.85288492840219,7
subject-03,1,89,0.849536895751953,knife,car,120,120_car_10_n03100240_14794.png,False,0.14778816141404605,1.255836009979248,0.1428571428571428,-5.212765807474652,26.494219660758972,10,0.34920634920634874,7,51.7989902897229,6
subject-03,1,90,0.628738880157471,truck,truck,60,60_truck_10_n03796401_8037.png,True,-1.0040250120461207,0.8403467535972595,1.0,-0.3867128523736863,26.177565157413483,10,1.4257437007437006,10,41.742009118591106,10
subject-03,1,91,0.754711151123047,knife,knife,90,90_knife_10_n03041632_24100.png,True,-0.3468790644334004,0.2814700901508331,0.5,-3.6891177371674204,25.175719290971756,10,1.8357864357864357,7,38.69760086417336,7
subject-03,1,92,0.612522840499878,boat,boat,60,60_boat_10_n03344393_3499.png,True,-1.0886174756544524,0.5755370855331421,1.0,-0.15174502158814904,25.745595335960388,10,2.0843614718614716,10,33.28901783155579,10
subject-03,1,93,0.680482864379883,clock,clock,180,180_clock_10_n02708093_960.png,True,-0.7340977551628454,1.740153431892395,0.5,-1.7014303228060632,27.519115567207336,10,8.416666666666666,2,19.13193110039847,10
subject-03,1,94,1.17817711830139,bear,boat,0,0_boat_10_n02951358_12713.png,False,1.8621701346494184,0.0084883905947208,1.0,-0.000810116759906822,26.764649841934443,10,2.3281135531135533,10,29.783596414967313,10
subject-03,1,95,0.965921878814697,clock,chair,60,60_chair_10_n04429376_6141.png,False,0.7549211391433854,0.3263355195522308,1.0,-0.07344789896509248,26.11123225092888,10,1.42063492063492,10,44.57329391712641,10
subject-03,1,96,0.750214099884033,dog,dog,30,30_dog_10_n02110958_1335.png,True,-0.37033834618860806,0.8742280602455139,1.0,-0.23995601789895127,26.834660828113556,10,1.9830086580086579,10,36.79055085239646,10
subject-03,1,97,1.39957499504089,truck,truck,90,90_truck_10_n03417042_12711.png,True,3.017112538991567,0.1026486977934837,1.0,-0.016584003623240754,26.2097771987319,10,2.1536380286380283,9,41.68488664060189,10
subject-03,1,98,0.773399114608765,elephant,elephant,30,30_elephant_10_n02504458_8644.png,True,-0.24939158262774186,0.0066066458821296,1.0,-0.0006766820111949404,26.50720126181841,10,5.215151515151515,6,30.11043340688972,10
subject-03,1,99,1.05328702926636,cat,elephant,120,120_elephant_10_n02504013_1784.png,False,1.2106694886954443,0.9938457012176514,0.0666666666666666,-6.066913656705359,26.174124717712402,10,1.0766233766233764,2,40.23600315526917,2
subject-03,1,100,0.66100811958313,clock,bird,120,120_bird_10_n02009229_5172.png,False,-0.8356895541030691,2.148387670516968,0.1666666666666666,-2.951599363732641,27.78649353981018,10,0.9007936507936505,8,36.76005484361979,6
subject-03,1,101,1.34080791473389,bear,clock,180,180_clock_10_n02708093_1352.png,False,2.7105486548862348,0.916821837425232,1.0,-0.21521522106785265,26.05974006652832,10,10.75,2,16.22416022189283,10
subject-03,1,102,0.874842882156372,cat,dog,180,180_dog_10_n02108000_5623.png,False,0.27979916898372664,1.6013911962509155,0.1428571428571428,-3.7560154989835457,27.379928708076477,10,0.570310245310245,8,42.318519255823944,6
subject-03,1,103,0.550506114959717,boat,chair,150,150_chair_10_n04429376_6242.png,False,-1.4121334332580415,1.914184808731079,0.3333333333333333,-2.8126393428118486,27.665884137153625,10,0.358608058608058,10,50.414189546854544,6
subject-03,1,104,0.784378051757812,bear,bear,60,60_bear_10_n02134084_9253.png,True,-0.19211894634604365,0.053123839199543,0.2,-7.663797142501999,26.225593574345112,10,1.2190476190476187,10,39.64284211099856,0
subject-03,1,105,0.538234949111938,boat,elephant,180,180_elephant_10_n02504458_4207.png,False,-1.476147099500156,2.1552703380584717,0.1111111111111111,-3.3102110713665347,28.881129264831543,10,1.1436868686868684,7,36.9999717386559,2
subject-03,1,106,1.11595797538757,truck,car,90,90_car_10_n04285008_17056.png,False,1.5375982481830175,0.134499505162239,0.3333333333333333,-6.0110969226420865,25.533513501286507,10,0.5847985347985345,10,52.551055730552584,6
subject-03,1,107,0.635994911193848,boat,boat,60,60_boat_10_n04612504_14699.png,True,-0.9661732582057041,0.1776938140392303,0.3333333333333333,-6.185113341324601,26.163521379232407,10,1.6083333333333334,10,36.39931989557544,6
subject-03,1,108,0.72967004776001,car,keyboard,150,150_keyboard_10_n03085013_4999.png,False,-0.4775082852344433,0.0335842706263065,0.3333333333333333,-6.894711929104854,24.39187839999795,10,1.494455544455544,9,44.904313553025204,6
subject-03,1,109,0.815478086471558,keyboard,keyboard,0,0_keyboard_10_n03085013_2166.png,True,-0.029882752411444002,0.3966836929321289,1.0,-0.11100177810998489,25.319769501686096,10,2.8202131202131198,9,37.015270147461145,10
subject-03,1,110,0.595286130905151,boat,boat,90,90_boat_10_n04273569_7733.png,True,-1.1785343579455358,0.060159008949995,0.0714285714285714,-9.238623698230017,26.083495657891035,10,1.5040043290043288,0,39.788816252114174,0
subject-03,1,111,0.9291090965271,cat,dog,120,120_dog_10_n02100583_13688.png,False,0.5628838716144513,0.0631183087825775,0.0769230769230769,-9.119309321735209,24.92891976237297,10,0.47296592296592277,8,48.5830128138631,6
subject-03,1,112,0.732649803161621,cat,dog,0,0_dog_10_n02097047_705.png,False,-0.46196411688662586,0.1781652867794037,1.0,-0.04041585645018216,25.81861075758934,10,2.3115800865800864,10,36.49510661880389,10
subject-03,1,113,0.880681991577148,knife,knife,0,0_knife_10_n03041632_22051.png,True,0.31025942078452806,1.4072811603546145,0.5,-1.3727072237269236,27.093323707580566,10,2.315151515151515,7,36.09545984459426,10
subject-03,1,114,0.738384008407593,bear,bottle,150,150_bottle_10_n03937543_964.png,False,-0.43205110737042973,0.2469420433044433,0.2,-5.55026570324257,26.136685609817505,10,4.324542124542124,3,28.76892393648893,4
subject-03,1,115,0.824268102645874,bottle,bottle,60,60_bottle_10_n04579145_4385.png,True,0.015971176108909118,0.0809266269207,1.0,-0.015157979807866538,25.122073143720627,10,6.916666666666666,1,18.50421116320302,10
subject-03,1,116,0.658054828643799,boat,cat,120,120_cat_10_n02123159_1108.png,False,-0.8510956681472704,2.2486343383789062,0.1666666666666666,-2.9768791881167385,28.252644062042236,10,4.113888888888889,6,32.80015764471278,6
subject-03,1,117,0.720178842544556,bicycle,bear,150,150_bear_10_n02134084_17572.png,False,-0.5270200309344212,0.0383311919867992,0.25,-7.583606847059113,25.299956124275923,10,1.4079365079365076,8,40.26670255040775,0
subject-03,1,118,1.07170009613037,car,car,90,90_car_10_n02814533_52627.png,True,1.3067229469689141,1.0873713493347168,0.5,-1.0458452338995705,26.510457634925842,10,1.6081501831501828,9,45.58259039467071,6
subject-03,1,119,0.951822996139526,bear,truck,150,150_truck_10_n03417042_6250.png,False,0.6813730198244311,0.2908321022987366,0.0714285714285714,-6.759116329316729,25.769382297992706,10,0.17582417582417548,3,52.164939196781475,6
subject-03,1,120,0.939450979232788,bicycle,bicycle,0,0_bicycle_10_n03792782_23912.png,True,0.616833254749618,0.0042379954829812,1.0,-0.00038977111843585614,25.789095507003367,10,2.832972582972583,9,31.633223999422484,10
subject-03,1,121,0.835327863693237,clock,dog,180,180_dog_10_n02099601_6318.png,False,0.07366543769625199,1.8533085584640503,0.1428571428571428,-3.7197670170038015,28.275062799453735,10,0.5508658008658006,6,40.88413369458851,6
subject-03,1,122,0.924787044525146,airplane,cat,150,150_cat_10_n02125311_5570.png,False,0.5403374894885653,1.460041046142578,0.1666666666666666,-3.546590019714613,27.40576410293579,10,2.197222222222222,6,33.80837933417523,6
subject-03,1,123,0.884646892547607,airplane,airplane,90,90_airplane_10_n02690373_21731.png,True,0.33094269167780954,0.2088358402252197,1.0,-0.04732293429794475,25.8705997467041,10,4.449999999999999,10,25.111221350988934,10
subject-03,1,124,0.66476583480835,boat,boat,120,120_boat_10_n04612504_2024.png,True,-0.8160870867218882,0.0330170877277851,0.0769230769230769,-9.967254839316189,25.556118417531252,10,1.0969988344988344,3,42.95837580603392,3
subject-03,1,125,0.834262847900391,bicycle,elephant,180,180_elephant_10_n02504013_17589.png,False,0.06810968477501143,1.9663317203521729,0.125,-3.3684271511739694,27.672403693199158,10,1.2499999999999998,2,37.45891185248793,6
subject-03,1,126,0.810659170150757,truck,airplane,150,150_airplane_10_n02690373_16250.png,False,-0.05502107299442803,2.5385494232177734,0.0909090909090909,-3.0814538308338646,29.258907794952393,4,3.0226551226551224,1,28.757466364055063,6
subject-03,1,127,0.730080127716064,airplane,airplane,60,60_airplane_10_n02690373_1706.png,True,-0.47536906539461243,0.0135333482176065,1.0,-0.0014635896939163198,25.564481729641557,10,5.283333333333333,0,23.76600743946819,10
subject-03,1,128,0.696324110031128,chair,chair,30,30_chair_10_n04429376_21089.png,True,-0.6514604389895267,0.2170047163963318,1.0,-0.046534894200240665,25.395590722560883,10,1.308308358308358,10,44.588295561525186,10
subject-03,1,129,0.507446050643921,boat,boat,60,60_boat_10_n04273569_4978.png,True,-1.636760222567897,0.006176930386573,1.0,-0.0005831630370631052,26.106918197590858,10,4.374242424242424,9,26.715891752832327,10
subject-03,1,130,1.09736013412476,car,truck,120,120_truck_10_n03796401_2007.png,False,1.440580897249177,0.5722012519836426,0.2,-4.652133232505697,26.07357120513916,10,0.2915750915750913,10,49.832532079983935,6
subject-03,1,131,0.609210014343262,boat,truck,150,150_truck_10_n04467665_48953.png,False,-1.1058991382559034,2.179556369781494,0.0714285714285714,-5.018040441453085,28.257906675338745,10,0.1824841824841822,3,48.084355930774336,6
subject-03,1,132,0.614976167678833,truck,boat,150,150_boat_10_n02951358_30995.png,False,-1.075819468589398,0.0246367771178483,0.0769230769230769,-10.466192401310817,25.539323838427663,10,1.6392246642246642,0,41.778985097190784,0
subject-03,1,133,0.906996011734009,bicycle,elephant,150,150_elephant_10_n02504013_6776.png,False,0.44752892921631643,1.6522506475448608,0.25,-2.986843773435419,27.41156005859375,10,1.428210678210678,2,36.49312194288648,6
subject-03,1,134,0.700501918792725,elephant,elephant,120,120_elephant_10_n02504013_2340.png,True,-0.6296665150049806,2.1496245861053467,0.1428571428571428,-3.1320332556501063,27.945765733718872,10,1.5285714285714282,2,35.88247224260259,6
subject-03,1,135,1.12851595878601,car,chair,90,90_chair_10_n02791124_1941.png,False,1.6031081245805612,0.5959950685501099,1.0,-0.15142610152451402,26.77987313270569,10,1.1002747252747247,10,46.77236810817623,10
subject-03,1,136,0.580421924591064,cat,cat,60,60_cat_10_n02123045_7483.png,True,-1.2560748584772041,0.0062218224629759,1.0,-0.0006490667612885207,25.360398939810693,10,5.442857142857143,6,27.41593609291929,9
subject-03,1,137,0.958089828491211,bear,bottle,120,120_bottle_10_n03983396_8143.png,False,0.7140645276674824,0.174427717924118,1.0,-0.03043349301971421,25.80999919772148,10,5.2,10,21.765128370251933,10
subject-03,1,138,0.746088981628418,boat,boat,0,0_boat_10_n03662601_23248.png,True,-0.39185740529838176,0.0086553003638982,1.0,-0.0008340378793902179,25.341732611879706,10,3.833333333333333,9,25.70963726501666,10
subject-03,1,139,0.952019929885864,bicycle,bicycle,30,30_bicycle_10_n02835271_2505.png,True,0.6824003428405382,0.1115090921521186,1.0,-0.019954082246347097,25.905578024685383,10,3.25,9,30.410031505284287,10
subject-03,1,140,0.957544088363647,airplane,keyboard,180,180_keyboard_10_n03085013_23014.png,False,0.7112176240550488,1.6509873867034912,0.3333333333333333,-3.0624062040833855,27.062174081802368,10,1.207251082251082,5,40.13446866151272,6
subject-03,1,141,1.12531590461731,bird,bird,0,0_bird_10_n02027492_15639.png,True,1.5864147474350694,0.6156892776489258,1.0,-0.16361959833551762,26.61117672920227,10,2.6865079365079363,9,33.99284837912437,10
subject-03,1,142,0.567091941833496,clock,clock,0,0_clock_10_n02708093_340.png,True,-1.3256119405964668,0.0161768645048141,1.0,-0.0018915531217554484,22.559898003935814,10,9.583333333333332,3,12.762632197120945,9
subject-03,1,143,1.09913492202759,bird,clock,30,30_clock_10_n03196217_6348.png,False,1.4498392417187738,0.1941617429256439,1.0,-0.031061550618327497,25.759266585111618,10,9.916666666666666,2,17.594555658698525,10
subject-03,1,144,0.674916982650757,boat,car,150,150_car_10_n04285008_12696.png,False,-0.7631326895587363,0.0408496260643005,0.1111111111111111,-8.722877345483147,24.99632292985916,10,0.2812271062271059,7,55.6661837320679,6
subject-03,1,145,0.978721141815186,car,car,0,0_car_10_n02814533_95144.png,True,0.821689672795519,0.1238693445920944,1.0,-0.02671326087862701,25.23763696849346,10,3.5357142857142856,8,39.522644912559365,6
subject-03,1,146,1.02226614952087,knife,knife,90,90_knife_10_n03041632_12242.png,True,1.0488462139392012,1.2874630689620972,1.0,-0.3664704390214202,27.39958965778351,10,3.9877344877344876,8,31.22362646315282,10
subject-03,1,147,0.802233934402466,boat,boat,0,0_boat_10_n02951358_15218.png,True,-0.09897209084330182,0.0159085821360349,1.0,-0.0017025651036602356,26.18733368627727,10,3.1504329004329,10,26.737982029408833,10
subject-03,1,148,1.06798481941223,truck,truck,30,30_truck_10_n04467665_20622.png,True,1.2873418639665062,0.0071103759109973,1.0,-0.0006987509016828522,25.648261684924364,10,2.4320568320568317,9,39.678015742902154,10
subject-03,1,149,0.712073087692261,bottle,bottle,0,0_bottle_10_n03937543_4850.png,True,-0.5693044472801694,0.0001017092581605,1.0,-6.973767755493553e-06,24.745188736807904,10,8.083333333333332,1,18.061535251033497,10
subject-03,1,150,0.749779939651489,knife,knife,30,30_knife_10_n03041632_3717.png,True,-0.37260318300740936,7.303235179279e-06,1.0,-3.5762793271222757e-07,24.49816325473512,10,4.735353535353536,7,30.155697705561092,6
subject-03,1,151,0.5816969871521,boat,knife,150,150_knife_10_n03041632_14132.png,False,-1.2494233772542729,2.1235146522521973,0.5,-1.7899353245133687,28.034356355667114,10,3.2659090909090907,8,34.174621814359725,6
subject-03,1,152,0.70133900642395,bottle,bottle,90,90_bottle_10_n02823428_4386.png,True,-0.625299770320299,1.1718480587005615,0.25,-3.182163779446247,25.821075916290283,10,4.9261904761904765,0,25.794989043886602,3
subject-03,1,153,0.577542781829834,cat,cat,60,60_cat_10_n02123045_568.png,True,-1.2710941717247826,0.3024007678031921,1.0,-0.07006888401410989,26.14390355348587,10,4.853968253968254,6,27.70574321865687,9
subject-03,1,154,0.688911914825439,boat,boat,60,60_boat_10_n02951358_1911.png,True,-0.6901268375945342,0.8267845511436462,1.0,-0.2606726083087093,26.82983750104904,10,2.131089743589744,10,32.041862256961586,10
subject-03,1,155,0.88057017326355,car,car,30,30_car_10_n03100240_12777.png,True,0.3096761102584372,0.812673807144165,1.0,-0.2686435522239392,26.426997661590576,10,2.4228937728937727,9,42.17349468672884,6
subject-03,1,156,0.98275899887085,airplane,airplane,0,0_airplane_10_n02690373_1952.png,True,0.8427535258230965,0.0001799278834369,1.0,-1.2576659133453355e-05,25.391043584881118,10,6.116666666666666,0,20.989717631032555,9
subject-03,1,157,0.840413808822632,airplane,airplane,30,30_airplane_10_n02690373_3639.png,True,0.1001967386400595,0.0001605986180948,1.0,-1.0967314779559774e-05,24.58209195123345,10,6.833333333333333,0,20.394608884436558,9
subject-03,1,158,0.67206597328186,boat,truck,180,180_truck_10_n04467665_670.png,False,-0.778005242375447,1.874089241027832,0.0666666666666666,-4.945221367206282,26.97384476661682,10,0.15024975024974987,3,49.95197179982009,6
subject-03,1,159,0.997977018356323,clock,car,150,150_car_10_n04285008_13076.png,False,0.9221397253328503,0.0141206700354814,0.1111111111111111,-9.917444422261251,25.09615203924477,10,0.4280275280275276,7,55.38810885007116,6
subject-03,1,160,0.661776065826416,car,car,60,60_car_10_n03100240_17349.png,True,-0.8316834918332404,0.3082271516323089,1.0,-0.08623898242267716,26.211165994405746,10,2.244322344322344,9,42.22626898394605,10
subject-03,1,161,0.783493041992188,oven,oven,0,0_oven_10_n04111531_2342.png,True,-0.19673568125619184,0.0644178614020347,1.0,-0.009645698579778664,23.98326351493597,10,2.4017857142857144,9,55.57014430563414,6
subject-03,1,162,0.721204042434692,oven,oven,60,60_oven_10_n04111531_21980.png,True,-0.5216719813348389,1.527806520462036,0.2,-3.4867707256665894,27.279000997543335,10,0.1547619047619046,10,62.27058530478577,6
subject-03,1,163,0.732071161270142,truck,truck,30,30_truck_10_n03417042_10401.png,True,-0.46498265557922636,0.0398830622434616,1.0,-0.0052376822277476675,25.6146330088377,10,2.6597735597735594,9,39.76251115411288,10
subject-03,1,164,0.859203100204468,bicycle,bicycle,120,120_bicycle_10_n03792782_11272.png,True,0.1982128067433509,1.8899348974227903,0.125,-3.470198012160626,27.545358777046204,10,1.0603535353535354,3,37.58189984822765,6
subject-03,1,165,0.650737047195435,chair,chair,60,60_chair_10_n04429376_10449.png,True,-0.8892695486961261,0.008833966217935,1.0,-0.000909145561858671,26.256143412552774,10,2.294322344322344,9,43.208710363412415,10
subject-03,1,166,0.58244800567627,cat,chair,150,150_chair_10_n04099969_3768.png,False,-1.24550561998946,1.0439903736114502,0.2,-4.172009037997231,26.56157100200653,10,0.2190476190476185,10,53.91834915142785,6
subject-03,1,167,0.546220064163208,truck,truck,30,30_truck_10_n04467665_23914.png,True,-1.4344920117817062,0.1296339035034179,1.0,-0.01937525557782661,25.185004949569702,10,1.764535464535464,10,43.32896049381342,10
subject-03,1,168,0.508028984069824,boat,airplane,180,180_airplane_10_n02690373_9959.png,False,-1.633719296690925,1.8489480018615725,0.1,-3.8145732489795927,27.008423805236816,10,2.3666666666666667,0,32.928299313983906,6
subject-03,1,169,0.755845069885254,bicycle,keyboard,180,180_keyboard_10_n04505470_5062.png,False,-0.3409638728297656,1.708451509475708,0.3333333333333333,-2.5423087921767373,26.746723532676697,10,1.1869519369519368,7,38.8478214089262,6
subject-03,1,170,0.781682014465332,airplane,knife,150,150_knife_10_n03041632_19614.png,False,-0.20618307306048614,2.3298492431640625,0.3333333333333333,-2.00014150849628,28.482300639152527,10,1.768290043290043,8,34.95019770642189,6
subject-03,1,171,0.915343999862671,clock,truck,90,90_truck_10_n03796401_7104.png,False,0.49107697774652376,1.3320932388305664,0.1,-4.8968745459159315,26.296350479125977,10,0.2721112221112219,3,48.63237837454649,6
subject-03,1,172,0.695436954498291,airplane,airplane,90,90_airplane_10_n02690373_19133.png,True,-0.6560883674918664,0.0916018038988113,0.5,-5.156462300518026,25.372243002057076,10,4.416666666666667,0,30.25985969489253,6
subject-03,1,173,0.725197076797485,chair,chair,30,30_chair_10_n03376595_10332.png,True,-0.5008419500106851,0.0039092185907065,1.0,-0.0003836890930210887,26.301341164391488,10,2.557142857142857,9,42.89927125963921,10
subject-03,1,174,0.590970039367676,cat,cat,0,0_cat_10_n02123045_12297.png,True,-1.2010496467597889,0.0153411636129021,1.0,-0.0017355831839878657,24.73189985845238,10,4.821825396825396,7,29.015794629990356,6
subject-03,1,175,0.762883901596069,boat,chair,30,30_chair_10_n04099969_8401.png,False,-0.3042451592649844,0.5495420098304749,0.5,-1.7769086309371058,26.367272078990936,10,0.7813852813852808,10,48.26121722407536,7
subject-03,1,176,0.816693782806396,bicycle,boat,150,150_boat_10_n04273569_1576.png,False,-0.023540960572311424,1.581221103668213,0.0769230769230769,-4.9513565941269455,27.405746936798096,10,1.2614219114219112,0,38.43192572757674,7
subject-03,1,177,0.642365217208862,bicycle,boat,60,60_boat_10_n02951358_13017.png,False,-0.93294197047284,2.004143714904785,0.3333333333333333,-2.7983955668158527,28.29385781288147,10,1.2048992673992671,10,37.29477409140341,10
subject-03,1,178,0.696435928344727,keyboard,keyboard,60,60_keyboard_10_n03085013_17795.png,True,-0.6508771284634305,1.1285617351531982,0.3333333333333333,-1.974958552888626,26.23239290714264,10,2.3008658008658007,9,37.96565559394215,6
subject-03,1,179,0.89207911491394,boat,car,180,180_car_10_n03100240_18276.png,False,0.3697135638098759,0.1811685711145401,0.0909090909090909,-7.064466423673101,25.90785337984562,10,0.2923742923742921,6,51.802269104378155,6
subject-03,1,180,0.769727230072021,keyboard,keyboard,0,0_keyboard_10_n04505470_1117.png,True,-0.2685463063215179,0.0018564141355454,1.0,-0.00016255507766314864,25.48664387827739,10,2.5456709956709958,9,36.24527195667733,9
subject-03,1,181,0.69179105758667,clock,cat,150,150_cat_10_n02123597_3280.png,False,-0.6751075243469505,2.3388872146606445,0.5,-1.971192980423079,29.068864583969116,10,3.238888888888889,9,32.45482225157598,0
subject-03,1,182,0.941514015197754,bear,bottle,150,150_bottle_10_n02823428_3711.png,False,0.6275952717694366,2.207487106323242,0.0769230769230769,-4.056272665527556,28.02962017059326,10,3.7847985347985342,1,27.901828474592467,4
subject-03,1,183,0.805294036865234,keyboard,keyboard,90,90_keyboard_10_n04505470_986.png,True,-0.08300878465477388,0.3700995445251465,1.0,-0.09186311149555161,25.875124096870422,10,2.643290043290043,9,37.18989847600398,10
subject-03,1,184,0.725187063217163,clock,clock,0,0_clock_10_n04548280_4426.png,True,-0.5008941867742148,0.000572235439904,1.0,-4.667152595796614e-05,24.30107358202804,10,9.5,3,16.211620157543965,10
subject-03,1,185,0.639214038848877,clock,clock,120,120_clock_10_n02708093_4061.png,True,-0.9493803824630067,0.2796816229820251,1.0,-0.045408853310319866,25.218323051929474,10,10.75,2,15.485770083538446,10
subject-03,1,186,0.636669158935547,bear,dog,60,60_dog_10_n02104365_1262.png,False,-0.9626559827946288,1.0314399003982544,0.25,-4.206551289240524,27.050888419151306,10,0.8698773448773447,9,41.587012754443336,6
subject-03,1,187,0.692384958267212,boat,keyboard,120,120_keyboard_10_n03085013_7752.png,False,-0.672009386776586,0.0351149328052997,0.5,-6.568012090492624,25.028643775731325,10,1.578210678210678,9,44.08706683122842,6
subject-03,1,188,0.770256996154785,car,cat,150,150_cat_10_n02123394_270.png,False,-0.26578273278424186,0.0661727786064148,0.125,-8.000943420946024,25.41255086660385,10,1.6472222222222221,5,40.260486940337564,0
subject-03,1,189,1.02855706214905,airplane,airplane,60,60_airplane_10_n02690373_4728.png,True,1.0816633387612495,0.0003837661352008,1.0,-2.8670245124512927e-05,25.240315230330452,10,5.949999999999999,0,22.55840223030886,9
subject-03,1,190,0.70213794708252,boat,boat,150,150_boat_10_n02951358_16728.png,True,-0.6211320228300138,2.187476634979248,0.0833333333333333,-3.99438045950959,28.461278915405273,10,1.749206349206349,0,33.738370024991895,0
subject-03,1,191,0.685857057571411,elephant,elephant,0,0_elephant_10_n02504013_3087.png,True,-0.7060627816688329,0.086387999355793,1.0,-0.01683880424343834,26.05972946435213,10,4.668686868686868,7,30.967733550116787,10
subject-03,1,192,0.751688003540039,bicycle,chair,60,60_chair_10_n02791124_5898.png,False,-0.36264959208985426,1.2477755546569824,0.5,-1.003345491148971,27.299273371696472,10,0.9336080586080581,9,46.04912197445159,10
subject-03,1,193,0.575314044952393,car,car,60,60_car_10_n04285008_6410.png,True,-1.2827205828077866,0.3878378570079803,1.0,-0.0957518941193359,26.37649103999138,10,2.114560439560439,9,43.10218693049632,10
subject-03,1,194,0.591515064239502,boat,car,180,180_car_10_n04285008_15213.png,False,-1.1982064743447545,1.5069963932037354,0.3333333333333333,-3.315943495402156,26.822960376739502,10,0.54041514041514,10,48.572510700672225,6
subject-03,1,195,0.737003087997437,keyboard,keyboard,0,0_keyboard_10_n03085013_2189.png,True,-0.43925480580782406,0.0071736895479261,1.0,-0.0008333816814469234,24.772305878344923,10,3.629304029304029,8,36.80736101187534,10
subject-03,1,196,0.648952007293701,clock,clock,30,30_clock_10_n03196217_4537.png,True,-0.8985813736617337,0.0001969993027159,1.0,-1.388797867030637e-05,24.215186423054547,10,10.5,2,14.64993902446836,10
subject-03,1,197,0.764724969863892,boat,airplane,180,180_airplane_10_n02690373_8382.png,False,-0.2946410571700965,2.3909642696380615,0.0769230769230769,-4.1367505458090355,29.17893099784851,10,1.9074786324786326,0,31.652373641296236,6
subject-03,1,198,0.6943199634552,bear,clock,180,180_clock_10_n02708093_2482.png,False,-0.6619152540904859,1.89878511428833,0.5,-1.7668731399536466,27.52333426475525,10,8.333333333333332,2,19.643373968499883,2
subject-03,1,199,0.978102922439575,bicycle,bottle,150,150_bottle_10_n04557648_8320.png,False,0.8184646745137187,1.7707712650299072,0.125,-3.674711450635183,28.348081350326538,10,3.5400183150183153,1,27.512809396618447,4
subject-03,1,200,1.01810908317566,oven,clock,150,150_clock_10_n04548280_8314.png,False,1.027160494679139,2.155801057815552,0.5,-1.6581564008616674,28.679848074913025,10,7.45,2,21.03869999640642,10
subject-03,1,201,0.621818065643311,boat,bicycle,180,180_bicycle_10_n02835271_7350.png,False,-1.0401280780407187,2.127823829650879,0.0769230769230769,-4.090853012074234,28.536187291145325,10,1.0524281274281273,3,36.52503303170862,6
subject-03,1,202,0.761751890182495,keyboard,keyboard,60,60_keyboard_10_n03085013_21490.png,True,-0.3101504010088979,0.7064647674560547,1.0,-0.6850437108978495,26.63918113708496,10,3.094877344877345,9,34.750943902269995,10
subject-03,1,203,0.777791976928711,bear,bear,90,90_bear_10_n02133161_4043.png,True,-0.22647581195975078,0.7621718645095825,0.25,-4.189668542459562,26.477945566177368,10,1.2702380952380947,6,36.71040756465045,6
subject-03,1,204,1.13547110557556,bottle,boat,30,30_boat_10_n03344393_8374.png,False,1.639390288050118,1.6029328107833862,1.0,-0.544281091023994,26.982311367988586,10,2.2659090909090907,10,31.33241900036015,10
subject-03,1,205,0.759242057800293,cat,bird,150,150_bird_10_n02007558_7783.png,False,-0.32324317266816216,1.4462878704071045,0.1111111111111111,-4.405958867537521,26.711949467658997,10,0.8468253968253967,6,39.19456296904014,6
subject-03,1,206,0.664865016937256,boat,boat,30,30_boat_10_n03344393_5296.png,True,-0.8155696940164416,0.0109305568039417,1.0,-0.0011467950325155544,25.418652076274157,10,3.3666666666666663,9,28.96125670490319,10
subject-03,1,207,0.866855144500732,dog,dog,0,0_dog_10_n02106662_15515.png,True,0.23813040020816215,0.1537968218326568,1.0,-0.024189355668512016,26.311478286981583,10,2.71505439005439,10,34.36332511331982,10
subject-03,1,208,1.03869700431824,dog,dog,30,30_dog_10_n02108915_1165.png,True,1.1345592804985496,0.4277688860893249,1.0,-0.09931658756898715,26.468059241771698,10,1.8476551226551226,10,36.121185721275204,10
subject-03,1,209,1.00465703010559,car,dog,60,60_dog_10_n02097658_759.png,False,0.9569866215377753,0.1716824173927307,0.0833333333333333,-7.916522654367451,25.933203160762787,10,0.5830086580086578,6,45.258712449088506,6
subject-03,1,210,0.93864893913269,knife,knife,90,90_knife_10_n03041632_52371.png,True,0.6126493387372892,0.1703824251890182,1.0,-0.04044781938559237,25.001179978251457,10,2.8588383838383837,10,34.96263868864941,10
subject-03,1,211,1.13203310966492,bear,bear,30,30_bear_10_n02133161_959.png,True,1.621455665904555,0.0684438347816467,1.0,-0.009198222538407904,26.89214378595352,10,2.508333333333333,10,29.860573366790533,10
subject-03,1,212,0.643874168395996,boat,keyboard,180,180_keyboard_10_n03085013_23254.png,False,-0.9250703877017277,0.1207788586616516,0.5,-5.393655136232929,24.31522446870804,10,1.6776556776556772,9,44.15981134005351,6
subject-03,1,213,1.20557308197021,cat,dog,60,60_dog_10_n02086240_7247.png,False,2.0050837010074463,1.779429316520691,0.3333333333333333,-1.8508339909208018,27.984636664390564,10,1.687276612276612,8,37.73364441991498,6
subject-03,1,214,0.915733814239502,dog,dog,60,60_dog_10_n02099429_3814.png,True,0.4931104803268308,1.1205761432647705,0.5,-2.0020278990833953,26.96928119659424,10,1.577020202020202,9,37.028929245637215,6
subject-03,1,215,0.651441097259521,bicycle,bicycle,0,0_bicycle_10_n02835271_7794.png,True,-0.8855968067269268,0.0010471541900187,1.0,-8.33307653077798e-05,24.82716276240535,10,4.383333333333333,8,27.725680033817913,9
subject-03,1,216,0.577256917953491,bicycle,bicycle,90,90_bicycle_10_n03792782_55532.png,True,-1.2725854069503426,0.6057518720626831,1.0,-0.2510312867019385,25.874831676483154,10,1.853246753246753,10,35.246196226883136,10
subject-03,1,217,0.507004976272583,cat,cat,30,30_cat_10_n02124075_11776.png,True,-1.6390611276281846,0.0042115482501685,1.0,-0.0004137418140825802,23.93156302301213,9,5.552380952380952,6,25.17865621746541,9
subject-03,1,218,0.732808828353882,bottle,bottle,30,30_bottle_10_n03983396_11519.png,True,-0.46113454733245646,0.0011837375350296,1.0,-0.00010169069431021164,25.088908780831844,10,7.583333333333333,9,18.797342645178535,10
subject-03,1,219,0.656425952911377,boat,boat,0,0_boat_10_n03662601_37095.png,True,-0.8595928483482878,0.0494505614042282,1.0,-0.006818780287009209,25.432372733950615,10,2.9107142857142856,10,27.820676859003715,10
subject-03,1,220,0.848315000534058,truck,truck,90,90_truck_10_n03417042_3238.png,True,0.14141403253082122,1.613391399383545,0.5,-1.7343253722395744,27.123677849769592,10,0.7222083472083469,10,44.54629070219631,6
subject-03,1,221,0.816053152084351,knife,knife,60,60_knife_10_n03041632_24060.png,True,-0.026882869705815347,0.0368638113141059,0.3333333333333333,-7.0805237027289545,25.135736353695393,10,2.0274531024531024,7,40.96606624691408,6
subject-03,1,222,0.594025850296021,airplane,airplane,0,0_airplane_10_n02690373_1325.png,True,-1.1851087277556271,0.0001774172123987,1.0,-1.2636264529637162e-05,24.14157942336169,10,6.449999999999999,0,20.611581366720863,9
subject-03,1,223,1.39984488487244,airplane,keyboard,180,180_keyboard_10_n03085013_25675.png,False,3.018520444142007,0.7784532308578491,0.2,-4.647520086610933,25.849192142486572,10,1.0572150072150068,8,43.36439693015554,6
subject-03,1,224,0.521624088287354,boat,truck,180,180_truck_10_n04467665_23173.png,False,-1.562799184070555,2.200204849243164,0.0714285714285714,-4.831686217752105,28.099032044410706,10,0.1824841824841822,3,47.92135780474539,6
subject-03,1,225,0.895397186279297,dog,bicycle,90,90_bicycle_10_n03792782_12561.png,False,0.3870225885255612,0.9645727872848512,0.3333333333333333,-3.2351820741742916,27.106834650039673,10,1.3733516483516481,10,35.47912553503209,6
subject-03,1,226,0.727085113525391,cat,knife,180,180_knife_10_n03041632_2973.png,False,-0.4909928326201888,1.85339879989624,0.5,-1.168000636400288,27.636937022209167,10,3.4615440115440115,8,33.36366262007104,10
subject-03,1,227,0.981121778488159,bear,bear,150,150_bear_10_n02134418_1642.png,True,0.8342128149858011,0.667870819568634,0.5,-3.7241957439653466,26.25175005197525,10,1.487301587301587,10,36.36576385443889,6
subject-03,1,228,1.05128717422485,bicycle,elephant,90,90_elephant_10_n02504013_8856.png,False,1.2002370607788246,0.1617398262023925,1.0,-0.02904864927917219,26.986606121063232,10,4.135353535353535,8,30.30446316965674,10
subject-03,1,229,0.618636131286621,bird,cat,150,150_cat_10_n02125311_11409.png,False,-1.0567269315188776,1.6942763328552246,0.2,-3.0614507088087626,27.734764218330383,10,2.6789682539682538,6,32.470753072791965,0
subject-03,1,230,0.800888776779175,car,oven,150,150_oven_10_n04111531_5643.png,False,-0.10598922941094427,1.5641220808029177,0.0625,-5.609478465339509,26.7581285238266,10,0.0,0,65.97021290972137,6
subject-03,1,231,0.862208127975464,bird,bird,30,30_bird_10_n02056570_4808.png,True,0.21388881073246155,1.3516250848770142,1.0,-0.4825398229545837,27.17665994167328,10,1.8730158730158728,10,34.60307897422144,10
subject-03,1,232,0.890294075012207,boat,dog,150,150_dog_10_n02110063_5687.png,False,0.360401738844274,2.088501214981079,0.0666666666666666,-4.796426135848717,27.484631538391113,10,0.32104284604284583,8,46.193711233117845,6
subject-03,1,233,0.788129091262817,airplane,airplane,30,30_airplane_10_n02690373_11799.png,True,-0.1725513034738839,0.0004073174786753,1.0,-3.141214115277095e-05,24.181695917446632,10,5.783333333333333,8,22.349767129536207,9
subject-03,1,234,1.37372303009033,car,car,0,0_car_10_n03100240_2108.png,True,2.882253384076999,0.9273138046264648,1.0,-0.43077910140246456,26.75644612312317,10,2.338492063492063,9,42.16168101997729,10
subject-03,1,235,1.1116418838501,airplane,airplane,120,120_airplane_10_n02690373_13610.png,True,1.5150829593687918,0.0350414589047431,0.2,-7.530741622611459,25.436522252857685,10,3.1,0,34.14127564634298,6
subject-03,1,236,0.797269821166992,car,car,30,30_car_10_n02814533_40344.png,True,-0.12486784449748413,0.9797215461730956,0.3333333333333333,-3.1655756632352943,26.400180339813232,10,0.9935286935286931,9,46.67542659682733,6
subject-03,1,237,0.723044157028198,car,car,0,0_car_10_n03100240_4343.png,True,-0.5120728541698145,0.0115232858806848,1.0,-0.0014855565710899384,24.803233304992318,10,3.514224664224664,8,40.12082213722449,6
subject-03,1,238,0.777024030685425,boat,bottle,150,150_bottle_10_n03937543_793.png,False,-0.2304818742295794,0.1839544177055359,0.1666666666666666,-5.983564342841137,25.242078959941864,10,4.133333333333333,1,29.341260964159048,3
subject-03,1,239,0.785155057907104,chair,oven,150,150_oven_10_n04111531_4900.png,False,-0.1880656222425431,1.658806085586548,0.0625,-5.931632620032529,27.090399980545044,10,0.008333333333333193,8,65.84280447049566,7
subject-03,1,240,0.648710012435913,bottle,boat,180,180_boat_10_n03662601_15915.png,False,-0.8998437621137284,2.044731616973877,0.0714285714285714,-4.425734136401843,27.59348428249359,10,1.0706709956709954,0,37.71241970970482,6
subject-03,1,241,0.754083871841431,truck,elephant,150,150_elephant_10_n02504013_7305.png,False,-0.35015132454886666,1.7486414909362793,0.1666666666666666,-3.7071697503797236,27.180588364601135,10,1.062301587301587,2,38.728581856103226,6
subject-03,1,242,0.812373876571655,elephant,elephant,60,60_elephant_10_n02504458_3614.png,True,-0.046076149106006416,0.0010569768492132,1.0,-8.356920378384932e-05,26.81286818557419,10,5.248484848484848,6,30.59636737845656,10
subject-03,1,243,0.831680059432983,cat,cat,0,0_cat_10_n02123159_6206.png,True,0.054636330981446456,0.0014567502075806,1.0,-0.00012458146752934035,23.7496733792359,9,5.526190476190476,6,25.48937448183786,9
subject-03,1,244,0.821706056594849,car,oven,180,180_oven_10_n04111531_8330.png,False,0.0026060270398066653,0.5194932222366333,0.0714285714285714,-6.5708997293133296,25.262081146240234,10,0.01726190476190459,10,67.04925029247057,6
subject-03,1,245,1.12952518463135,bottle,oven,0,0_oven_10_n04111531_6428.png,False,1.6083728441050067,0.0060411118902266,1.0,-0.0007083540034012758,25.288679900113493,10,2.0636904761904757,9,53.69558975588062,6
subject-03,1,246,1.06340289115906,bicycle,bird,180,180_bird_10_n02028035_14461.png,False,1.2634398134537739,2.035999298095703,0.0833333333333333,-4.303427230821969,27.862471103668213,10,0.5377705627705626,0,40.39691298369271,6
subject-03,1,247,0.835134983062744,boat,cat,180,180_cat_10_n02123394_6362.png,False,0.07265925813205203,1.854820966720581,0.125,-3.6647542002407714,27.602760076522827,10,2.1416666666666666,6,34.124715775510325,0
subject-03,1,248,0.840945959091187,bear,knife,180,180_knife_10_n03041632_24277.png,False,0.10297274950198573,1.9886016845703125,0.5,-1.7123841711065138,27.35278356075287,10,2.8770202020202023,9,34.07857447034729,6
subject-03,1,249,0.886773109436035,car,airplane,180,180_airplane_10_n02690373_1592.png,False,0.34203429780085903,1.73950457572937,0.2,-2.961034008512298,27.359861135482788,10,2.617857142857143,0,30.778994286455948,6
subject-03,1,250,0.636615037918091,clock,bear,120,120_bear_10_n02134084_825.png,False,-0.9629383100641878,0.9031861424446106,0.25,-3.9990554528816875,26.173421919345856,10,1.3396825396825391,4,36.75793002416433,6
subject-03,1,251,0.870207071304321,elephant,elephant,30,30_elephant_10_n02504458_4696.png,True,0.25561603493387797,0.0017751172417774,1.0,-0.00016088587768755806,26.274013848626055,10,4.267532467532467,7,32.411173744937216,10
subject-03,1,252,0.686052083969116,bear,oven,180,180_oven_10_n04111531_6695.png,False,-0.7050454085124471,1.1904124021530151,0.0909090909090909,-5.188192354148863,25.800492882728577,10,0.03674242424242409,10,66.67493912119082,6
subject-03,1,253,0.563816070556641,clock,clock,90,90_clock_10_n02708093_204.png,True,-1.3427008246658383,0.009897006675601,1.0,-0.0009907025474013812,23.23312230221927,10,10.583333333333332,2,13.677225956365987,10
subject-03,1,254,1.02424311637878,clock,chair,90,90_chair_10_n04099969_36004.png,False,1.0591592435391453,0.0227539893239736,0.5,-6.363154109178662,25.174762999638915,10,0.7635281385281381,10,53.75353365231629,7
subject-03,1,255,1.01938199996948,cat,oven,30,30_oven_10_n04111531_6903.png,False,1.0338007823098632,1.6387083530426023,0.5,-1.5743793119974199,27.473008036613464,10,0.4947552447552447,10,58.28519082415413,6
subject-03,1,256,1.1052520275116,bird,bear,60,60_bear_10_n02134418_5807.png,False,1.481749685573797,1.682063102722168,0.2,-3.621413278646999,27.76750910282135,10,1.3202380952380945,6,35.4636107743709,6
subject-03,1,257,0.779065847396851,truck,truck,0,0_truck_10_n03796401_4017.png,True,-0.21983054939914753,0.659920334815979,1.0,-0.21898159786852295,26.53000509738922,10,1.730311355311355,10,41.56412424426273,10
subject-03,1,258,0.707195043563843,bottle,bottle,0,0_bottle_10_n04560804_2165.png,True,-0.5947512135144772,0.188342809677124,1.0,-0.03466664175624469,26.473188161849976,10,6.0242424242424235,10,21.792416250321526,10
subject-03,1,259,0.902743101119995,car,oven,150,150_oven_10_n04111531_7965.png,False,0.4253432295052892,1.064182996749878,0.0625,-7.000909699222534,26.49704682826996,10,0.0,0,66.86718717137043,6
subject-03,1,260,1.30856513977051,boat,boat,30,30_boat_10_n04273569_15583.png,True,2.5423512512467936,0.8780673742294312,1.0,-0.6684424959212165,26.68092954158783,10,2.590909090909091,10,31.18618789536948,10
subject-03,1,261,0.692466974258423,bicycle,bicycle,150,150_bicycle_10_n02835271_3529.png,True,-0.671581542808619,1.3410680294036863,0.0833333333333333,-4.704684981689324,27.072479128837585,10,0.9818181818181816,3,39.09746700987675,6
subject-03,1,262,0.668391942977905,bear,truck,180,180_truck_10_n03417042_6780.png,False,-0.7971711596614035,2.1215577125549316,0.0625,-5.560506878016683,27.649644374847412,10,0.12184065934065898,3,51.670396283945024,6
subject-03,1,263,1.29402303695679,cat,cat,30,30_cat_10_n02123597_4442.png,True,2.4664910332753713,0.0469769015908241,1.0,-0.006577559275489423,26.10465583950281,10,5.250793650793651,6,29.581253594558977,10
subject-03,1,264,1.0076789855957,knife,knife,30,30_knife_10_n03041632_15444.png,True,0.9727509305318913,1.6739050149917605,1.0,-0.9049827007417122,27.57666540145874,10,1.5957431457431455,10,36.185171024268264,10
subject-03,1,265,0.675734043121338,clock,knife,180,180_knife_10_n03041632_44230.png,False,-0.7588704184011129,2.1548984050750732,0.5,-1.351377447375092,28.886589527130127,10,2.915151515151515,8,32.45363322628222,10
subject-03,1,266,0.557583808898926,cat,clock,180,180_clock_10_n02708093_2721.png,False,-1.37521199130146,0.0444583818316459,1.0,-0.005441902444005415,24.494611613452435,10,9.75,2,14.886664182898842,10
subject-03,1,267,0.703752040863037,bicycle,bicycle,30,30_bicycle_10_n03792782_4277.png,True,-0.6127119540418318,0.0105161201208829,1.0,-0.0010656429933501178,25.91693909280002,10,3.041341991341991,9,30.326839762520578,10
subject-03,1,268,0.545026779174805,bear,bicycle,180,180_bicycle_10_n03792782_34197.png,False,-1.4407168927691292,2.3878698348999023,0.1666666666666666,-2.9836028129268533,28.698925495147705,10,1.1936868686868682,3,35.01625516570435,6
subject-03,1,269,0.818964004516602,cat,elephant,90,90_elephant_10_n02504013_3567.png,False,-0.011698140040386995,0.95942223072052,1.0,-0.6962740361656318,27.468957662582397,10,3.1825757575757576,9,32.5458788952992,10
subject-03,1,270,0.914618968963623,boat,boat,180,180_boat_10_n03344393_2969.png,True,0.4872947873203976,1.2087751626968384,0.0666666666666666,-5.4732949702568,26.807949900627136,10,1.3391233766233765,0,38.244064841818634,6
subject-03,1,271,0.796437978744507,bear,bear,60,60_bear_10_n02132136_686.png,True,-0.12920722706793694,1.2060132026672363,0.5,-2.958510435068255,27.508403062820435,10,1.6035714285714282,10,34.015907354122035,0
subject-03,1,272,0.636380910873413,car,elephant,150,150_elephant_10_n02504013_6659.png,False,-0.964159655344839,2.117722511291504,0.1111111111111111,-3.569659218137404,28.008388996124268,10,1.2290404040404037,2,37.624423815347136,6
subject-03,1,273,0.87447190284729,truck,truck,90,90_truck_10_n03796401_27268.png,True,0.27786392126815623,0.1607023179531097,0.125,-7.289681571314819,24.47879073023796,10,0.4097735597735596,6,50.12857667462903,6
subject-03,1,274,0.896000146865845,elephant,elephant,30,30_elephant_10_n02504458_9835.png,True,0.39016798792959717,0.0019546437542885,1.0,-0.00017412032545288444,26.40828654053621,10,5.358333333333333,6,30.33522734815537,10
subject-03,1,275,0.500190019607544,clock,clock,60,60_clock_10_n04548280_4709.png,True,-1.6746119764083143,0.000542435562238,1.0,-4.19029431932723e-05,23.932808015262708,10,9.75,2,15.131082940746841,10
subject-03,1,276,0.635879993438721,cat,cat,60,60_cat_10_n02123597_14647.png,True,-0.9667727372538437,0.002740554511547,1.0,-0.0002446473858896105,25.97827487438917,10,5.5023809523809515,6,26.812644537541278,10
subject-03,1,277,0.791521072387695,chair,chair,30,30_chair_10_n02791124_1292.png,True,-0.15485672169404532,0.0011697299778461,1.0,-9.352406089123527e-05,24.946302343159914,10,1.4200299700299697,10,45.585517948670734,10
subject-03,1,278,0.717222929000854,keyboard,keyboard,30,30_keyboard_10_n03085013_19471.png,True,-0.5424398260357424,0.7126193046569824,1.0,-0.19620731609477005,24.815051317214966,10,3.1197802197802194,9,35.61828638720665,6
subject-03,1,279,0.799037933349609,bicycle,knife,120,120_knife_10_n03041632_102828.png,False,-0.1156443245368969,1.7266194820404053,0.5,-1.1956788960004956,27.505748510360718,10,2.8948773448773446,8,32.590329981213735,10
subject-03,1,280,1.06313991546631,bear,bird,120,120_bird_10_n01798484_2289.png,False,1.262067976544851,1.7530840635299685,0.1111111111111111,-4.277352724512002,28.507193207740784,10,0.540151515151515,0,39.675244697157694,6
subject-03,1,281,1.50015807151794,bird,car,180,180_car_10_n02814533_8490.png,False,3.5418134164043114,2.2338433265686035,0.1,-3.56734620766331,28.07840132713318,10,0.23608613608613577,7,48.55403095369432,6
subject-03,1,282,1.05648183822632,truck,car,60,60_car_10_n03100240_7753.png,False,1.2273355037267055,1.499773383140564,0.1666666666666666,-3.605899840083734,27.25786805152893,10,0.4236263736263731,7,48.531680657299404,6
subject-03,1,283,0.578088998794556,clock,chair,150,150_chair_10_n03376595_10700.png,False,-1.26824478064742,1.7997539043426514,0.0769230769230769,-4.432619361925159,27.304372310638428,10,0.08479853479853416,9,55.83714758573417,6
subject-03,1,284,0.686434030532837,boat,bird,180,180_bird_10_n01796340_5016.png,False,-0.7030529491034835,2.1941747665405273,0.3333333333333333,-2.37167519502705,28.399877548217773,10,1.0274170274170271,10,36.0224541428047,6
subject-03,1,285,0.775909900665283,bear,elephant,30,30_elephant_10_n02504013_4386.png,False,-0.23629383603861986,0.3680939376354217,1.0,-0.07853170481086542,26.30946585536003,10,4.333333333333333,8,31.13401308017388,10
subject-03,1,286,1.00165700912476,chair,chair,90,90_chair_10_n02791124_15407.png,True,0.9413367359304561,1.2110967636108398,0.5,-1.2727901725655184,26.116532564163208,10,0.6058913308913304,10,49.42853982105605,10
subject-03,1,287,1.1257529258728,knife,knife,60,60_knife_10_n03041632_15299.png,True,1.5886945090434348,0.4255226552486419,0.2,-5.716072896087876,26.262107104063034,10,1.1718975468975465,10,39.358410889122766,6
subject-03,1,288,0.873295068740845,clock,cat,180,180_cat_10_n02125311_11440.png,False,0.271724857820819,1.83283531665802,0.3333333333333333,-2.9074470108188724,27.285356760025024,10,2.2884920634920634,6,33.46238379238503,0
subject-03,1,289,0.933072090148926,keyboard,keyboard,30,30_keyboard_10_n04505470_494.png,True,0.5835571926480114,0.0020667887292802,1.0,-0.0001914684479320099,22.32943326001987,9,3.226165501165501,9,33.94707128180697,9
subject-03,1,290,0.876883983612061,clock,truck,120,120_truck_10_n03796401_8254.png,False,0.2904467626167652,1.1561386585235596,0.2,-4.3525905925501975,26.736398935317993,10,0.3556943056943055,10,47.559189581390754,6
subject-03,1,291,0.777006149291992,bottle,bottle,90,90_bottle_10_n03983396_12757.png,True,-0.2305751541644582,0.0123582351952791,1.0,-0.00128793172739827,25.85036556608975,10,5.366666666666666,10,20.83026528519652,10
subject-03,1,292,0.936944961547852,car,car,60,60_car_10_n03100240_8107.png,True,0.6037603828097964,0.5206724405288696,0.5,-2.848049598388116,26.675395369529724,10,1.6097985347985344,9,47.62538873075216,6
subject-03,1,293,0.520550012588501,boat,bear,150,150_bear_10_n02133161_4820.png,False,-1.5684021988254722,1.6774556636810305,0.2,-3.1036654299906368,27.699751615524292,10,1.2047619047619043,5,35.08808028765485,0
subject-03,1,294,0.730520009994507,keyboard,keyboard,120,120_keyboard_10_n04505470_2909.png,True,-0.4730743789966478,0.0854794085025787,0.3333333333333333,-6.013748632294603,24.802094370126724,10,1.3071539571539568,8,44.08638291160194,6
subject-03,1,295,0.804164171218872,knife,knife,0,0_knife_10_n03041632_42526.png,True,-0.08890283280650217,1.1137081384658811,1.0,-0.5089358174369917,27.000880360603333,10,2.043362193362193,10,37.33002369081606,10
subject-03,1,296,0.881828784942627,bear,bear,60,60_bear_10_n02134418_2185.png,True,0.3162417739412763,1.8708012104034424,0.1111111111111111,-4.644276092284936,27.87118172645569,10,1.0650793650793646,4,37.32131770095605,6
subject-03,1,297,0.770004987716675,clock,clock,30,30_clock_10_n03196217_2536.png,True,-0.2670973579997662,0.0218679904937744,1.0,-0.0025134055738828265,23.585864663124084,10,10.75,2,13.943105209736768,10
subject-03,1,298,0.917324066162109,bicycle,bicycle,0,0_bicycle_10_n03792782_11824.png,True,0.501406175868512,0.0671046078205108,1.0,-0.009299529415252377,24.691697984933853,10,3.242857142857143,9,31.170097136288625,9
subject-03,1,299,0.673233985900879,bear,chair,180,180_chair_10_n04099969_19484.png,False,-0.771912197029312,0.7076079249382019,0.0909090909090909,-5.352534315960592,26.313380777835846,10,0.08852813852813786,10,56.345604082805885,6
subject-03,1,300,1.05310297012329,boat,dog,180,180_dog_10_n02091032_6523.png,False,1.2097093272324293,2.2691917419433594,0.2,-2.4939166636957744,28.233344435691833,10,0.6996753246753245,9,39.725446978574865,6
subject-03,1,301,0.941255807876587,car,bicycle,120,120_bicycle_10_n02835271_9669.png,False,0.62624830950982,0.5212247967720032,0.2,-5.086331443951476,26.861376583576202,10,1.1734848484848486,3,36.9353901502772,6
subject-03,1,302,0.870735883712769,knife,knife,60,60_knife_10_n03041632_1671.png,True,0.2583746335412962,0.0711385682225227,0.5,-4.523259852110459,24.95501298457384,10,2.272655122655123,7,38.75367410264154,6
subject-03,1,303,0.896420001983643,bottle,bottle,0,0_bottle_10_n04579145_5621.png,True,0.39235820080049844,0.0096985539421439,1.0,-0.0009621240317311456,24.997279330156744,10,6.333333333333333,9,20.481801760625935,10
subject-03,1,304,0.934379816055298,knife,knife,0,0_knife_10_n03041632_33424.png,True,0.5903790652186452,1.1426399946212769,0.25,-3.9084745658099647,26.76254689693451,10,1.3996753246753246,7,39.23148658643932,6
subject-03,1,305,1.3744421005249,elephant,elephant,60,60_elephant_10_n02504458_2103.png,True,2.8860044811914967,0.5388619899749756,1.0,-0.1094486263504587,26.408974647521973,10,3.658333333333333,9,31.925511069167683,10
subject-03,1,306,0.874083995819092,bicycle,bicycle,90,90_bicycle_10_n03792782_17503.png,True,0.27584036854756994,0.1687758713960647,1.0,-0.03276219843851579,26.14530022442341,10,1.8790043290043288,10,33.297074746512884,10
subject-03,1,307,0.731642007827759,bear,clock,120,120_clock_10_n02708093_1539.png,False,-0.4672213740162634,1.3386821746826172,1.0,-0.43137101086246293,26.719401836395264,10,10.75,2,16.402370521283615,10
subject-03,1,308,0.985733985900879,dog,dog,0,0_dog_10_n02101388_1383.png,True,0.8582728195216135,0.5667915940284729,1.0,-0.1226564549409698,26.298483788967133,10,1.894155844155844,10,37.265723905687906,10
subject-03,1,309,0.857777118682861,boat,keyboard,150,150_keyboard_10_n03085013_3148.png,False,0.19077404287006378,0.0502315536141395,0.5,-6.14979326347497,23.587716795504093,10,1.827355977355977,7,43.784176194362246,6
subject-03,1,310,0.933222770690918,bottle,bottle,90,90_bottle_10_n04579145_4594.png,True,0.5843432315659028,0.9639378190040588,0.5,-1.9879350558376077,26.522232472896576,10,5.035353535353535,1,23.07330831788793,10
subject-03,1,311,0.914911031723022,knife,elephant,180,180_elephant_10_n02504458_4395.png,False,0.48881835959004466,2.0828537940979004,0.2,-2.8372500205878324,27.851757526397705,10,1.2337662337662334,2,37.41859850832042,6
subject-03,1,312,0.95878791809082,boat,airplane,0,0_airplane_10_n02690373_4119.png,False,0.7177061763250584,0.2575319707393646,1.0,-0.045078639543017905,25.28930315375328,10,5.366666666666667,0,24.708110579520888,10
subject-03,1,313,0.760463953018188,airplane,airplane,120,120_airplane_10_n02690373_10395.png,True,-0.3168690437849373,0.1030918285250663,0.5,-4.38169847554753,25.928524248301983,10,3.433333333333333,0,30.296752433821446,6
subject-03,1,314,0.694529056549072,airplane,airplane,120,120_airplane_10_n02690373_8446.png,True,-0.6608245007186634,1.198966145515442,0.5,-2.7089401441532908,27.326476097106934,10,3.8273809523809517,0,28.94076828204322,6
subject-03,1,315,0.918583154678345,bear,dog,120,120_dog_10_n02092002_9876.png,False,0.5079743270162852,0.2243920564651489,0.0909090909090909,-6.935371044622976,25.74256718158722,10,0.513239538239538,8,45.51439801331033,6
subject-03,1,316,0.902243137359619,boat,elephant,180,180_elephant_10_n02504458_1929.png,False,0.42273512252614237,1.4770435094833374,0.1428571428571428,-4.005799452991372,26.892333388328552,10,0.9301587301587299,2,38.84417035884252,6
subject-03,1,317,,na,airplane,180,180_airplane_10_n02690373_6144.png,False,,2.2768306732177734,0.1428571428571428,-2.8597402124716598,28.44248938560486,10,3.54563492063492,0,29.116368494240678,6
subject-03,1,318,0.945773839950562,airplane,airplane,150,150_airplane_10_n02690373_8252.png,True,0.6498170397219495,2.264652967453003,0.1666666666666666,-2.604597340025849,28.709272265434265,10,2.3345238095238097,0,28.98709274776757,6
subject-03,1,319,0.747564077377319,car,car,120,120_car_10_n04285008_3268.png,True,-0.3841624325373052,1.664918303489685,0.2,-3.5263812933252456,27.21878445148468,10,0.4880702630702627,7,48.16195725900617,6
subject-03,1,320,0.957350015640259,airplane,bear,180,180_bear_10_n02132136_110.png,False,0.7102052258285261,0.0375667586922645,0.3333333333333333,-7.499981280464033,26.581693030893803,10,1.8940476190476185,6,37.68678072378538,0
subject-03,1,321,0.672854900360107,bear,elephant,120,120_elephant_10_n02504013_25336.png,False,-0.7738897316486966,1.7961153984069824,0.1428571428571428,-3.48441229581107,27.619572043418884,10,1.6032106782106779,2,37.14035958167206,6
subject-03,1,322,0.872335910797119,bicycle,cat,120,120_cat_10_n02123597_5217.png,False,0.2667213221140421,1.0304454565048218,0.5,-3.265599266655351,27.02261185646057,10,3.2805555555555554,9,32.94211162924716,0
subject-03,1,323,0.742236137390137,bird,bird,30,30_bird_10_n01796340_2973.png,True,-0.41195612193310216,0.0129641331732273,1.0,-0.0014251488199451844,26.387862090021372,10,2.3408730158730156,10,30.842410148717168,10
subject-03,1,324,0.686317920684814,oven,oven,0,0_oven_10_n04111531_3202.png,True,-0.7036586468139511,0.0198968760669231,1.0,-0.002224951760190866,25.78469444438815,10,2.0081349206349204,9,54.118033581680415,6
subject-03,1,325,0.688052892684937,boat,bird,150,150_bird_10_n01582220_1150.png,False,-0.6946080056659963,2.001526355743408,0.1666666666666666,-3.099032717739724,28.327573776245117,10,0.9781746031746027,0,35.83418350283422,6
subject-03,1,326,0.91581916809082,cat,chair,180,180_chair_10_n03376595_208.png,False,0.4935557365493062,2.0982604026794434,0.1666666666666666,-3.2975684823337494,27.522419214248657,10,0.17930402930402867,10,52.07130543217909,7
subject-03,1,327,0.7655189037323,clock,truck,150,150_truck_10_n03796401_7261.png,False,-0.29049942806158124,2.294194459915161,0.0666666666666666,-4.998745261483294,28.185014247894287,10,0.16032301032301,3,48.949661643239196,6
subject-03,1,328,0.965496063232422,clock,clock,60,60_clock_10_n04548280_1304.png,True,0.7526998329608615,0.2667115330696106,1.0,-0.0443713699738114,25.343909561634064,10,9.25,4,16.952007271806057,10
subject-03,1,329,0.915542840957642,bear,car,150,150_car_10_n02814533_39485.png,False,0.49211425062235215,1.9396753311157229,0.1111111111111111,-3.8584059915295685,27.733224630355835,10,0.36019536019535975,7,49.47901582862587,6
subject-03,1,330,0.881049871444702,bird,keyboard,120,120_keyboard_10_n04505470_4724.png,False,0.3121784999780556,1.8476855754852295,0.2,-3.0291308351098643,27.14977741241455,10,1.4210428460428457,9,38.556658531402206,6
subject-03,1,331,0.798898935317993,cat,chair,180,180_chair_10_n04099969_9960.png,False,-0.11636942056400236,2.5321178436279297,0.0666666666666666,-4.148012087578348,29.32231068611145,4,0.05952380952380876,0,54.08272061081695,6
subject-03,1,332,0.844696998596191,bottle,bottle,30,30_bottle_10_n04579145_3769.png,True,0.12254039237413969,0.0379259809851646,1.0,-0.004833140148671572,25.561692379415035,10,8.083333333333332,1,18.41544664281657,10
subject-03,1,333,0.614421129226685,oven,oven,120,120_oven_10_n04111531_5888.png,True,-1.078714877767962,0.0641871243715286,0.1666666666666666,-7.233032803843907,23.779541805386543,10,0.137179487179487,10,65.4309711112962,6
subject-03,1,334,0.508210897445679,clock,knife,180,180_knife_10_n03041632_20697.png,False,-1.632770328820112,1.7292715311050415,0.3333333333333333,-2.575694590108663,27.906285643577576,10,1.6330086580086578,8,35.844244080394326,6
subject-03,1,335,0.772066831588745,cat,cat,60,60_cat_10_n02125311_17002.png,True,-0.25634155964227556,0.00845184084028,1.0,-0.0008753792179160093,26.07515539880842,10,4.9412698412698415,6,29.288576214717597,10
subject-03,1,336,0.748265027999878,clock,chair,150,150_chair_10_n02791124_7987.png,False,-0.3805058590901443,0.0281228180974721,0.1428571428571428,-8.448119318557652,24.596850072965026,10,0.14597069597069526,10,59.09733466875247,6
subject-03,1,337,0.851659059524536,clock,clock,120,120_clock_10_n02708093_118.png,True,0.15885862408518847,1.3294320106506348,1.0,-0.41726606105551156,26.72780168056488,10,9.083333333333334,10,17.380951151398996,10
subject-03,1,338,0.783861875534058,cat,knife,90,90_knife_10_n03041632_32896.png,False,-0.19481162713280717,1.8023359775543213,1.0,-0.7841919231893487,27.755683422088623,10,3.4024531024531024,8,33.453493429328496,10
subject-03,1,339,0.701401948928833,chair,chair,0,0_chair_10_n02791124_1693.png,True,-0.6249714249495326,7.433021528413519e-05,1.0,-4.887592815844339e-06,25.802511635665724,10,2.2511904761904757,9,43.954851575163495,10
subject-03,1,340,1.2392840385437,airplane,bottle,180,180_bottle_10_n03983396_5532.png,False,2.1809400091664943,2.259347438812256,0.1111111111111111,-3.2794591249885854,27.671053051948547,10,4.465811965811964,1,26.71353659011789,4
subject-03,1,341,0.823069095611572,elephant,elephant,0,0_elephant_10_n02504458_4316.png,True,0.009716445542322722,0.0010241079144179,1.0,-8.744383698648618e-05,25.763133506756276,10,5.1909090909090905,6,30.986379774774115,6
subject-03,1,342,0.91867995262146,boat,bear,90,90_bear_10_n02133161_8856.png,False,0.5084792823970821,2.004353284835815,0.5,-1.6513918627798558,28.93732762336731,10,2.253571428571428,10,31.336590541618996,10
subject-03,1,343,0.760684967041016,cat,cat,90,90_cat_10_n02124075_81.png,True,-0.3157161037898598,0.213006317615509,1.0,-0.04373620749721763,26.345663726329803,10,5.03452380952381,6,28.445052943733607,10
subject-03,1,344,0.668500185012817,oven,oven,180,180_oven_10_n04111531_10336.png,True,-0.796606505122285,1.6331453323364258,0.0625,-5.317027544045166,26.87250542640686,10,0.0,0,66.00486988590585,6
subject-03,1,345,0.73829197883606,clock,knife,150,150_knife_10_n03041632_27879.png,False,-0.4325311881019263,2.3601226806640625,0.3333333333333333,-2.017535105880993,28.688207864761353,10,3.355988455988456,8,33.30602714214072,6
subject-03,1,346,0.632348775863647,cat,dog,120,120_dog_10_n02111500_3041.png,False,-0.9851936587932579,1.854270577430725,0.0833333333333333,-4.667485503103816,28.103907465934753,10,0.5651875901875898,7,41.61427784165906,6
subject-03,1,347,1.06776213645935,elephant,elephant,60,60_elephant_10_n02504013_4229.png,True,1.2861802178441821,0.1274874359369278,1.0,-0.024531372674366225,26.101426973938942,10,2.6416666666666666,10,31.77168554193488,10
subject-03,1,348,1.08963990211487,bird,bird,30,30_bird_10_n01843383_13894.png,True,1.4003075962993539,0.0101409563794732,1.0,-0.001010749759780379,25.848387063480914,10,2.166269841269841,10,33.117487787439096,10
subject-03,1,349,,na,clock,150,150_clock_10_n04548280_3299.png,False,,1.2818255424499512,1.0,-0.32051579969535066,27.472513437271118,10,9.75,2,18.459559146369283,10
subject-03,1,350,1.04329395294189,clock,clock,0,0_clock_10_n03196217_5493.png,True,1.1585396861565618,0.0162213556468486,1.0,-0.0020043061121432174,23.517256807535887,10,10.0,2,14.695794369145034,10
subject-03,1,351,0.687199115753174,chair,chair,60,60_chair_10_n04099969_246.png,True,-0.6990618116232339,0.0187261179089546,1.0,-0.0020997499871558763,25.575650461018085,10,1.4328754578754574,10,44.396432478425,10
subject-03,1,352,0.932762145996094,knife,knife,60,60_knife_10_n03041632_8321.png,True,0.5819403404434855,1.8871099948883057,1.0,-1.0696090912228178,28.00126039981842,10,2.0191197691197686,10,36.413854804528725,10
subject-03,1,353,0.946686983108521,dog,dog,90,90_dog_10_n02101388_11601.png,True,0.6545805350629759,1.8280773162841797,0.125,-3.5082444140201847,28.164162397384644,10,0.6425324675324673,6,40.291849329372894,6
subject-03,1,354,0.914574146270752,bottle,keyboard,60,60_keyboard_10_n03085013_30073.png,False,0.4870609656169738,0.0135659351944923,0.25,-8.136132445612292,23.600909389555454,10,1.4809523809523806,9,47.51471037869145,6
subject-03,1,355,0.778478145599365,elephant,elephant,120,120_elephant_10_n02504013_1908.png,True,-0.22289634992542515,2.0885257720947266,0.3333333333333333,-2.1607176138204673,28.187475442886353,10,2.1345238095238095,2,34.05742721186106,6
subject-03,1,356,0.626286029815674,cat,cat,30,30_cat_10_n02123045_13172.png,True,-1.0168205316462464,0.0723164230585098,1.0,-0.009938950007056744,26.160500302910805,10,5.633333333333333,6,27.303740958133655,10
subject-03,1,357,0.968057870864868,knife,knife,60,60_knife_10_n03041632_87380.png,True,0.7660637382974995,0.7236400246620178,0.5,-2.869603443425337,26.3948672413826,10,1.8123737373737372,7,36.79457511312877,6
subject-03,1,358,0.723835945129395,dog,dog,30,30_dog_10_n02109525_72594.png,True,-0.5079424186534799,0.0502767488360405,1.0,-0.006442272959494039,26.453637830913067,10,2.1774531024531023,10,35.6818017971953,10
subject-03,1,359,0.639600038528442,clock,clock,90,90_clock_10_n03196217_5827.png,True,-0.9473667796021411,0.0493378266692161,1.0,-0.005946039888422088,24.651019774377346,10,10.0,2,14.990261540523832,10
subject-03,1,360,0.767306804656982,boat,keyboard,180,180_keyboard_10_n04505470_4579.png,False,-0.28117267830640025,0.1770613491535186,0.3333333333333333,-5.078363483585019,24.517113596200943,10,1.246475746475746,8,43.474809799841154,6
subject-03,1,361,0.73526406288147,truck,truck,60,60_truck_10_n03417042_13055.png,True,-0.4483265904076806,1.086159110069275,0.3333333333333333,-2.894385809255271,26.45875597000122,10,0.5674103674103672,10,45.978967008405824,6
subject-03,1,362,0.731328010559082,bicycle,bicycle,120,120_bicycle_10_n02835271_4138.png,True,-0.4688593696726958,0.4670441150665283,0.1,-5.844079741549859,26.10904848575592,10,0.9699134199134197,3,40.089092087889014,6
subject-03,1,363,0.866737842559814,airplane,airplane,30,30_airplane_10_n02690373_190.png,True,0.23751848383537233,0.0053332680836319,1.0,-0.0005620509073208803,24.73317226115614,10,5.616666666666667,0,22.041497492031656,9
subject-03,1,364,0.738718032836914,oven,oven,30,30_oven_10_n04111531_21855.png,True,-0.4303086381869386,0.8530244827270508,0.3333333333333333,-2.818605965706234,27.16116201877594,10,0.43333333333333324,10,58.865869771777305,6
subject-03,1,365,0.546364784240723,clock,boat,150,150_boat_10_n03344393_5265.png,False,-1.4337370661754372,2.4780120849609375,0.25,-2.2739871526147346,29.092248678207397,4,2.9622766122766127,0,30.890970348864727,10
subject-03,1,366,0.67623496055603,airplane,chair,150,150_chair_10_n04099969_16178.png,False,-0.7562573364921078,2.2372446060180664,0.0909090909090909,-3.9022776254919727,28.612785577774048,10,0.07900432900432826,10,54.52485403352087,7
subject-03,1,367,0.98009991645813,dog,bear,90,90_bear_10_n02132136_8358.png,False,0.8288821776407275,0.9545763731002808,1.0,-0.5803967167507577,27.717470049858093,10,2.721428571428571,10,30.02918933671486,10
subject-03,1,368,0.613908052444458,cat,cat,60,60_cat_10_n02124075_13587.png,True,-1.0813913900326872,0.2909161448478699,1.0,-0.0616822170942454,26.256034314632416,10,5.067857142857143,6,27.119949909070424,10
subject-03,1,369,0.716121912002563,chair,chair,30,30_chair_10_n04099969_15882.png,True,-0.5481833825592044,0.0250904131680727,1.0,-0.003141205623427007,25.924057679250836,10,2.1539682539682534,9,45.02057356145656,10
subject-03,1,370,0.771568059921265,keyboard,keyboard,60,60_keyboard_10_n04505470_4479.png,True,-0.25894344795909496,0.6678420305252075,0.5,-0.9840505434876684,24.32366180419922,10,2.9106893106893104,9,35.21152546706407,6
subject-03,1,371,0.689481973648071,keyboard,keyboard,120,120_keyboard_10_n04505470_1157.png,True,-0.687153073270671,0.4276835024356842,0.3333333333333333,-4.372519123316824,25.42661014199257,10,1.304401154401154,5,40.176971075743026,6
subject-03,1,372,0.989104986190796,knife,oven,120,120_oven_10_n04111531_924.png,False,0.8758579528445303,1.6296501159667969,0.0769230769230769,-4.786445506056493,26.888457655906677,10,0.022756410256410092,10,64.75782051059237,6
subject-03,1,373,0.862825870513916,bear,bear,30,30_bear_10_n02133161_7032.png,True,0.2171113215493276,0.1616760939359665,1.0,-0.02784178405731963,25.99794428050518,10,2.027380952380952,10,32.45549833551531,10
subject-03,1,374,0.91482400894165,boat,chair,150,150_chair_10_n04429376_20628.png,False,0.4883643972403124,1.1020965576171875,0.1666666666666666,-4.197945704113671,26.1366548538208,10,0.20787545787545728,10,52.212102361491105,6
subject-03,1,375,1.14651203155518,cat,cat,0,0_cat_10_n02123597_13755.png,True,1.696986294772756,1.7917431592941284,0.2,-2.7834513259770732,27.30022394657135,10,3.2734126984126988,8,34.993976738279535,6
subject-03,1,376,0.620508193969727,bicycle,bicycle,0,0_bicycle_10_n02835271_22549.png,True,-1.0469611442035383,0.056707739830017,1.0,-0.00866556777350636,25.16256034374237,10,2.9615440115440115,9,31.978013689276505,10
subject-03,1,377,1.11859202384949,elephant,bear,180,180_bear_10_n02134084_1503.png,False,1.551339004456589,1.950351595878601,0.25,-3.02652931946506,28.149129509925842,10,1.3361111111111108,4,34.8629538439862,0
subject-03,1,378,0.911990165710449,boat,bear,120,120_bear_10_n02133161_2270.png,False,0.47358139316108666,2.139660596847534,0.3333333333333333,-2.5247064108672372,27.799609541893005,10,1.3190476190476186,10,36.018629965454444,6
subject-03,1,379,0.856218099594116,truck,truck,30,30_truck_10_n03796401_22643.png,True,0.18264127628129903,1.2256927490234375,1.0,-0.436533883253176,26.501586198806763,10,1.3419774669774667,10,43.62777024493477,10
subject-03,1,380,0.887953996658325,truck,truck,0,0_truck_10_n03796401_24543.png,True,0.3481945047001022,0.1417652368545532,1.0,-0.022073407063071485,25.814311623573303,10,2.495909645909646,9,39.85351443190427,10
subject-03,1,381,0.721498966217041,bicycle,truck,180,180_truck_10_n03417042_1149.png,False,-0.5201334842756076,0.0794210955500602,0.0625,-8.74875803267543,25.77634208649397,10,0.16689560439560414,5,53.946154134199915,6
subject-03,1,382,0.907446146011353,boat,dog,120,120_dog_10_n02086646_8144.png,False,0.44987709611027527,0.0259373113512992,0.0714285714285714,-9.833355218038418,25.200621835887432,10,0.5266594516594514,8,48.67882817326918,6
subject-03,1,383,0.757200002670288,bottle,bottle,0,0_bottle_10_n02823428_685.png,True,-0.3338957412310585,0.0241072103381156,1.0,-0.0028335026719380377,25.72804283350706,10,5.866666666666666,1,20.81288939864926,10
subject-03,1,384,0.83312201499939,car,chair,180,180_chair_10_n03376595_2809.png,False,0.06215842492989106,1.9069305658340456,0.0769230769230769,-4.704407354846712,27.45012068748474,10,0.07454212454212386,10,54.86456633406202,6
subject-03,1,385,0.713051795959473,car,car,90,90_car_10_n03100240_6010.png,True,-0.5641989255112619,1.4724687337875366,0.125,-4.171188705366095,27.06988000869751,10,0.3604700854700851,7,49.612995514460465,6
subject-03,1,386,0.676483869552612,bear,bear,0,0_bear_10_n02134084_42197.png,True,-0.7549588797986276,0.000807290780358,1.0,-6.693825639786059e-05,25.75478768895846,10,3.55,9,28.67006469594209,9
subject-03,1,387,0.844415187835693,boat,bicycle,150,150_bicycle_10_n03792782_5133.png,False,0.12107030060048671,2.050983190536499,0.1,-4.028994663577546,28.83104944229126,10,1.1686868686868686,3,35.327376734067954,6
subject-03,1,388,0.882189035415649,knife,knife,30,30_knife_10_n03041632_11327.png,True,0.3181210536959191,0.0080022867769002,1.0,-0.000782557476277151,25.152222638949752,10,3.469877344877345,9,32.415419295658,10
subject-03,1,389,0.793889999389648,car,airplane,180,180_airplane_10_n02690373_4691.png,False,-0.14249899592160786,2.248490333557129,0.0769230769230769,-3.8332889965506114,28.86874032020569,10,3.929700854700855,0,29.09259926374452,6
subject-03,1,390,0.957601070404053,cat,elephant,30,30_elephant_10_n02504458_6336.png,False,0.7115148761141921,0.5999530553817749,1.0,-0.16556041378902997,27.170095920562744,10,3.9675324675324672,8,31.121067767665522,10
subject-03,1,391,0.631764888763428,bicycle,bicycle,30,30_bicycle_10_n02835271_22143.png,True,-0.9882395596000882,0.0092516914010047,1.0,-0.0009756077390277477,25.22386012226343,10,3.2595238095238095,9,28.953618794877254,9
subject-03,1,392,0.73135781288147,elephant,elephant,30,30_elephant_10_n02504013_8308.png,True,-0.46870390311456717,0.0015909160720184,1.0,-0.00013274835458774604,26.427903362666257,10,4.644444444444444,6,31.7130328823527,10
subject-03,1,393,0.949137210845947,bicycle,car,180,180_car_10_n02814533_40459.png,False,0.6673623736059822,2.1352615356445312,0.0833333333333333,-4.034916928743413,28.028684377670288,10,0.1947052947052944,7,50.09493256023352,6
subject-03,1,394,0.924908876419067,bird,bird,120,120_bird_10_n02018207_6296.png,True,0.5409730367781911,1.2632503509521484,1.0,-0.5713528873764123,27.910686492919922,10,2.2440476190476186,10,32.686158226864805,10
subject-03,1,395,0.579153060913086,bear,bear,60,60_bear_10_n02134084_15118.png,True,-1.2626940026560374,0.0023903225082904,1.0,-0.00021340739803500511,26.479182777227834,10,2.6261904761904757,10,30.034847084405833,10
subject-03,1,396,0.624560117721558,boat,truck,150,150_truck_10_n03417042_10476.png,False,-1.025823910960525,1.8079020977020264,0.0666666666666666,-5.535178850372588,27.81919813156128,10,0.17222777222777189,3,48.892754796027496,6
subject-03,1,397,0.846447944641113,bicycle,bicycle,60,60_bicycle_10_n02835271_21185.png,True,0.13167436359724666,0.0069538601674139,1.0,-0.0006801414267038063,25.76521864021197,10,2.881818181818182,9,32.087948419710195,10
subject-03,1,398,0.592316150665283,clock,clock,30,30_clock_10_n02708093_51.png,True,-1.1940275332622885,0.1647533178329467,1.0,-0.026099245852045302,25.88899552822113,10,10.75,2,18.059649405116968,10
subject-03,1,399,0.743864059448242,chair,chair,30,30_chair_10_n02791124_4192.png,True,-0.4034639166619489,0.0226671919226646,1.0,-0.002688083653175279,26.297110460698605,10,2.1178571428571424,9,44.16405270554332,10
subject-03,1,400,0.773844003677368,bear,car,180,180_car_10_n02814533_66666.png,False,-0.24707077784801698,2.2970876693725586,0.0833333333333333,-4.130258396830565,28.448730945587158,10,0.2018981018981016,7,49.51421649004913,6
subject-03,1,401,0.591466903686523,boat,car,180,180_car_10_n02814533_39517.png,False,-1.1984577083026908,2.4196670055389404,0.1,-3.3612098545329063,28.63870942592621,4,0.2536075036075033,7,48.22465922949698,6
subject-03,1,402,0.471340894699097,clock,bottle,180,180_bottle_10_n03937543_4259.png,False,-1.8251060921406543,0.3910306394100189,0.25,-4.792074559770008,25.37032648921013,10,4.308333333333333,1,27.713473828333676,4
subject-03,1,403,0.719098091125488,bird,bird,60,60_bird_10_n01843383_10059.png,True,-0.53265787019836,1.9892988204956057,0.5,-2.2295659675725603,28.059159755706787,10,1.7257936507936504,9,34.091414441852,6
subject-03,1,404,0.658993005752563,boat,dog,150,150_dog_10_n02097209_821.png,False,-0.8462015808974205,0.2972522675991058,0.0833333333333333,-6.838270036659855,26.197725385427475,10,0.4310606060606059,6,45.58418102283009,6
subject-03,1,405,0.538762807846069,oven,keyboard,120,120_keyboard_10_n04505470_4535.png,False,-1.4733934758226013,1.2325379848480225,0.1428571428571428,-4.114884491317566,26.64271056652069,10,0.9508658008658006,5,41.46856163088465,6
subject-03,1,406,0.604732990264893,bicycle,chair,120,120_chair_10_n02791124_5823.png,False,-1.129253946484047,1.174954175949097,0.3333333333333333,-3.351569054963871,26.92497754096985,10,0.37259407259407196,10,52.64493936808453,7
subject-03,1,407,0.768531084060669,bottle,boat,30,30_boat_10_n02951358_12664.png,False,-0.27478611209852055,2.022044897079468,0.5,-1.5244860307570316,28.174258947372437,10,1.7339285714285713,10,31.673120223673354,10
subject-03,1,408,0.850330829620361,clock,truck,150,150_truck_10_n03417042_18705.png,False,0.15192979052256125,0.1402694135904312,0.0625,-8.260123132242061,25.83327580988407,10,0.1604853479853477,8,53.81363795588793,6
subject-03,1,409,0.801979780197144,airplane,clock,150,150_clock_10_n03196217_1153.png,False,-0.1002979096510119,0.2671244144439697,1.0,-0.04305720374414138,25.22141170501709,10,10.083333333333332,2,15.676631317365858,10
subject-03,1,410,0.907845020294189,bicycle,elephant,150,150_elephant_10_n02504458_6499.png,False,0.45195786052424897,2.001296281814575,0.1111111111111111,-3.3720299188114504,28.188358783721924,10,1.2742424242424242,2,36.257591585386315,6
subject-03,1,411,0.763579130172729,bear,bicycle,150,150_bicycle_10_n03792782_4544.png,False,-0.3006184353969869,0.3742979764938354,0.0714285714285714,-7.220723585757072,25.02211344242096,10,0.8673992673992671,3,44.96230825787511,6
subject-03,1,412,0.793445110321045,cat,cat,120,120_cat_10_n02123045_8336.png,True,-0.14481980070133216,1.1449089050292969,1.0,-0.35447269703468515,27.08840322494507,10,3.6456349206349206,9,29.580187495183935,10
subject-03,1,413,0.783231019973755,airplane,airplane,90,90_airplane_10_n02690373_5422.png,True,-0.19810254323525106,0.8617004156112671,1.0,-0.3600868397219696,26.489138007164,10,4.083333333333333,10,26.350527844772927,10
subject-03,1,414,0.746981859207153,bicycle,car,150,150_car_10_n03100240_16145.png,False,-0.38719962721688383,1.0715306997299194,0.125,-4.811917520492258,26.089749932289124,10,0.36664169164169125,7,50.537582585416594,6
subject-03,1,415,0.823315858840942,bicycle,bicycle,60,60_bicycle_10_n02835271_25519.png,True,0.011003708643617773,0.090163841843605,1.0,-0.015331915081143656,25.930105462670326,10,2.2265623265623264,10,33.49581805518936,10
subject-03,1,416,0.932764053344727,knife,bottle,0,0_bottle_10_n03983396_23471.png,False,0.5819502903032069,1.2437057495117188,0.3333333333333333,-2.6839193470467837,26.27967631816864,10,5.326923076923076,1,24.846141684652764,10
subject-03,1,417,0.686395883560181,bicycle,clock,180,180_clock_10_n04548280_9217.png,False,-0.7032519462978855,2.062170028686523,0.5,-1.597039158046433,27.948166608810425,10,7.95,2,19.925308321468293,10
subject-03,1,418,0.534337997436523,bear,car,180,180_car_10_n03100240_6750.png,False,-1.4964759066409068,2.38400936126709,0.1111111111111111,-3.171376166547731,28.36044478416443,10,0.31105006105006067,9,47.48448340199265,6
subject-03,1,419,0.7100989818573,car,elephant,180,180_elephant_10_n02504458_4564.png,False,-0.5796025520905345,1.8838586807250977,0.125,-3.580890604617641,27.634457111358643,10,1.1448773448773446,2,37.58339964741933,6
subject-03,1,420,1.02200412750244,knife,oven,0,0_oven_10_n04111531_1488.png,False,1.0474793519601582,1.3915603160858154,0.2,-2.9618934229632323,26.755261063575745,10,0.2178321678321678,10,61.90391557711807,6
subject-03,1,421,0.715631008148193,bear,bear,30,30_bear_10_n02134084_13394.png,True,-0.5507442277046798,0.0598495677113533,1.0,-0.0077453818156413504,26.555582351982594,10,2.4908730158730155,10,30.73317304456066,10
subject-03,1,422,0.665555953979492,keyboard,keyboard,30,30_keyboard_10_n03085013_2842.png,True,-0.8119653573328156,0.0004487275145947,1.0,-3.409443802038108e-05,25.82228293409571,10,3.4388278388278386,8,34.734027556457704,9
subject-03,1,423,0.813292026519775,bicycle,bicycle,180,180_bicycle_10_n02835271_4789.png,True,-0.04128653538321581,1.5716651678085327,0.0909090909090909,-4.527527933306428,26.55010712146759,10,1.033008658008658,3,39.355522107577706,6
subject-03,1,424,0.871331214904785,car,car,150,150_car_10_n04285008_8813.png,True,0.26148023350644806,2.021718740463257,0.1111111111111111,-3.5822950506808375,28.005840063095093,10,0.3351343101343098,7,48.235794886151425,6
subject-03,1,425,0.931272029876709,chair,truck,0,0_truck_10_n03417042_3389.png,False,0.5741670125371098,1.014082431793213,1.0,-0.41823336351357887,26.857926845550537,10,1.8026057276057275,10,41.17869543547232,10
subject-03,1,426,0.779109954833984,keyboard,keyboard,0,0_keyboard_10_n03085013_21967.png,True,-0.2196004588931229,0.102909579873085,1.0,-0.018620645981390918,24.616555348038673,10,3.767099567099567,8,35.39772317510245,6
subject-03,1,427,0.882729053497314,keyboard,elephant,180,180_elephant_10_n02504458_4572.png,False,0.32093810772918924,2.3082237243652344,0.1,-3.4240263933018835,28.550079345703125,10,1.1773559773559772,7,37.5624435521457,6
subject-03,1,428,0.786672115325928,car,car,60,60_car_10_n02814533_46401.png,True,-0.1801517525676178,0.8384827375411987,1.0,-0.5821215609943238,26.945067763328552,10,3.0876373626373623,8,42.6226070163761,6
subject-03,1,429,0.814424991607666,elephant,elephant,90,90_elephant_10_n02504458_3629.png,True,-0.03537631870943878,0.0041024894453585,1.0,-0.00040288933840308856,26.454389354679734,10,4.2004329004329,8,29.928618530543122,10
subject-03,1,430,0.75829005241394,boat,boat,90,90_boat_10_n04273569_27343.png,True,-0.32820939640098906,0.59967440366745,0.1111111111111111,-5.380848470922414,26.299289643764496,10,1.4950396825396823,0,38.08226760276753,6
subject-03,1,431,0.724390029907227,bird,oven,180,180_oven_10_n04111531_6958.png,False,-0.5050519844047735,1.523040533065796,0.0625,-6.631987894499274,27.213919281959534,10,0.0,0,67.40492258891663,6
subject-03,1,432,0.871641874313354,airplane,airplane,120,120_airplane_10_n02690373_3709.png,True,0.26310081690836734,0.4871905446052551,0.25,-4.462939238122105,26.24055725336075,10,2.9261904761904756,0,31.697889748324688,6
subject-03,1,433,0.895672082901001,oven,chair,90,90_chair_10_n04099969_18380.png,False,0.3884566120577286,0.04901709780097,0.25,-6.9578440772676124,25.124197628349066,10,0.3023199023199018,10,55.57741022187936,6
subject-03,1,434,0.733228206634521,bear,bear,0,0_bear_10_n02133161_1032.png,True,-0.4589468219264893,0.1547091603279113,1.0,-0.03225950596919106,26.172017633914948,10,2.890079365079365,10,30.638935111055215,10
subject-03,1,435,1.18335795402527,airplane,airplane,90,90_airplane_10_n02690373_3147.png,True,1.8891964411143176,1.2345337867736816,1.0,-0.3857651182650199,27.2255699634552,10,7.166666666666666,6,21.420460461690208,10
subject-03,1,436,1.37708711624146,bird,bird,0,0_bird_10_n01616318_1831.png,True,2.899802449158466,0.692841112613678,0.3333333333333333,-4.0923593004011005,26.046904861927032,10,0.9388278388278384,10,39.76541076401402,6
subject-03,1,437,0.702798843383789,car,car,30,30_car_10_n04285008_14128.png,True,-0.6176843964369815,0.1122334077954292,1.0,-0.023318961613787513,25.570241577923298,10,3.1126123876123875,8,40.832620933212,6
subject-03,1,438,1.07462310791016,clock,clock,60,60_clock_10_n03196217_599.png,True,1.321971106990084,0.0074180583469569,1.0,-0.0007270832994028897,24.90925123495981,10,10.583333333333332,2,14.869167857403795,10
subject-03,1,439,0.822488784790039,airplane,airplane,60,60_airplane_10_n02690373_10232.png,True,0.006689200722464786,0.0002889752504415,1.0,-2.110026685944232e-05,25.31083346606465,10,5.95,0,22.873434574241255,9
subject-03,1,440,0.804245948791504,boat,dog,120,120_dog_10_n02105855_17066.png,False,-0.08847623257099918,0.0724794045090675,0.0714285714285714,-8.479876544265885,25.861964739859104,10,0.4822871572871572,8,46.37336391939114,6
subject-03,1,441,0.870036840438843,chair,chair,30,30_chair_10_n04099969_52474.png,True,0.25472800995385664,0.3810312747955322,0.5,-2.216407557521498,25.163144826889038,10,0.8464285714285711,10,46.88128964759518,7
subject-03,1,442,0.8818359375,keyboard,keyboard,90,90_keyboard_10_n03085013_24192.png,True,0.31627908591522685,0.0023239098954945,1.0,-0.00021614980064070289,25.131643816130236,10,2.760364635364635,9,35.39017417309811,10
subject-03,1,443,0.887617111206055,truck,truck,90,90_truck_10_n03417042_1978.png,True,0.3464371107270319,0.0470563918352127,0.125,-8.133641170038853,25.150554969906807,10,0.2720751470751468,10,52.53680735692363,6
subject-03,1,444,0.973449945449829,bicycle,bicycle,0,0_bicycle_10_n02835271_8417.png,True,0.7941919917263903,0.0016271056374534,1.0,-0.00013894807980879058,24.660881179734133,9,4.701190476190476,7,28.212044090963037,9
subject-03,1,445,0.647726058959961,boat,boat,30,30_boat_10_n04612504_8407.png,True,-0.9049766459968644,0.0026508795563131,1.0,-0.00022992154483153905,25.954851173097268,10,3.7337662337662336,9,26.0923495579094,10
subject-03,1,446,0.923352003097534,keyboard,oven,30,30_oven_10_n04111531_3902.png,False,0.5328514637816115,1.9046761989593504,0.1666666666666666,-2.944837191392475,27.623316407203674,10,0.126190476190476,10,61.14716691419823,6
subject-03,1,447,0.812791109085083,keyboard,keyboard,60,60_keyboard_10_n03085013_6424.png,True,-0.043899617292220375,0.004139594733715,1.0,-0.00039132144455567784,24.380264453589916,10,2.6266233766233764,9,39.328120993919256,10
subject-03,1,448,1.38306593894958,elephant,elephant,120,120_elephant_10_n02504458_3511.png,True,2.93099152818372,2.060699939727783,0.5,-1.6289836901110313,28.865325450897217,10,3.202020202020202,8,33.283007937743434,2
subject-03,1,449,0.816582918167114,cat,cat,0,0_cat_10_n02123597_2232.png,True,-0.02411929616854453,0.1289164423942566,1.0,-0.02256173710049504,25.52245992422104,10,4.920634920634921,7,28.623610096290015,6
subject-03,1,450,0.792258024215698,elephant,elephant,0,0_elephant_10_n02504013_1953.png,True,-0.15101234464466812,0.0003729685267899,1.0,-2.6941662361691687e-05,25.902282319875667,10,4.0508658008658,8,31.78633611878262,10
subject-03,1,451,0.731996059417725,clock,clock,90,90_clock_10_n02708093_181.png,True,-0.46537443130570766,0.0263603050261735,1.0,-0.0030852417186957477,24.475001009181142,10,10.75,2,15.167311778663779,10
subject-03,1,452,0.662003993988037,car,car,90,90_car_10_n04285008_203.png,True,-0.830494483596682,0.0808599814772605,0.1428571428571428,-7.853739022572568,25.170606337487698,10,0.5173992673992669,7,53.05430861756579,6
subject-03,1,453,0.70574688911438,boat,keyboard,180,180_keyboard_10_n03085013_15576.png,False,-0.6023056445070089,2.1844053268432617,0.1666666666666666,-3.1467346524465967,27.907150387763977,10,0.633283383283383,9,42.979887198921816,6
subject-03,1,454,1.08379888534546,car,car,120,120_car_10_n02814533_60400.png,True,1.3698373946388271,1.843176007270813,0.1,-3.911145082946514,27.517139434814453,10,0.244261294261294,7,50.25258162102396,6
subject-03,1,455,1.00939989089966,boat,boat,120,120_boat_10_n04273569_10840.png,True,0.9817281914644307,1.215697169303894,0.0833333333333333,-6.027336272823135,27.087114691734314,10,1.2589285714285714,0,39.838492584285405,7
subject-03,1,456,0.589382886886597,clock,chair,180,180_chair_10_n02791124_2611.png,False,-1.2093291737794258,0.0689182505011558,0.1428571428571428,-7.349443134796265,24.63930144160986,10,0.16648351648351586,10,57.39311600088465,6
subject-03,1,457,1.06938695907593,oven,oven,30,30_oven_10_n04111531_11225.png,True,1.294656254593308,0.2540040612220764,0.5,-3.683886031035497,25.66581016778946,10,0.5075757575757575,10,61.946036072864764,6
subject-03,1,458,0.763078927993774,bicycle,truck,180,180_truck_10_n04467665_35490.png,False,-0.3032277861085987,1.8711891174316408,0.0769230769230769,-4.532927637960078,27.70751917362213,10,0.1804029304029301,3,49.13573581482236,6
subject-03,1,459,1.36257791519165,chair,chair,60,60_chair_10_n02791124_6237.png,True,2.824113866267185,0.711525559425354,0.3333333333333333,-2.5536127214391877,25.750433564186096,10,0.946428571428571,9,47.96000170613598,7
